"rt","url","trial_type","trial_index","time_elapsed","internal_node_id","view_history","stimulus","key_press","state","test_part","correct_response","correct","bonus","responses"
"18532.10000000149","consent.html","external-html","0","18684","0.0-0.0","","","","","","","","",""
"76861.10000000149","","instructions","1","95547","0.0-1.0","[{""page_index"":0,""viewing_time"":4589.60000000149},{""page_index"":1,""viewing_time"":8008.10000000149},{""page_index"":2,""viewing_time"":10436.19999999553},{""page_index"":3,""viewing_time"":18454.10000000149},{""page_index"":4,""viewing_time"":9620.10000000149},{""page_index"":5,""viewing_time"":8819.60000000149},{""page_index"":6,""viewing_time"":9706},{""page_index"":7,""viewing_time"":7226}]","","","","","","","",""
"869.2000000029802","","image-keyboard-response","2","96419","0.0-2.0","","img/nature/S3.jpg","49","3","Ns4,train","51","false","",""
"null","","html-keyboard-response","3","96775","0.0-3.0","","<img src=""img/nature/S3.jpg"" width=""540"" height = ""360"">","null","","","","","",""
"null","","html-keyboard-response","4","96978","0.0-4.0","","","null","","","","","",""
"1111","","image-keyboard-response","5","98092","0.0-5.0","","img/nature/S2.jpg","52","2","Ns4,train","50","false","",""
"null","","html-keyboard-response","6","98445","0.0-6.0","","<img src=""img/nature/S2.jpg"" width=""540"" height = ""360"">","null","","","","","",""
"null","","html-keyboard-response","7","98648","0.0-7.0","","","null","","","","","",""
"841.5","","image-keyboard-response","8","99491","0.0-8.0","","img/nature/S1.jpg","51","1","Ns4,train","49","false","",""
"null","","html-keyboard-response","9","99843","0.0-9.0","","<img src=""img/nature/S1.jpg"" width=""540"" height = ""360"">","null","","","","","",""
"null","","html-keyboard-response","10","100044","0.0-10.0","","","null","","","","","",""
"639.1000000014901","","image-keyboard-response","11","100684","0.0-11.0","","img/nature/S3.jpg","50","3","Ns4,train","51","false","",""
"null","","html-keyboard-response","12","101036","0.0-12.0","","<img src=""img/nature/S3.jpg"" width=""540"" height = ""360"">","null","","","","","",""
"null","","html-keyboard-response","13","101238","0.0-13.0","","","null","","","","","",""
"682.7000000029802","","image-keyboard-response","14","101923","0.0-14.0","","img/nature/S2.jpg","52","2","Ns4,train","50","false","",""
"null","","html-keyboard-response","15","102276","0.0-15.0","","<img src=""img/nature/S2.jpg"" width=""540"" height = ""360"">","null","","","","","",""
"null","","html-keyboard-response","16","102478","0.0-16.0","","","null","","","","","",""
"567","","image-keyboard-response","17","103047","0.0-17.0","","img/nature/S1.jpg","49","1","Ns4,train","49","true","",""
"null","","html-keyboard-response","18","103399","0.0-18.0","","<img src=""img/nature/S1.jpg"" width=""540"" height = ""360"" style=""border:14px solid orange"">","null","","","","","",""
"null","","html-keyboard-response","19","103601","0.0-19.0","","","null","","","","","",""
"1067.5","","image-keyboard-response","20","104670","0.0-20.0","","img/nature/S4.jpg","50","4","Ns4,train","52","false","",""
"null","","html-keyboard-response","21","105022","0.0-21.0","","<img src=""img/nature/S4.jpg"" width=""540"" height = ""360"">","null","","","","","",""
"null","","html-keyboard-response","22","105224","0.0-22.0","","","null","","","","","",""
"845.3999999985099","","image-keyboard-response","23","106071","0.0-23.0","","img/nature/S3.jpg","51","3","Ns4,train","51","true","",""
"null","","html-keyboard-response","24","106423","0.0-24.0","","<img src=""img/nature/S3.jpg"" width=""540"" height = ""360"" style=""border:14px solid orange"">","null","","","","","",""
"null","","html-keyboard-response","25","106625","0.0-25.0","","","null","","","","","",""
"604.0999999940395","","image-keyboard-response","26","107231","0.0-26.0","","img/nature/S3.jpg","51","3","Ns4,train","51","true","",""
"null","","html-keyboard-response","27","107584","0.0-27.0","","<img src=""img/nature/S3.jpg"" width=""540"" height = ""360"" style=""border:14px solid orange"">","null","","","","","",""
"null","","html-keyboard-response","28","107786","0.0-28.0","","","null","","","","","",""
"792.1999999955297","","image-keyboard-response","29","108579","0.0-29.0","","img/nature/S4.jpg","52","4","Ns4,train","52","true","",""
"null","","html-keyboard-response","30","108931","0.0-30.0","","<img src=""img/nature/S4.jpg"" width=""540"" height = ""360"" style=""border:14px solid orange"">","null","","","","","",""
"null","","html-keyboard-response","31","109134","0.0-31.0","","","null","","","","","",""
"951.8999999985099","","image-keyboard-response","32","110088","0.0-32.0","","img/nature/S2.jpg","49","2","Ns4,train","50","false","",""
"null","","html-keyboard-response","33","110440","0.0-33.0","","<img src=""img/nature/S2.jpg"" width=""540"" height = ""360"">","null","","","","","",""
"null","","html-keyboard-response","34","110642","0.0-34.0","","","null","","","","","",""
"892.1999999955297","","image-keyboard-response","35","111537","0.0-35.0","","img/nature/S1.jpg","50","1","Ns4,train","49","false","",""
"null","","html-keyboard-response","36","111889","0.0-36.0","","<img src=""img/nature/S1.jpg"" width=""540"" height = ""360"">","null","","","","","",""
"null","","html-keyboard-response","37","112091","0.0-37.0","","","null","","","","","",""
"1112.7000000029802","","image-keyboard-response","38","113206","0.0-38.0","","img/nature/S4.jpg","51","4","Ns4,train","52","false","",""
"null","","html-keyboard-response","39","113558","0.0-39.0","","<img src=""img/nature/S4.jpg"" width=""540"" height = ""360"">","null","","","","","",""
"null","","html-keyboard-response","40","113760","0.0-40.0","","","null","","","","","",""
"1238.8999999985099","","image-keyboard-response","41","115001","0.0-41.0","","img/nature/S4.jpg","52","4","Ns4,train","52","true","",""
"null","","html-keyboard-response","42","115352","0.0-42.0","","<img src=""img/nature/S4.jpg"" width=""540"" height = ""360"" style=""border:14px solid orange"">","null","","","","","",""
"null","","html-keyboard-response","43","115554","0.0-43.0","","","null","","","","","",""
"420.69999999552965","","image-keyboard-response","44","115976","0.0-44.0","","img/nature/S4.jpg","52","4","Ns4,train","52","true","",""
"null","","html-keyboard-response","45","116328","0.0-45.0","","<img src=""img/nature/S4.jpg"" width=""540"" height = ""360"" style=""border:14px solid orange"">","null","","","","","",""
"null","","html-keyboard-response","46","116530","0.0-46.0","","","null","","","","","",""
"1523.1000000014901","","image-keyboard-response","47","118054","0.0-47.0","","img/nature/S2.jpg","51","2","Ns4,train","50","false","",""
"null","","html-keyboard-response","48","118405","0.0-48.0","","<img src=""img/nature/S2.jpg"" width=""540"" height = ""360"">","null","","","","","",""
"null","","html-keyboard-response","49","118606","0.0-49.0","","","null","","","","","",""
"1393.6000000014901","","image-keyboard-response","50","120001","0.0-50.0","","img/nature/S1.jpg","49","1","Ns4,train","49","true","",""
"null","","html-keyboard-response","51","120353","0.0-51.0","","<img src=""img/nature/S1.jpg"" width=""540"" height = ""360"" style=""border:14px solid orange"">","null","","","","","",""
"null","","html-keyboard-response","52","120555","0.0-52.0","","","null","","","","","",""
"1420.3000000044703","","image-keyboard-response","53","121977","0.0-53.0","","img/nature/S3.jpg","51","3","Ns4,train","51","true","",""
"null","","html-keyboard-response","54","122330","0.0-54.0","","<img src=""img/nature/S3.jpg"" width=""540"" height = ""360"" style=""border:14px solid orange"">","null","","","","","",""
"null","","html-keyboard-response","55","122533","0.0-55.0","","","null","","","","","",""
"1157.7000000029802","","image-keyboard-response","56","123693","0.0-56.0","","img/nature/S2.jpg","50","2","Ns4,train","50","true","",""
"null","","html-keyboard-response","57","124044","0.0-57.0","","<img src=""img/nature/S2.jpg"" width=""540"" height = ""360"" style=""border:14px solid orange"">","null","","","","","",""
"null","","html-keyboard-response","58","124248","0.0-58.0","","","null","","","","","",""
"1233.5","","image-keyboard-response","59","125487","0.0-59.0","","img/nature/S1.jpg","49","1","Ns4,train","49","true","",""
"null","","html-keyboard-response","60","125839","0.0-60.0","","<img src=""img/nature/S1.jpg"" width=""540"" height = ""360"" style=""border:14px solid orange"">","null","","","","","",""
"null","","html-keyboard-response","61","126042","0.0-61.0","","","null","","","","","",""
"760.8999999985099","","image-keyboard-response","62","126805","0.0-62.0","","img/nature/S2.jpg","50","2","Ns4,train","50","true","",""
"null","","html-keyboard-response","63","127159","0.0-63.0","","<img src=""img/nature/S2.jpg"" width=""540"" height = ""360"" style=""border:14px solid orange"">","null","","","","","",""
"null","","html-keyboard-response","64","127361","0.0-64.0","","","null","","","","","",""
"2265.39999999851","","image-keyboard-response","65","129628","0.0-65.0","","img/nature/S1.jpg","49","1","Ns4,train","49","true","",""
"null","","html-keyboard-response","66","129982","0.0-66.0","","<img src=""img/nature/S1.jpg"" width=""540"" height = ""360"" style=""border:14px solid orange"">","null","","","","","",""
"null","","html-keyboard-response","67","130184","0.0-67.0","","","null","","","","","",""
"786.2999999970198","","image-keyboard-response","68","130972","0.0-68.0","","img/nature/S3.jpg","51","3","Ns4,train","51","true","",""
"null","","html-keyboard-response","69","131324","0.0-69.0","","<img src=""img/nature/S3.jpg"" width=""540"" height = ""360"" style=""border:14px solid orange"">","null","","","","","",""
"null","","html-keyboard-response","70","131530","0.0-70.0","","","null","","","","","",""
"1089.6000000014901","","image-keyboard-response","71","132622","0.0-71.0","","img/nature/S2.jpg","49","2","Ns4,train","50","false","",""
"null","","html-keyboard-response","72","132974","0.0-72.0","","<img src=""img/nature/S2.jpg"" width=""540"" height = ""360"">","null","","","","","",""
"null","","html-keyboard-response","73","133177","0.0-73.0","","","null","","","","","",""
"713.2000000029802","","image-keyboard-response","74","133893","0.0-74.0","","img/nature/S1.jpg","49","1","Ns4,train","49","true","",""
"null","","html-keyboard-response","75","134246","0.0-75.0","","<img src=""img/nature/S1.jpg"" width=""540"" height = ""360"" style=""border:14px solid orange"">","null","","","","","",""
"null","","html-keyboard-response","76","134449","0.0-76.0","","","null","","","","","",""
"373.40000000596046","","image-keyboard-response","77","134824","0.0-77.0","","img/nature/S2.jpg","50","2","Ns4,train","50","true","",""
"null","","html-keyboard-response","78","135177","0.0-78.0","","<img src=""img/nature/S2.jpg"" width=""540"" height = ""360"" style=""border:14px solid orange"">","null","","","","","",""
"null","","html-keyboard-response","79","135379","0.0-79.0","","","null","","","","","",""
"709.6000000014901","","image-keyboard-response","80","136090","0.0-80.0","","img/nature/S1.jpg","49","1","Ns4,train","49","true","",""
"null","","html-keyboard-response","81","136443","0.0-81.0","","<img src=""img/nature/S1.jpg"" width=""540"" height = ""360"" style=""border:14px solid orange"">","null","","","","","",""
"null","","html-keyboard-response","82","136645","0.0-82.0","","","null","","","","","",""
"618.6000000014901","","image-keyboard-response","83","137266","0.0-83.0","","img/nature/S3.jpg","51","3","Ns4,train","51","true","",""
"null","","html-keyboard-response","84","137618","0.0-84.0","","<img src=""img/nature/S3.jpg"" width=""540"" height = ""360"" style=""border:14px solid orange"">","null","","","","","",""
"null","","html-keyboard-response","85","137819","0.0-85.0","","","null","","","","","",""
"581.1000000014901","","image-keyboard-response","86","138402","0.0-86.0","","img/nature/S3.jpg","51","3","Ns4,train","51","true","",""
"null","","html-keyboard-response","87","138756","0.0-87.0","","<img src=""img/nature/S3.jpg"" width=""540"" height = ""360"" style=""border:14px solid orange"">","null","","","","","",""
"null","","html-keyboard-response","88","138959","0.0-88.0","","","null","","","","","",""
"1617","","image-keyboard-response","89","140577","0.0-89.0","","img/nature/S2.jpg","50","2","Ns4,train","50","true","",""
"null","","html-keyboard-response","90","140929","0.0-90.0","","<img src=""img/nature/S2.jpg"" width=""540"" height = ""360"" style=""border:14px solid orange"">","null","","","","","",""
"null","","html-keyboard-response","91","141131","0.0-91.0","","","null","","","","","",""
"708.6999999955297","","image-keyboard-response","92","141842","0.0-92.0","","img/nature/S1.jpg","49","1","Ns4,train","49","true","",""
"null","","html-keyboard-response","93","142195","0.0-93.0","","<img src=""img/nature/S1.jpg"" width=""540"" height = ""360"" style=""border:14px solid orange"">","null","","","","","",""
"null","","html-keyboard-response","94","142399","0.0-94.0","","","null","","","","","",""
"732.2999999970198","","image-keyboard-response","95","143134","0.0-95.0","","img/nature/S4.jpg","52","4","Ns4,train","52","true","",""
"null","","html-keyboard-response","96","143487","0.0-96.0","","<img src=""img/nature/S4.jpg"" width=""540"" height = ""360"" style=""border:14px solid orange"">","null","","","","","",""
"null","","html-keyboard-response","97","143689","0.0-97.0","","","null","","","","","",""
"1348.8000000044703","","image-keyboard-response","98","145040","0.0-98.0","","img/nature/S2.jpg","50","2","Ns4,train","50","true","",""
"null","","html-keyboard-response","99","145393","0.0-99.0","","<img src=""img/nature/S2.jpg"" width=""540"" height = ""360"" style=""border:14px solid orange"">","null","","","","","",""
"null","","html-keyboard-response","100","145594","0.0-100.0","","","null","","","","","",""
"768","","image-keyboard-response","101","146364","0.0-101.0","","img/nature/S1.jpg","49","1","Ns4,train","49","true","",""
"null","","html-keyboard-response","102","146717","0.0-102.0","","<img src=""img/nature/S1.jpg"" width=""540"" height = ""360"" style=""border:14px solid orange"">","null","","","","","",""
"null","","html-keyboard-response","103","146918","0.0-103.0","","","null","","","","","",""
"801.1000000014901","","image-keyboard-response","104","147721","0.0-104.0","","img/nature/S4.jpg","52","4","Ns4,train","52","true","",""
"null","","html-keyboard-response","105","148073","0.0-105.0","","<img src=""img/nature/S4.jpg"" width=""540"" height = ""360"" style=""border:14px solid orange"">","null","","","","","",""
"null","","html-keyboard-response","106","148275","0.0-106.0","","","null","","","","","",""
"1287.8999999985099","","image-keyboard-response","107","149564","0.0-107.0","","img/nature/S2.jpg","50","2","Ns4,train","50","true","",""
"null","","html-keyboard-response","108","149916","0.0-108.0","","<img src=""img/nature/S2.jpg"" width=""540"" height = ""360"" style=""border:14px solid orange"">","null","","","","","",""
"null","","html-keyboard-response","109","150118","0.0-109.0","","","null","","","","","",""
"727.3999999985099","","image-keyboard-response","110","150847","0.0-110.0","","img/nature/S1.jpg","49","1","Ns4,train","49","true","",""
"null","","html-keyboard-response","111","151200","0.0-111.0","","<img src=""img/nature/S1.jpg"" width=""540"" height = ""360"" style=""border:14px solid orange"">","null","","","","","",""
"null","","html-keyboard-response","112","151401","0.0-112.0","","","null","","","","","",""
"732.7000000029802","","image-keyboard-response","113","152136","0.0-113.0","","img/nature/S3.jpg","51","3","Ns4,train","51","true","",""
"null","","html-keyboard-response","114","152488","0.0-114.0","","<img src=""img/nature/S3.jpg"" width=""540"" height = ""360"" style=""border:14px solid orange"">","null","","","","","",""
"null","","html-keyboard-response","115","152690","0.0-115.0","","","null","","","","","",""
"683.2999999970198","","image-keyboard-response","116","153375","0.0-116.0","","img/nature/S4.jpg","52","4","Ns4,train","52","true","",""
"null","","html-keyboard-response","117","153727","0.0-117.0","","<img src=""img/nature/S4.jpg"" width=""540"" height = ""360"" style=""border:14px solid orange"">","null","","","","","",""
"null","","html-keyboard-response","118","153929","0.0-118.0","","","null","","","","","",""
"1773.5","","image-keyboard-response","119","155705","0.0-119.0","","img/nature/S3.jpg","51","3","Ns4,train","51","true","",""
"null","","html-keyboard-response","120","156058","0.0-120.0","","<img src=""img/nature/S3.jpg"" width=""540"" height = ""360"" style=""border:14px solid orange"">","null","","","","","",""
"null","","html-keyboard-response","121","156264","0.0-121.0","","","null","","","","","",""
"591.6000000014901","","image-keyboard-response","122","156862","0.0-122.0","","img/nature/S3.jpg","51","3","Ns4,train","51","true","",""
"null","","html-keyboard-response","123","157215","0.0-123.0","","<img src=""img/nature/S3.jpg"" width=""540"" height = ""360"" style=""border:14px solid orange"">","null","","","","","",""
"null","","html-keyboard-response","124","157416","0.0-124.0","","","null","","","","","",""
"768.3999999985099","","image-keyboard-response","125","158186","0.0-125.0","","img/nature/S2.jpg","50","2","Ns4,train","50","true","",""
"null","","html-keyboard-response","126","158539","0.0-126.0","","<img src=""img/nature/S2.jpg"" width=""540"" height = ""360"" style=""border:14px solid orange"">","null","","","","","",""
"null","","html-keyboard-response","127","158741","0.0-127.0","","","null","","","","","",""
"763.3999999985099","","image-keyboard-response","128","159506","0.0-128.0","","img/nature/S1.jpg","49","1","Ns4,train","49","true","",""
"null","","html-keyboard-response","129","159859","0.0-129.0","","<img src=""img/nature/S1.jpg"" width=""540"" height = ""360"" style=""border:14px solid orange"">","null","","","","","",""
"null","","html-keyboard-response","130","160062","0.0-130.0","","","null","","","","","",""
"654.5","","image-keyboard-response","131","160718","0.0-131.0","","img/nature/S4.jpg","52","4","Ns4,train","52","true","",""
"null","","html-keyboard-response","132","161071","0.0-132.0","","<img src=""img/nature/S4.jpg"" width=""540"" height = ""360"" style=""border:14px solid orange"">","null","","","","","",""
"null","","html-keyboard-response","133","161272","0.0-133.0","","","null","","","","","",""
"530.1000000014901","","image-keyboard-response","134","161804","0.0-134.0","","img/nature/S4.jpg","52","4","Ns4,train","52","true","",""
"null","","html-keyboard-response","135","162156","0.0-135.0","","<img src=""img/nature/S4.jpg"" width=""540"" height = ""360"" style=""border:14px solid orange"">","null","","","","","",""
"null","","html-keyboard-response","136","162359","0.0-136.0","","","null","","","","","",""
"1251","","image-keyboard-response","137","163611","0.0-137.0","","img/nature/S2.jpg","50","2","Ns4,train","50","true","",""
"null","","html-keyboard-response","138","163963","0.0-138.0","","<img src=""img/nature/S2.jpg"" width=""540"" height = ""360"" style=""border:14px solid orange"">","null","","","","","",""
"null","","html-keyboard-response","139","164165","0.0-139.0","","","null","","","","","",""
"639.6000000014901","","image-keyboard-response","140","164806","0.0-140.0","","img/nature/S1.jpg","49","1","Ns4,train","49","true","",""
"null","","html-keyboard-response","141","165159","0.0-141.0","","<img src=""img/nature/S1.jpg"" width=""540"" height = ""360"" style=""border:14px solid orange"">","null","","","","","",""
"null","","html-keyboard-response","142","165361","0.0-142.0","","","null","","","","","",""
"778.2000000029802","","image-keyboard-response","143","166140","0.0-143.0","","img/nature/S4.jpg","52","4","Ns4,train","52","true","",""
"null","","html-keyboard-response","144","166492","0.0-144.0","","<img src=""img/nature/S4.jpg"" width=""540"" height = ""360"" style=""border:14px solid orange"">","null","","","","","",""
"null","","html-keyboard-response","145","166695","0.0-145.0","","","null","","","","","",""
"551","","image-keyboard-response","146","167248","0.0-146.0","","img/nature/S4.jpg","52","4","Ns4,train","52","true","",""
"null","","html-keyboard-response","147","167601","0.0-147.0","","<img src=""img/nature/S4.jpg"" width=""540"" height = ""360"" style=""border:14px solid orange"">","null","","","","","",""
"null","","html-keyboard-response","148","167802","0.0-148.0","","","null","","","","","",""
"463.90000000596046","","image-keyboard-response","149","168268","0.0-149.0","","img/nature/S4.jpg","52","4","Ns4,train","52","true","",""
"null","","html-keyboard-response","150","168620","0.0-150.0","","<img src=""img/nature/S4.jpg"" width=""540"" height = ""360"" style=""border:14px solid orange"">","null","","","","","",""
"null","","html-keyboard-response","151","168822","0.0-151.0","","","null","","","","","",""
"659.6999999955297","","image-keyboard-response","152","169483","0.0-152.0","","img/nature/S2.jpg","50","2","Ns4,train","50","true","",""
"null","","html-keyboard-response","153","169839","0.0-153.0","","<img src=""img/nature/S2.jpg"" width=""540"" height = ""360"" style=""border:14px solid orange"">","null","","","","","",""
"null","","html-keyboard-response","154","170040","0.0-154.0","","","null","","","","","",""
"684.6000000014901","","image-keyboard-response","155","170728","0.0-155.0","","img/nature/S1.jpg","49","1","Ns4,train","49","true","",""
"null","","html-keyboard-response","156","171081","0.0-156.0","","<img src=""img/nature/S1.jpg"" width=""540"" height = ""360"" style=""border:14px solid orange"">","null","","","","","",""
"null","","html-keyboard-response","157","171283","0.0-157.0","","","null","","","","","",""
"659.3999999985099","","image-keyboard-response","158","171945","0.0-158.0","","img/nature/S3.jpg","51","3","Ns4,train","51","true","",""
"null","","html-keyboard-response","159","172300","0.0-159.0","","<img src=""img/nature/S3.jpg"" width=""540"" height = ""360"" style=""border:14px solid orange"">","null","","","","","",""
"null","","html-keyboard-response","160","172501","0.0-160.0","","","null","","","","","",""
"463.19999999552965","","image-keyboard-response","161","172965","0.0-161.0","","img/nature/S3.jpg","51","3","Ns4,train","51","true","",""
"null","","html-keyboard-response","162","173317","0.0-162.0","","<img src=""img/nature/S3.jpg"" width=""540"" height = ""360"" style=""border:14px solid orange"">","null","","","","","",""
"null","","html-keyboard-response","163","173518","0.0-163.0","","","null","","","","","",""
"382.79999999701977","","image-keyboard-response","164","173902","0.0-164.0","","img/nature/S3.jpg","51","3","Ns4,train","51","true","",""
"null","","html-keyboard-response","165","174256","0.0-165.0","","<img src=""img/nature/S3.jpg"" width=""540"" height = ""360"" style=""border:14px solid orange"">","null","","","","","",""
"null","","html-keyboard-response","166","174457","0.0-166.0","","","null","","","","","",""
"757.0999999940395","","image-keyboard-response","167","175215","0.0-167.0","","img/nature/S2.jpg","50","2","Ns4,train","50","true","",""
"null","","html-keyboard-response","168","175567","0.0-168.0","","<img src=""img/nature/S2.jpg"" width=""540"" height = ""360"" style=""border:14px solid orange"">","null","","","","","",""
"null","","html-keyboard-response","169","175769","0.0-169.0","","","null","","","","","",""
"529.7999999970198","","image-keyboard-response","170","176300","0.0-170.0","","img/nature/S1.jpg","49","1","Ns4,train","49","true","",""
"null","","html-keyboard-response","171","176652","0.0-171.0","","<img src=""img/nature/S1.jpg"" width=""540"" height = ""360"" style=""border:14px solid orange"">","null","","","","","",""
"null","","html-keyboard-response","172","176854","0.0-172.0","","","null","","","","","",""
"671.3999999985099","","image-keyboard-response","173","177527","0.0-173.0","","img/nature/S3.jpg","51","3","Ns4,train","51","true","",""
"null","","html-keyboard-response","174","177880","0.0-174.0","","<img src=""img/nature/S3.jpg"" width=""540"" height = ""360"" style=""border:14px solid orange"">","null","","","","","",""
"null","","html-keyboard-response","175","178082","0.0-175.0","","","null","","","","","",""
"597.6000000014901","","image-keyboard-response","176","178681","0.0-176.0","","img/nature/S2.jpg","50","2","Ns4,train","50","true","",""
"null","","html-keyboard-response","177","179034","0.0-177.0","","<img src=""img/nature/S2.jpg"" width=""540"" height = ""360"" style=""border:14px solid orange"">","null","","","","","",""
"null","","html-keyboard-response","178","179235","0.0-178.0","","","null","","","","","",""
"530","","image-keyboard-response","179","179767","0.0-179.0","","img/nature/S1.jpg","49","1","Ns4,train","49","true","",""
"null","","html-keyboard-response","180","180119","0.0-180.0","","<img src=""img/nature/S1.jpg"" width=""540"" height = ""360"" style=""border:14px solid orange"">","null","","","","","",""
"null","","html-keyboard-response","181","180323","0.0-181.0","","","null","","","","","",""
"1046.6999999955297","","image-keyboard-response","182","181372","0.0-182.0","","img/nature/S2.jpg","50","2","Ns4,train","50","true","",""
"null","","html-keyboard-response","183","181725","0.0-183.0","","<img src=""img/nature/S2.jpg"" width=""540"" height = ""360"" style=""border:14px solid orange"">","null","","","","","",""
"null","","html-keyboard-response","184","181927","0.0-184.0","","","null","","","","","",""
"689.6999999955297","","image-keyboard-response","185","182619","0.0-185.0","","img/nature/S1.jpg","49","1","Ns4,train","49","true","",""
"null","","html-keyboard-response","186","182972","0.0-186.0","","<img src=""img/nature/S1.jpg"" width=""540"" height = ""360"" style=""border:14px solid orange"">","null","","","","","",""
"null","","html-keyboard-response","187","183178","0.0-187.0","","","null","","","","","",""
"651.6000000014901","","image-keyboard-response","188","183832","0.0-188.0","","img/nature/S4.jpg","52","4","Ns4,train","52","true","",""
"null","","html-keyboard-response","189","184184","0.0-189.0","","<img src=""img/nature/S4.jpg"" width=""540"" height = ""360"" style=""border:14px solid orange"">","null","","","","","",""
"null","","html-keyboard-response","190","184384","0.0-190.0","","","null","","","","","",""
"667.5999999940395","","image-keyboard-response","191","185053","0.0-191.0","","img/nature/S3.jpg","51","3","Ns4,train","51","true","",""
"null","","html-keyboard-response","192","185406","0.0-192.0","","<img src=""img/nature/S3.jpg"" width=""540"" height = ""360"" style=""border:14px solid orange"">","null","","","","","",""
"null","","html-keyboard-response","193","185608","0.0-193.0","","","null","","","","","",""
"767.8999999985099","","image-keyboard-response","194","186378","0.0-194.0","","img/nature/S4.jpg","52","4","Ns4,train","52","true","",""
"null","","html-keyboard-response","195","186730","0.0-195.0","","<img src=""img/nature/S4.jpg"" width=""540"" height = ""360"" style=""border:14px solid orange"">","null","","","","","",""
"null","","html-keyboard-response","196","186931","0.0-196.0","","","null","","","","","",""
"775.8999999985099","","image-keyboard-response","197","187709","0.0-197.0","","img/nature/S2.jpg","50","2","Ns4,train","50","true","",""
"null","","html-keyboard-response","198","188061","0.0-198.0","","<img src=""img/nature/S2.jpg"" width=""540"" height = ""360"" style=""border:14px solid orange"">","null","","","","","",""
"null","","html-keyboard-response","199","188264","0.0-199.0","","","null","","","","","",""
"652.6999999955297","","image-keyboard-response","200","188919","0.0-200.0","","img/nature/S1.jpg","49","1","Ns4,train","49","true","",""
"null","","html-keyboard-response","201","189273","0.0-201.0","","<img src=""img/nature/S1.jpg"" width=""540"" height = ""360"" style=""border:14px solid orange"">","null","","","","","",""
"null","","html-keyboard-response","202","189475","0.0-202.0","","","null","","","","","",""
"716.5","","image-keyboard-response","203","190193","0.0-203.0","","img/nature/S4.jpg","52","4","Ns4,train","52","true","",""
"null","","html-keyboard-response","204","190546","0.0-204.0","","<img src=""img/nature/S4.jpg"" width=""540"" height = ""360"" style=""border:14px solid orange"">","null","","","","","",""
"null","","html-keyboard-response","205","190749","0.0-205.0","","","null","","","","","",""
"865.8999999985099","","image-keyboard-response","206","191618","0.0-206.0","","img/nature/S2.jpg","50","2","Ns4,train","50","true","",""
"null","","html-keyboard-response","207","191970","0.0-207.0","","<img src=""img/nature/S2.jpg"" width=""540"" height = ""360"" style=""border:14px solid orange"">","null","","","","","",""
"null","","html-keyboard-response","208","192172","0.0-208.0","","","null","","","","","",""
"627.6000000014901","","image-keyboard-response","209","192801","0.0-209.0","","img/nature/S1.jpg","49","1","Ns4,train","49","true","",""
"null","","html-keyboard-response","210","193152","0.0-210.0","","<img src=""img/nature/S1.jpg"" width=""540"" height = ""360"" style=""border:14px solid orange"">","null","","","","","",""
"null","","html-keyboard-response","211","193354","0.0-211.0","","","null","","","","","",""
"674.1000000014901","","image-keyboard-response","212","194030","0.0-212.0","","img/nature/S4.jpg","52","4","Ns4,train","52","true","",""
"null","","html-keyboard-response","213","194383","0.0-213.0","","<img src=""img/nature/S4.jpg"" width=""540"" height = ""360"" style=""border:14px solid orange"">","null","","","","","",""
"null","","html-keyboard-response","214","194585","0.0-214.0","","","null","","","","","",""
"622.5","","image-keyboard-response","215","195209","0.0-215.0","","img/nature/S3.jpg","51","3","Ns4,train","51","true","",""
"null","","html-keyboard-response","216","195562","0.0-216.0","","<img src=""img/nature/S3.jpg"" width=""540"" height = ""360"" style=""border:14px solid orange"">","null","","","","","",""
"null","","html-keyboard-response","217","195764","0.0-217.0","","","null","","","","","",""
"770.3000000044703","","image-keyboard-response","218","196536","0.0-218.0","","img/nature/S3.jpg","51","3","Ns4,train","51","true","",""
"null","","html-keyboard-response","219","196889","0.0-219.0","","<img src=""img/nature/S3.jpg"" width=""540"" height = ""360"" style=""border:14px solid orange"">","null","","","","","",""
"null","","html-keyboard-response","220","197091","0.0-220.0","","","null","","","","","",""
"724.8999999985099","","image-keyboard-response","221","197817","0.0-221.0","","img/nature/S4.jpg","52","4","Ns4,train","52","true","",""
"null","","html-keyboard-response","222","198168","0.0-222.0","","<img src=""img/nature/S4.jpg"" width=""540"" height = ""360"" style=""border:14px solid orange"">","null","","","","","",""
"null","","html-keyboard-response","223","198370","0.0-223.0","","","null","","","","","",""
"399.3999999985099","","image-keyboard-response","224","198771","0.0-224.0","","img/nature/S4.jpg","52","4","Ns4,train","52","true","",""
"null","","html-keyboard-response","225","199123","0.0-225.0","","<img src=""img/nature/S4.jpg"" width=""540"" height = ""360"" style=""border:14px solid orange"">","null","","","","","",""
"null","","html-keyboard-response","226","199325","0.0-226.0","","","null","","","","","",""
"637.3999999985099","","image-keyboard-response","227","199965","0.0-227.0","","img/nature/S3.jpg","51","3","Ns4,train","51","true","",""
"null","","html-keyboard-response","228","200318","0.0-228.0","","<img src=""img/nature/S3.jpg"" width=""540"" height = ""360"" style=""border:14px solid orange"">","null","","","","","",""
"null","","html-keyboard-response","229","200521","0.0-229.0","","","null","","","","","",""
"723.5","","image-keyboard-response","230","201246","0.0-230.0","","img/nature/S3.jpg","51","3","Ns4,train","51","true","",""
"null","","html-keyboard-response","231","201599","0.0-231.0","","<img src=""img/nature/S3.jpg"" width=""540"" height = ""360"" style=""border:14px solid orange"">","null","","","","","",""
"null","","html-keyboard-response","232","201800","0.0-232.0","","","null","","","","","",""
"715","","image-keyboard-response","233","202516","0.0-233.0","","img/nature/S2.jpg","50","2","Ns4,train","50","true","",""
"null","","html-keyboard-response","234","202868","0.0-234.0","","<img src=""img/nature/S2.jpg"" width=""540"" height = ""360"" style=""border:14px solid orange"">","null","","","","","",""
"null","","html-keyboard-response","235","203070","0.0-235.0","","","null","","","","","",""
"634.5","","image-keyboard-response","236","203707","0.0-236.0","","img/nature/S1.jpg","49","1","Ns4,train","49","true","",""
"null","","html-keyboard-response","237","204059","0.0-237.0","","<img src=""img/nature/S1.jpg"" width=""540"" height = ""360"" style=""border:14px solid orange"">","null","","","","","",""
"null","","html-keyboard-response","238","204261","0.0-238.0","","","null","","","","","",""
"773.6999999955297","","image-keyboard-response","239","205037","0.0-239.0","","img/nature/S4.jpg","52","4","Ns4,train","52","true","",""
"null","","html-keyboard-response","240","205391","0.0-240.0","","<img src=""img/nature/S4.jpg"" width=""540"" height = ""360"" style=""border:14px solid orange"">","null","","","","","",""
"null","","html-keyboard-response","241","205593","0.0-241.0","","","null","","","","","",""
"6427.29999999702","","html-keyboard-response","242","212022","0.0-242.0","","<p class=""center-content"">You have completed a block! </p><p class=""center-content"">Press any key on the keyboard to continue to the next block,</p><p class=""center-content"">or wait for the automatic progression to the next block after one minute.</p>","68","","","","","",""
"735.3000000044703","","image-keyboard-response","243","212759","0.0-243.0","","img/nature/S2.jpg","50","2","Ns4,perform","50","true","",""
"null","","html-keyboard-response","244","213113","0.0-244.0","","<img src=""img/nature/S2.jpg"" width=""540"" height = ""360"" style=""border:14px solid orange"">","null","","","","","",""
"null","","html-keyboard-response","245","213316","0.0-245.0","","","null","","","","","",""
"622.8999999985099","","image-keyboard-response","246","213940","0.0-246.0","","img/nature/S1.jpg","49","1","Ns4,perform","49","true","",""
"null","","html-keyboard-response","247","214294","0.0-247.0","","<img src=""img/nature/S1.jpg"" width=""540"" height = ""360"" style=""border:14px solid orange"">","null","","","","","",""
"null","","html-keyboard-response","248","214496","0.0-248.0","","","null","","","","","",""
"646.6999999955297","","image-keyboard-response","249","215145","0.0-249.0","","img/nature/S4.jpg","52","4","Ns4,perform","52","true","",""
"null","","html-keyboard-response","250","215498","0.0-250.0","","<img src=""img/nature/S4.jpg"" width=""540"" height = ""360"" style=""border:14px solid orange"">","null","","","","","",""
"null","","html-keyboard-response","251","215700","0.0-251.0","","","null","","","","","",""
"391.8999999985099","","image-keyboard-response","252","216094","0.0-252.0","","img/nature/S4.jpg","52","4","Ns4,perform","52","true","",""
"null","","html-keyboard-response","253","216447","0.0-253.0","","<img src=""img/nature/S4.jpg"" width=""540"" height = ""360"" style=""border:14px solid orange"">","null","","","","","",""
"null","","html-keyboard-response","254","216648","0.0-254.0","","","null","","","","","",""
"481.80000000447035","","image-keyboard-response","255","217131","0.0-255.0","","img/nature/S4.jpg","52","4","Ns4,perform","52","true","",""
"null","","html-keyboard-response","256","217484","0.0-256.0","","<img src=""img/nature/S4.jpg"" width=""540"" height = ""360"" style=""border:14px solid orange"">","null","","","","","",""
"null","","html-keyboard-response","257","217686","0.0-257.0","","","null","","","","","",""
"461.3999999985099","","image-keyboard-response","258","218149","0.0-258.0","","img/nature/S4.jpg","52","4","Ns4,perform","52","true","",""
"null","","html-keyboard-response","259","218501","0.0-259.0","","<img src=""img/nature/S4.jpg"" width=""540"" height = ""360"" style=""border:14px solid orange"">","null","","","","","",""
"null","","html-keyboard-response","260","218704","0.0-260.0","","","null","","","","","",""
"511.8999999985099","","image-keyboard-response","261","219218","0.0-261.0","","img/nature/S4.jpg","52","4","Ns4,perform","52","true","",""
"null","","html-keyboard-response","262","219570","0.0-262.0","","<img src=""img/nature/S4.jpg"" width=""540"" height = ""360"" style=""border:14px solid orange"">","null","","","","","",""
"null","","html-keyboard-response","263","219772","0.0-263.0","","","null","","","","","",""
"441.5","","image-keyboard-response","264","220216","0.0-264.0","","img/nature/S4.jpg","52","4","Ns4,perform","52","true","",""
"null","","html-keyboard-response","265","220568","0.0-265.0","","<img src=""img/nature/S4.jpg"" width=""540"" height = ""360"" style=""border:14px solid orange"">","null","","","","","",""
"null","","html-keyboard-response","266","220770","0.0-266.0","","","null","","","","","",""
"570.2999999970198","","image-keyboard-response","267","221342","0.0-267.0","","img/nature/S3.jpg","51","3","Ns4,perform","51","true","",""
"null","","html-keyboard-response","268","221695","0.0-268.0","","<img src=""img/nature/S3.jpg"" width=""540"" height = ""360"" style=""border:14px solid orange"">","null","","","","","",""
"null","","html-keyboard-response","269","221896","0.0-269.0","","","null","","","","","",""
"616.8000000044703","","image-keyboard-response","270","222515","0.0-270.0","","img/nature/S4.jpg","52","4","Ns4,perform","52","true","",""
"null","","html-keyboard-response","271","222868","0.0-271.0","","<img src=""img/nature/S4.jpg"" width=""540"" height = ""360"" style=""border:14px solid orange"">","null","","","","","",""
"null","","html-keyboard-response","272","223070","0.0-272.0","","","null","","","","","",""
"371.90000000596046","","image-keyboard-response","273","223444","0.0-273.0","","img/nature/S4.jpg","52","4","Ns4,perform","52","true","",""
"null","","html-keyboard-response","274","223797","0.0-274.0","","<img src=""img/nature/S4.jpg"" width=""540"" height = ""360"" style=""border:14px solid orange"">","null","","","","","",""
"null","","html-keyboard-response","275","223999","0.0-275.0","","","null","","","","","",""
"592.6999999955297","","image-keyboard-response","276","224594","0.0-276.0","","img/nature/S2.jpg","50","2","Ns4,perform","50","true","",""
"null","","html-keyboard-response","277","224945","0.0-277.0","","<img src=""img/nature/S2.jpg"" width=""540"" height = ""360"" style=""border:14px solid orange"">","null","","","","","",""
"null","","html-keyboard-response","278","225147","0.0-278.0","","","null","","","","","",""
"561.6999999955297","","image-keyboard-response","279","225711","0.0-279.0","","img/nature/S1.jpg","49","1","Ns4,perform","49","true","",""
"null","","html-keyboard-response","280","226064","0.0-280.0","","<img src=""img/nature/S1.jpg"" width=""540"" height = ""360"" style=""border:14px solid orange"">","null","","","","","",""
"null","","html-keyboard-response","281","226266","0.0-281.0","","","null","","","","","",""
"594.3999999985099","","image-keyboard-response","282","226862","0.0-282.0","","img/nature/S4.jpg","52","4","Ns4,perform","52","true","",""
"null","","html-keyboard-response","283","227215","0.0-283.0","","<img src=""img/nature/S4.jpg"" width=""540"" height = ""360"" style=""border:14px solid orange"">","null","","","","","",""
"null","","html-keyboard-response","284","227417","0.0-284.0","","","null","","","","","",""
"629.7999999970198","","image-keyboard-response","285","228048","0.0-285.0","","img/nature/S3.jpg","51","3","Ns4,perform","51","true","",""
"null","","html-keyboard-response","286","228400","0.0-286.0","","<img src=""img/nature/S3.jpg"" width=""540"" height = ""360"" style=""border:14px solid orange"">","null","","","","","",""
"null","","html-keyboard-response","287","228602","0.0-287.0","","","null","","","","","",""
"774","","image-keyboard-response","288","229377","0.0-288.0","","img/nature/S3.jpg","51","3","Ns4,perform","51","true","",""
"null","","html-keyboard-response","289","229729","0.0-289.0","","<img src=""img/nature/S3.jpg"" width=""540"" height = ""360"" style=""border:14px solid orange"">","null","","","","","",""
"null","","html-keyboard-response","290","229931","0.0-290.0","","","null","","","","","",""
"407.6000000014901","","image-keyboard-response","291","230340","0.0-291.0","","img/nature/S3.jpg","51","3","Ns4,perform","51","true","",""
"null","","html-keyboard-response","292","230691","0.0-292.0","","<img src=""img/nature/S3.jpg"" width=""540"" height = ""360"" style=""border:14px solid orange"">","null","","","","","",""
"null","","html-keyboard-response","293","230893","0.0-293.0","","","null","","","","","",""
"359.20000000298023","","image-keyboard-response","294","231255","0.0-294.0","","img/nature/S3.jpg","51","3","Ns4,perform","51","true","",""
"null","","html-keyboard-response","295","231609","0.0-295.0","","<img src=""img/nature/S3.jpg"" width=""540"" height = ""360"" style=""border:14px solid orange"">","null","","","","","",""
"null","","html-keyboard-response","296","231812","0.0-296.0","","","null","","","","","",""
"355.09999999403954","","image-keyboard-response","297","232169","0.0-297.0","","img/nature/S3.jpg","51","3","Ns4,perform","51","true","",""
"null","","html-keyboard-response","298","232522","0.0-298.0","","<img src=""img/nature/S3.jpg"" width=""540"" height = ""360"" style=""border:14px solid orange"">","null","","","","","",""
"null","","html-keyboard-response","299","232723","0.0-299.0","","","null","","","","","",""
"587","","image-keyboard-response","300","233312","0.0-300.0","","img/nature/S2.jpg","50","2","Ns4,perform","50","true","",""
"null","","html-keyboard-response","301","233664","0.0-301.0","","<img src=""img/nature/S2.jpg"" width=""540"" height = ""360"" style=""border:14px solid orange"">","null","","","","","",""
"null","","html-keyboard-response","302","233866","0.0-302.0","","","null","","","","","",""
"662.0999999940395","","image-keyboard-response","303","234529","0.0-303.0","","img/nature/S1.jpg","49","1","Ns4,perform","49","true","",""
"null","","html-keyboard-response","304","234881","0.0-304.0","","<img src=""img/nature/S1.jpg"" width=""540"" height = ""360"" style=""border:14px solid orange"">","null","","","","","",""
"null","","html-keyboard-response","305","235083","0.0-305.0","","","null","","","","","",""
"647.8000000044703","","image-keyboard-response","306","235733","0.0-306.0","","img/nature/S4.jpg","52","4","Ns4,perform","52","true","",""
"null","","html-keyboard-response","307","236086","0.0-307.0","","<img src=""img/nature/S4.jpg"" width=""540"" height = ""360"" style=""border:14px solid orange"">","null","","","","","",""
"null","","html-keyboard-response","308","236288","0.0-308.0","","","null","","","","","",""
"630.7999999970198","","image-keyboard-response","309","236922","0.0-309.0","","img/nature/S2.jpg","50","2","Ns4,perform","50","true","",""
"null","","html-keyboard-response","310","237275","0.0-310.0","","<img src=""img/nature/S2.jpg"" width=""540"" height = ""360"" style=""border:14px solid orange"">","null","","","","","",""
"null","","html-keyboard-response","311","237477","0.0-311.0","","","null","","","","","",""
"723.6000000014901","","image-keyboard-response","312","238202","0.0-312.0","","img/nature/S1.jpg","49","1","Ns4,perform","49","true","",""
"null","","html-keyboard-response","313","238555","0.0-313.0","","<img src=""img/nature/S1.jpg"" width=""540"" height = ""360"" style=""border:14px solid orange"">","null","","","","","",""
"null","","html-keyboard-response","314","238757","0.0-314.0","","","null","","","","","",""
"646.5","","image-keyboard-response","315","239406","0.0-315.0","","img/nature/S3.jpg","51","3","Ns4,perform","51","true","",""
"null","","html-keyboard-response","316","239759","0.0-316.0","","<img src=""img/nature/S3.jpg"" width=""540"" height = ""360"" style=""border:14px solid orange"">","null","","","","","",""
"null","","html-keyboard-response","317","239961","0.0-317.0","","","null","","","","","",""
"547.6999999955297","","image-keyboard-response","318","240511","0.0-318.0","","img/nature/S2.jpg","50","2","Ns4,perform","50","true","",""
"null","","html-keyboard-response","319","240864","0.0-319.0","","<img src=""img/nature/S2.jpg"" width=""540"" height = ""360"" style=""border:14px solid orange"">","null","","","","","",""
"null","","html-keyboard-response","320","241066","0.0-320.0","","","null","","","","","",""
"567.3000000044703","","image-keyboard-response","321","241635","0.0-321.0","","img/nature/S1.jpg","49","1","Ns4,perform","49","true","",""
"null","","html-keyboard-response","322","241987","0.0-322.0","","<img src=""img/nature/S1.jpg"" width=""540"" height = ""360"" style=""border:14px solid orange"">","null","","","","","",""
"null","","html-keyboard-response","323","242190","0.0-323.0","","","null","","","","","",""
"699.6999999955297","","image-keyboard-response","324","242892","0.0-324.0","","img/nature/S2.jpg","50","2","Ns4,perform","50","true","",""
"null","","html-keyboard-response","325","243244","0.0-325.0","","<img src=""img/nature/S2.jpg"" width=""540"" height = ""360"" style=""border:14px solid orange"">","null","","","","","",""
"null","","html-keyboard-response","326","243445","0.0-326.0","","","null","","","","","",""
"651.7999999970198","","image-keyboard-response","327","244099","0.0-327.0","","img/nature/S1.jpg","49","1","Ns4,perform","49","true","",""
"null","","html-keyboard-response","328","244452","0.0-328.0","","<img src=""img/nature/S1.jpg"" width=""540"" height = ""360"" style=""border:14px solid orange"">","null","","","","","",""
"null","","html-keyboard-response","329","244655","0.0-329.0","","","null","","","","","",""
"588.2000000029802","","image-keyboard-response","330","245245","0.0-330.0","","img/nature/S3.jpg","51","3","Ns4,perform","51","true","",""
"null","","html-keyboard-response","331","245598","0.0-331.0","","<img src=""img/nature/S3.jpg"" width=""540"" height = ""360"" style=""border:14px solid orange"">","null","","","","","",""
"null","","html-keyboard-response","332","245799","0.0-332.0","","","null","","","","","",""
"668.8999999985099","","image-keyboard-response","333","246470","0.0-333.0","","img/nature/S4.jpg","52","4","Ns4,perform","52","true","",""
"null","","html-keyboard-response","334","246822","0.0-334.0","","<img src=""img/nature/S4.jpg"" width=""540"" height = ""360"" style=""border:14px solid orange"">","null","","","","","",""
"null","","html-keyboard-response","335","247025","0.0-335.0","","","null","","","","","",""
"391.29999999701977","","image-keyboard-response","336","247418","0.0-336.0","","img/nature/S4.jpg","52","4","Ns4,perform","52","true","",""
"null","","html-keyboard-response","337","247770","0.0-337.0","","<img src=""img/nature/S4.jpg"" width=""540"" height = ""360"" style=""border:14px solid orange"">","null","","","","","",""
"null","","html-keyboard-response","338","247971","0.0-338.0","","","null","","","","","",""
"340.20000000298023","","image-keyboard-response","339","248314","0.0-339.0","","img/nature/S4.jpg","52","4","Ns4,perform","52","true","",""
"null","","html-keyboard-response","340","248667","0.0-340.0","","<img src=""img/nature/S4.jpg"" width=""540"" height = ""360"" style=""border:14px solid orange"">","null","","","","","",""
"null","","html-keyboard-response","341","248869","0.0-341.0","","","null","","","","","",""
"347.19999999552965","","image-keyboard-response","342","249219","0.0-342.0","","img/nature/S4.jpg","52","4","Ns4,perform","52","true","",""
"null","","html-keyboard-response","343","249572","0.0-343.0","","<img src=""img/nature/S4.jpg"" width=""540"" height = ""360"" style=""border:14px solid orange"">","null","","","","","",""
"null","","html-keyboard-response","344","249774","0.0-344.0","","","null","","","","","",""
"570.3000000044703","","image-keyboard-response","345","250346","0.0-345.0","","img/nature/S2.jpg","50","2","Ns4,perform","50","true","",""
"null","","html-keyboard-response","346","250699","0.0-346.0","","<img src=""img/nature/S2.jpg"" width=""540"" height = ""360"" style=""border:14px solid orange"">","null","","","","","",""
"null","","html-keyboard-response","347","250901","0.0-347.0","","","null","","","","","",""
"513.5","","image-keyboard-response","348","251416","0.0-348.0","","img/nature/S1.jpg","49","1","Ns4,perform","49","true","",""
"null","","html-keyboard-response","349","251768","0.0-349.0","","<img src=""img/nature/S1.jpg"" width=""540"" height = ""360"" style=""border:14px solid orange"">","null","","","","","",""
"null","","html-keyboard-response","350","251971","0.0-350.0","","","null","","","","","",""
"679.5","","image-keyboard-response","351","252652","0.0-351.0","","img/nature/S4.jpg","52","4","Ns4,perform","52","true","",""
"null","","html-keyboard-response","352","253005","0.0-352.0","","<img src=""img/nature/S4.jpg"" width=""540"" height = ""360"" style=""border:14px solid orange"">","null","","","","","",""
"null","","html-keyboard-response","353","253208","0.0-353.0","","","null","","","","","",""
"607.7999999970198","","image-keyboard-response","354","253818","0.0-354.0","","img/nature/S2.jpg","50","2","Ns4,perform","50","true","",""
"null","","html-keyboard-response","355","254171","0.0-355.0","","<img src=""img/nature/S2.jpg"" width=""540"" height = ""360"" style=""border:14px solid orange"">","null","","","","","",""
"null","","html-keyboard-response","356","254373","0.0-356.0","","","null","","","","","",""
"520.2000000029802","","image-keyboard-response","357","254895","0.0-357.0","","img/nature/S1.jpg","49","1","Ns4,perform","49","true","",""
"null","","html-keyboard-response","358","255247","0.0-358.0","","<img src=""img/nature/S1.jpg"" width=""540"" height = ""360"" style=""border:14px solid orange"">","null","","","","","",""
"null","","html-keyboard-response","359","255450","0.0-359.0","","","null","","","","","",""
"626.5999999940395","","image-keyboard-response","360","256078","0.0-360.0","","img/nature/S3.jpg","51","3","Ns4,perform","51","true","",""
"null","","html-keyboard-response","361","256433","0.0-361.0","","<img src=""img/nature/S3.jpg"" width=""540"" height = ""360"" style=""border:14px solid orange"">","null","","","","","",""
"null","","html-keyboard-response","362","256638","0.0-362.0","","","null","","","","","",""
"359.70000000298023","","image-keyboard-response","363","256999","0.0-363.0","","img/nature/S3.jpg","51","3","Ns4,perform","51","true","",""
"null","","html-keyboard-response","364","257352","0.0-364.0","","<img src=""img/nature/S3.jpg"" width=""540"" height = ""360"" style=""border:14px solid orange"">","null","","","","","",""
"null","","html-keyboard-response","365","257555","0.0-365.0","","","null","","","","","",""
"401.29999999701977","","image-keyboard-response","366","257958","0.0-366.0","","img/nature/S3.jpg","51","3","Ns4,perform","51","true","",""
"null","","html-keyboard-response","367","258310","0.0-367.0","","<img src=""img/nature/S3.jpg"" width=""540"" height = ""360"" style=""border:14px solid orange"">","null","","","","","",""
"null","","html-keyboard-response","368","258511","0.0-368.0","","","null","","","","","",""
"414.8999999985099","","image-keyboard-response","369","258929","0.0-369.0","","img/nature/S3.jpg","51","3","Ns4,perform","51","true","",""
"null","","html-keyboard-response","370","259283","0.0-370.0","","<img src=""img/nature/S3.jpg"" width=""540"" height = ""360"" style=""border:14px solid orange"">","null","","","","","",""
"null","","html-keyboard-response","371","259486","0.0-371.0","","","null","","","","","",""
"556.8999999985099","","image-keyboard-response","372","260044","0.0-372.0","","img/nature/S2.jpg","50","2","Ns4,perform","50","true","",""
"null","","html-keyboard-response","373","260396","0.0-373.0","","<img src=""img/nature/S2.jpg"" width=""540"" height = ""360"" style=""border:14px solid orange"">","null","","","","","",""
"null","","html-keyboard-response","374","260600","0.0-374.0","","","null","","","","","",""
"653.3999999985099","","image-keyboard-response","375","261255","0.0-375.0","","img/nature/S1.jpg","49","1","Ns4,perform","49","true","",""
"null","","html-keyboard-response","376","261607","0.0-376.0","","<img src=""img/nature/S1.jpg"" width=""540"" height = ""360"" style=""border:14px solid orange"">","null","","","","","",""
"null","","html-keyboard-response","377","261808","0.0-377.0","","","null","","","","","",""
"616","","image-keyboard-response","378","262425","0.0-378.0","","img/nature/S2.jpg","50","2","Ns4,perform","50","true","",""
"null","","html-keyboard-response","379","262777","0.0-379.0","","<img src=""img/nature/S2.jpg"" width=""540"" height = ""360"" style=""border:14px solid orange"">","null","","","","","",""
"null","","html-keyboard-response","380","262978","0.0-380.0","","","null","","","","","",""
"710.3999999985099","","image-keyboard-response","381","263691","0.0-381.0","","img/nature/S1.jpg","49","1","Ns4,perform","49","true","",""
"null","","html-keyboard-response","382","264044","0.0-382.0","","<img src=""img/nature/S1.jpg"" width=""540"" height = ""360"" style=""border:14px solid orange"">","null","","","","","",""
"null","","html-keyboard-response","383","264246","0.0-383.0","","","null","","","","","",""
"747.5","","image-keyboard-response","384","264995","0.0-384.0","","img/nature/S2.jpg","50","2","Ns4,perform","50","true","",""
"null","","html-keyboard-response","385","265347","0.0-385.0","","<img src=""img/nature/S2.jpg"" width=""540"" height = ""360"" style=""border:14px solid orange"">","null","","","","","",""
"null","","html-keyboard-response","386","265549","0.0-386.0","","","null","","","","","",""
"670.3999999985099","","image-keyboard-response","387","266222","0.0-387.0","","img/nature/S1.jpg","49","1","Ns4,perform","49","true","",""
"null","","html-keyboard-response","388","266574","0.0-388.0","","<img src=""img/nature/S1.jpg"" width=""540"" height = ""360"" style=""border:14px solid orange"">","null","","","","","",""
"null","","html-keyboard-response","389","266776","0.0-389.0","","","null","","","","","",""
"600.3999999985099","","image-keyboard-response","390","267378","0.0-390.0","","img/nature/S2.jpg","50","2","Ns4,perform","50","true","",""
"null","","html-keyboard-response","391","267731","0.0-391.0","","<img src=""img/nature/S2.jpg"" width=""540"" height = ""360"" style=""border:14px solid orange"">","null","","","","","",""
"null","","html-keyboard-response","392","267934","0.0-392.0","","","null","","","","","",""
"569.7000000029802","","image-keyboard-response","393","268506","0.0-393.0","","img/nature/S1.jpg","49","1","Ns4,perform","49","true","",""
"null","","html-keyboard-response","394","268859","0.0-394.0","","<img src=""img/nature/S1.jpg"" width=""540"" height = ""360"" style=""border:14px solid orange"">","null","","","","","",""
"null","","html-keyboard-response","395","269061","0.0-395.0","","","null","","","","","",""
"593.1000000014901","","image-keyboard-response","396","269656","0.0-396.0","","img/nature/S2.jpg","50","2","Ns4,perform","50","true","",""
"null","","html-keyboard-response","397","270007","0.0-397.0","","<img src=""img/nature/S2.jpg"" width=""540"" height = ""360"" style=""border:14px solid orange"">","null","","","","","",""
"null","","html-keyboard-response","398","270210","0.0-398.0","","","null","","","","","",""
"862.8000000044703","","image-keyboard-response","399","271075","0.0-399.0","","img/nature/S1.jpg","49","1","Ns4,perform","49","true","",""
"null","","html-keyboard-response","400","271428","0.0-400.0","","<img src=""img/nature/S1.jpg"" width=""540"" height = ""360"" style=""border:14px solid orange"">","null","","","","","",""
"null","","html-keyboard-response","401","271630","0.0-401.0","","","null","","","","","",""
"846.6000000014901","","image-keyboard-response","402","272478","0.0-402.0","","img/nature/S2.jpg","50","2","Ns4,perform","50","true","",""
"null","","html-keyboard-response","403","272831","0.0-403.0","","<img src=""img/nature/S2.jpg"" width=""540"" height = ""360"" style=""border:14px solid orange"">","null","","","","","",""
"null","","html-keyboard-response","404","273032","0.0-404.0","","","null","","","","","",""
"684.6000000014901","","image-keyboard-response","405","273719","0.0-405.0","","img/nature/S1.jpg","49","1","Ns4,perform","49","true","",""
"null","","html-keyboard-response","406","274072","0.0-406.0","","<img src=""img/nature/S1.jpg"" width=""540"" height = ""360"" style=""border:14px solid orange"">","null","","","","","",""
"null","","html-keyboard-response","407","274274","0.0-407.0","","","null","","","","","",""
"611.7999999970198","","image-keyboard-response","408","274888","0.0-408.0","","img/nature/S2.jpg","50","2","Ns4,perform","50","true","",""
"null","","html-keyboard-response","409","275241","0.0-409.0","","<img src=""img/nature/S2.jpg"" width=""540"" height = ""360"" style=""border:14px solid orange"">","null","","","","","",""
"null","","html-keyboard-response","410","275444","0.0-410.0","","","null","","","","","",""
"661.1999999955297","","image-keyboard-response","411","276107","0.0-411.0","","img/nature/S1.jpg","49","1","Ns4,perform","49","true","",""
"null","","html-keyboard-response","412","276461","0.0-412.0","","<img src=""img/nature/S1.jpg"" width=""540"" height = ""360"" style=""border:14px solid orange"">","null","","","","","",""
"null","","html-keyboard-response","413","276664","0.0-413.0","","","null","","","","","",""
"609","","image-keyboard-response","414","277275","0.0-414.0","","img/nature/S3.jpg","51","3","Ns4,perform","51","true","",""
"null","","html-keyboard-response","415","277629","0.0-415.0","","<img src=""img/nature/S3.jpg"" width=""540"" height = ""360"" style=""border:14px solid orange"">","null","","","","","",""
"null","","html-keyboard-response","416","277831","0.0-416.0","","","null","","","","","",""
"359.30000000447035","","image-keyboard-response","417","278193","0.0-417.0","","img/nature/S3.jpg","51","3","Ns4,perform","51","true","",""
"null","","html-keyboard-response","418","278545","0.0-418.0","","<img src=""img/nature/S3.jpg"" width=""540"" height = ""360"" style=""border:14px solid orange"">","null","","","","","",""
"null","","html-keyboard-response","419","278748","0.0-419.0","","","null","","","","","",""
"361.29999999701977","","image-keyboard-response","420","279111","0.0-420.0","","img/nature/S3.jpg","51","3","Ns4,perform","51","true","",""
"null","","html-keyboard-response","421","279465","0.0-421.0","","<img src=""img/nature/S3.jpg"" width=""540"" height = ""360"" style=""border:14px solid orange"">","null","","","","","",""
"null","","html-keyboard-response","422","279668","0.0-422.0","","","null","","","","","",""
"7540.89999999851","","html-keyboard-response","423","287210","0.0-423.0","","<p class=""center-content"">You have completed a block! </p><p class=""center-content"">Press any key on the keyboard to continue to the next block,</p><p class=""center-content"">or wait for the automatic progression to the next block after one minute.</p>","68","","","","","",""
"684.5","","image-keyboard-response","424","287897","0.0-424.0","","img/nature/S1.jpg","49","1","Ns4,test","49","true","",""
"null","","html-keyboard-response","425","288250","0.0-425.0","","<img src=""img/nature/S1.jpg"" width=""540"" height = ""360"" style=""border:14px solid orange"">","null","","","","","",""
"null","","html-keyboard-response","426","288453","0.0-426.0","","","null","","","","","",""
"405","","image-keyboard-response","427","288859","0.0-427.0","","img/nature/S2.jpg","50","2","Ns4,test","50","true","",""
"null","","html-keyboard-response","428","289213","0.0-428.0","","<img src=""img/nature/S2.jpg"" width=""540"" height = ""360"" style=""border:14px solid orange"">","null","","","","","",""
"null","","html-keyboard-response","429","289415","0.0-429.0","","","null","","","","","",""
"560.7000000029802","","image-keyboard-response","430","289978","0.0-430.0","","img/nature/S2.jpg","50","2","Ns4,test","50","true","",""
"null","","html-keyboard-response","431","290329","0.0-431.0","","<img src=""img/nature/S2.jpg"" width=""540"" height = ""360"" style=""border:14px solid orange"">","null","","","","","",""
"null","","html-keyboard-response","432","290531","0.0-432.0","","","null","","","","","",""
"615.9000000059605","","image-keyboard-response","433","291149","0.0-433.0","","img/nature/S3.jpg","51","3","Ns4,test","51","true","",""
"null","","html-keyboard-response","434","291501","0.0-434.0","","<img src=""img/nature/S3.jpg"" width=""540"" height = ""360"" style=""border:14px solid orange"">","null","","","","","",""
"null","","html-keyboard-response","435","291703","0.0-435.0","","","null","","","","","",""
"535.7000000029802","","image-keyboard-response","436","292248","0.0-436.0","","img/nature/S4.jpg","52","4","Ns4,test","52","true","",""
"null","","html-keyboard-response","437","292600","0.0-437.0","","<img src=""img/nature/S4.jpg"" width=""540"" height = ""360"" style=""border:14px solid orange"">","null","","","","","",""
"null","","html-keyboard-response","438","292801","0.0-438.0","","","null","","","","","",""
"526.2999999970198","","image-keyboard-response","439","293329","0.0-439.0","","img/nature/S3.jpg","51","3","Ns4,test","51","true","",""
"null","","html-keyboard-response","440","293683","0.0-440.0","","<img src=""img/nature/S3.jpg"" width=""540"" height = ""360"" style=""border:14px solid orange"">","null","","","","","",""
"null","","html-keyboard-response","441","293885","0.0-441.0","","","null","","","","","",""
"817.7999999970198","","image-keyboard-response","442","294705","0.0-442.0","","img/nature/S2.jpg","50","2","Ns4,test","50","true","",""
"null","","html-keyboard-response","443","295058","0.0-443.0","","<img src=""img/nature/S2.jpg"" width=""540"" height = ""360"" style=""border:14px solid orange"">","null","","","","","",""
"null","","html-keyboard-response","444","295259","0.0-444.0","","","null","","","","","",""
"609.5","","image-keyboard-response","445","295871","0.0-445.0","","img/nature/S2.jpg","50","2","Ns4,test","50","true","",""
"null","","html-keyboard-response","446","296224","0.0-446.0","","<img src=""img/nature/S2.jpg"" width=""540"" height = ""360"" style=""border:14px solid orange"">","null","","","","","",""
"null","","html-keyboard-response","447","296427","0.0-447.0","","","null","","","","","",""
"577.3999999985099","","image-keyboard-response","448","297011","0.0-448.0","","img/nature/S1.jpg","49","1","Ns4,test","49","true","",""
"null","","html-keyboard-response","449","297363","0.0-449.0","","<img src=""img/nature/S1.jpg"" width=""540"" height = ""360"" style=""border:14px solid orange"">","null","","","","","",""
"null","","html-keyboard-response","450","297564","0.0-450.0","","","null","","","","","",""
"489.19999999552965","","image-keyboard-response","451","298055","0.0-451.0","","img/nature/S1.jpg","49","1","Ns4,test","49","true","",""
"null","","html-keyboard-response","452","298407","0.0-452.0","","<img src=""img/nature/S1.jpg"" width=""540"" height = ""360"" style=""border:14px solid orange"">","null","","","","","",""
"null","","html-keyboard-response","453","298609","0.0-453.0","","","null","","","","","",""
"548.6000000014901","","image-keyboard-response","454","299159","0.0-454.0","","img/nature/S2.jpg","50","2","Ns4,test","50","true","",""
"null","","html-keyboard-response","455","299513","0.0-455.0","","<img src=""img/nature/S2.jpg"" width=""540"" height = ""360"" style=""border:14px solid orange"">","null","","","","","",""
"null","","html-keyboard-response","456","299715","0.0-456.0","","","null","","","","","",""
"664.6999999955297","","image-keyboard-response","457","300382","0.0-457.0","","img/nature/S4.jpg","52","4","Ns4,test","52","true","",""
"null","","html-keyboard-response","458","300735","0.0-458.0","","<img src=""img/nature/S4.jpg"" width=""540"" height = ""360"" style=""border:14px solid orange"">","null","","","","","",""
"null","","html-keyboard-response","459","300939","0.0-459.0","","","null","","","","","",""
"561.5","","image-keyboard-response","460","301503","0.0-460.0","","img/nature/S1.jpg","49","1","Ns4,test","49","true","",""
"null","","html-keyboard-response","461","301855","0.0-461.0","","<img src=""img/nature/S1.jpg"" width=""540"" height = ""360"" style=""border:14px solid orange"">","null","","","","","",""
"null","","html-keyboard-response","462","302057","0.0-462.0","","","null","","","","","",""
"577.1000000014901","","image-keyboard-response","463","302635","0.0-463.0","","img/nature/S3.jpg","51","3","Ns4,test","51","true","",""
"null","","html-keyboard-response","464","302988","0.0-464.0","","<img src=""img/nature/S3.jpg"" width=""540"" height = ""360"" style=""border:14px solid orange"">","null","","","","","",""
"null","","html-keyboard-response","465","303190","0.0-465.0","","","null","","","","","",""
"332","","image-keyboard-response","466","303523","0.0-466.0","","img/nature/S3.jpg","51","3","Ns4,test","51","true","",""
"null","","html-keyboard-response","467","303876","0.0-467.0","","<img src=""img/nature/S3.jpg"" width=""540"" height = ""360"" style=""border:14px solid orange"">","null","","","","","",""
"null","","html-keyboard-response","468","304077","0.0-468.0","","","null","","","","","",""
"383.19999999552965","","image-keyboard-response","469","304461","0.0-469.0","","img/nature/S3.jpg","51","3","Ns4,test","51","true","",""
"null","","html-keyboard-response","470","304813","0.0-470.0","","<img src=""img/nature/S3.jpg"" width=""540"" height = ""360"" style=""border:14px solid orange"">","null","","","","","",""
"null","","html-keyboard-response","471","305015","0.0-471.0","","","null","","","","","",""
"797.3000000044703","","image-keyboard-response","472","305814","0.0-472.0","","img/nature/S4.jpg","52","4","Ns4,test","52","true","",""
"null","","html-keyboard-response","473","306166","0.0-473.0","","<img src=""img/nature/S4.jpg"" width=""540"" height = ""360"" style=""border:14px solid orange"">","null","","","","","",""
"null","","html-keyboard-response","474","306368","0.0-474.0","","","null","","","","","",""
"455.30000000447035","","image-keyboard-response","475","306825","0.0-475.0","","img/nature/S3.jpg","51","3","Ns4,test","51","true","",""
"null","","html-keyboard-response","476","307177","0.0-476.0","","<img src=""img/nature/S3.jpg"" width=""540"" height = ""360"" style=""border:14px solid orange"">","null","","","","","",""
"null","","html-keyboard-response","477","307380","0.0-477.0","","","null","","","","","",""
"644.8000000044703","","image-keyboard-response","478","308027","0.0-478.0","","img/nature/S1.jpg","49","1","Ns4,test","49","true","",""
"null","","html-keyboard-response","479","308379","0.0-479.0","","<img src=""img/nature/S1.jpg"" width=""540"" height = ""360"" style=""border:14px solid orange"">","null","","","","","",""
"null","","html-keyboard-response","480","308581","0.0-480.0","","","null","","","","","",""
"655.1999999955297","","image-keyboard-response","481","309239","0.0-481.0","","img/nature/S2.jpg","50","2","Ns4,test","50","true","",""
"null","","html-keyboard-response","482","309592","0.0-482.0","","<img src=""img/nature/S2.jpg"" width=""540"" height = ""360"" style=""border:14px solid orange"">","null","","","","","",""
"null","","html-keyboard-response","483","309794","0.0-483.0","","","null","","","","","",""
"687.9000000059605","","image-keyboard-response","484","310484","0.0-484.0","","img/nature/S1.jpg","49","1","Ns4,test","49","true","",""
"null","","html-keyboard-response","485","310836","0.0-485.0","","<img src=""img/nature/S1.jpg"" width=""540"" height = ""360"" style=""border:14px solid orange"">","null","","","","","",""
"null","","html-keyboard-response","486","311039","0.0-486.0","","","null","","","","","",""
"659.3000000044703","","image-keyboard-response","487","311700","0.0-487.0","","img/nature/S4.jpg","52","4","Ns4,test","52","true","",""
"null","","html-keyboard-response","488","312053","0.0-488.0","","<img src=""img/nature/S4.jpg"" width=""540"" height = ""360"" style=""border:14px solid orange"">","null","","","","","",""
"null","","html-keyboard-response","489","312255","0.0-489.0","","","null","","","","","",""
"1003.9000000059605","","image-keyboard-response","490","313263","0.0-490.0","","img/nature/S2.jpg","50","2","Ns4,test","50","true","",""
"null","","html-keyboard-response","491","313616","0.0-491.0","","<img src=""img/nature/S2.jpg"" width=""540"" height = ""360"" style=""border:14px solid orange"">","null","","","","","",""
"null","","html-keyboard-response","492","313817","0.0-492.0","","","null","","","","","",""
"575.7999999970198","","image-keyboard-response","493","314394","0.0-493.0","","img/nature/S1.jpg","49","1","Ns4,test","49","true","",""
"null","","html-keyboard-response","494","314745","0.0-494.0","","<img src=""img/nature/S1.jpg"" width=""540"" height = ""360"" style=""border:14px solid orange"">","null","","","","","",""
"null","","html-keyboard-response","495","314948","0.0-495.0","","","null","","","","","",""
"614.5","","image-keyboard-response","496","315563","0.0-496.0","","img/nature/S1.jpg","49","1","Ns4,test","49","true","",""
"null","","html-keyboard-response","497","315915","0.0-497.0","","<img src=""img/nature/S1.jpg"" width=""540"" height = ""360"" style=""border:14px solid orange"">","null","","","","","",""
"null","","html-keyboard-response","498","316118","0.0-498.0","","","null","","","","","",""
"614.3999999985099","","image-keyboard-response","499","316733","0.0-499.0","","img/nature/S3.jpg","51","3","Ns4,test","51","true","",""
"null","","html-keyboard-response","500","317086","0.0-500.0","","<img src=""img/nature/S3.jpg"" width=""540"" height = ""360"" style=""border:14px solid orange"">","null","","","","","",""
"null","","html-keyboard-response","501","317287","0.0-501.0","","","null","","","","","",""
"603.2000000029802","","image-keyboard-response","502","317893","0.0-502.0","","img/nature/S2.jpg","50","2","Ns4,test","50","true","",""
"null","","html-keyboard-response","503","318246","0.0-503.0","","<img src=""img/nature/S2.jpg"" width=""540"" height = ""360"" style=""border:14px solid orange"">","null","","","","","",""
"null","","html-keyboard-response","504","318448","0.0-504.0","","","null","","","","","",""
"622.0999999940395","","image-keyboard-response","505","319073","0.0-505.0","","img/nature/S4.jpg","52","4","Ns4,test","52","true","",""
"null","","html-keyboard-response","506","319425","0.0-506.0","","<img src=""img/nature/S4.jpg"" width=""540"" height = ""360"" style=""border:14px solid orange"">","null","","","","","",""
"null","","html-keyboard-response","507","319627","0.0-507.0","","","null","","","","","",""
"515","","image-keyboard-response","508","320144","0.0-508.0","","img/nature/S1.jpg","49","1","Ns4,test","49","true","",""
"null","","html-keyboard-response","509","320497","0.0-509.0","","<img src=""img/nature/S1.jpg"" width=""540"" height = ""360"" style=""border:14px solid orange"">","null","","","","","",""
"null","","html-keyboard-response","510","320698","0.0-510.0","","","null","","","","","",""
"594","","image-keyboard-response","511","321293","0.0-511.0","","img/nature/S3.jpg","51","3","Ns4,test","51","true","",""
"null","","html-keyboard-response","512","321645","0.0-512.0","","<img src=""img/nature/S3.jpg"" width=""540"" height = ""360"" style=""border:14px solid orange"">","null","","","","","",""
"null","","html-keyboard-response","513","321847","0.0-513.0","","","null","","","","","",""
"637.2999999970198","","image-keyboard-response","514","322486","0.0-514.0","","img/nature/S2.jpg","50","2","Ns4,test","50","true","",""
"null","","html-keyboard-response","515","322840","0.0-515.0","","<img src=""img/nature/S2.jpg"" width=""540"" height = ""360"" style=""border:14px solid orange"">","null","","","","","",""
"null","","html-keyboard-response","516","323041","0.0-516.0","","","null","","","","","",""
"671.5","","image-keyboard-response","517","323715","0.0-517.0","","img/nature/S4.jpg","52","4","Ns4,test","52","true","",""
"null","","html-keyboard-response","518","324068","0.0-518.0","","<img src=""img/nature/S4.jpg"" width=""540"" height = ""360"" style=""border:14px solid orange"">","null","","","","","",""
"null","","html-keyboard-response","519","324270","0.0-519.0","","","null","","","","","",""
"719.3999999985099","","image-keyboard-response","520","324993","0.0-520.0","","img/nature/S4.jpg","52","4","Ns4,test","52","true","",""
"null","","html-keyboard-response","521","325345","0.0-521.0","","<img src=""img/nature/S4.jpg"" width=""540"" height = ""360"" style=""border:14px solid orange"">","null","","","","","",""
"null","","html-keyboard-response","522","325547","0.0-522.0","","","null","","","","","",""
"585.6000000014901","","image-keyboard-response","523","326135","0.0-523.0","","img/nature/S4.jpg","52","4","Ns4,test","52","true","",""
"null","","html-keyboard-response","524","326487","0.0-524.0","","<img src=""img/nature/S4.jpg"" width=""540"" height = ""360"" style=""border:14px solid orange"">","null","","","","","",""
"null","","html-keyboard-response","525","326688","0.0-525.0","","","null","","","","","",""
"793.1999999955297","","image-keyboard-response","526","327484","0.0-526.0","","img/nature/S1.jpg","49","1","Ns4,test","49","true","",""
"null","","html-keyboard-response","527","327837","0.0-527.0","","<img src=""img/nature/S1.jpg"" width=""540"" height = ""360"" style=""border:14px solid orange"">","null","","","","","",""
"null","","html-keyboard-response","528","328039","0.0-528.0","","","null","","","","","",""
"528.6000000014901","","image-keyboard-response","529","328569","0.0-529.0","","img/nature/S1.jpg","49","1","Ns4,test","49","true","",""
"null","","html-keyboard-response","530","328922","0.0-530.0","","<img src=""img/nature/S1.jpg"" width=""540"" height = ""360"" style=""border:14px solid orange"">","null","","","","","",""
"null","","html-keyboard-response","531","329125","0.0-531.0","","","null","","","","","",""
"679.7000000029802","","image-keyboard-response","532","329807","0.0-532.0","","img/nature/S4.jpg","52","4","Ns4,test","52","true","",""
"null","","html-keyboard-response","533","330161","0.0-533.0","","<img src=""img/nature/S4.jpg"" width=""540"" height = ""360"" style=""border:14px solid orange"">","null","","","","","",""
"null","","html-keyboard-response","534","330363","0.0-534.0","","","null","","","","","",""
"749","","image-keyboard-response","535","331114","0.0-535.0","","img/nature/S4.jpg","52","4","Ns4,test","52","true","",""
"null","","html-keyboard-response","536","331466","0.0-536.0","","<img src=""img/nature/S4.jpg"" width=""540"" height = ""360"" style=""border:14px solid orange"">","null","","","","","",""
"null","","html-keyboard-response","537","331668","0.0-537.0","","","null","","","","","",""
"619.7000000029802","","image-keyboard-response","538","332290","0.0-538.0","","img/nature/S3.jpg","51","3","Ns4,test","51","true","",""
"null","","html-keyboard-response","539","332644","0.0-539.0","","<img src=""img/nature/S3.jpg"" width=""540"" height = ""360"" style=""border:14px solid orange"">","null","","","","","",""
"null","","html-keyboard-response","540","332846","0.0-540.0","","","null","","","","","",""
"563.6000000014901","","image-keyboard-response","541","333411","0.0-541.0","","img/nature/S4.jpg","52","4","Ns4,test","52","true","",""
"null","","html-keyboard-response","542","333763","0.0-542.0","","<img src=""img/nature/S4.jpg"" width=""540"" height = ""360"" style=""border:14px solid orange"">","null","","","","","",""
"null","","html-keyboard-response","543","333966","0.0-543.0","","","null","","","","","",""
"509.79999999701977","","image-keyboard-response","544","334478","0.0-544.0","","img/nature/S3.jpg","51","3","Ns4,test","51","true","",""
"null","","html-keyboard-response","545","334830","0.0-545.0","","<img src=""img/nature/S3.jpg"" width=""540"" height = ""360"" style=""border:14px solid orange"">","null","","","","","",""
"null","","html-keyboard-response","546","335033","0.0-546.0","","","null","","","","","",""
"580","","image-keyboard-response","547","335615","0.0-547.0","","img/nature/S1.jpg","49","1","Ns4,test","49","true","",""
"null","","html-keyboard-response","548","335967","0.0-548.0","","<img src=""img/nature/S1.jpg"" width=""540"" height = ""360"" style=""border:14px solid orange"">","null","","","","","",""
"null","","html-keyboard-response","549","336170","0.0-549.0","","","null","","","","","",""
"564.3000000044703","","image-keyboard-response","550","336738","0.0-550.0","","img/nature/S1.jpg","50","1","Ns4,test","49","false","",""
"null","","html-keyboard-response","551","337091","0.0-551.0","","<img src=""img/nature/S1.jpg"" width=""540"" height = ""360"">","null","","","","","",""
"null","","html-keyboard-response","552","337294","0.0-552.0","","","null","","","","","",""
"734.3000000044703","","image-keyboard-response","553","338031","0.0-553.0","","img/nature/S2.jpg","50","2","Ns4,test","50","true","",""
"null","","html-keyboard-response","554","338384","0.0-554.0","","<img src=""img/nature/S2.jpg"" width=""540"" height = ""360"" style=""border:14px solid orange"">","null","","","","","",""
"null","","html-keyboard-response","555","338586","0.0-555.0","","","null","","","","","",""
"484","","image-keyboard-response","556","339072","0.0-556.0","","img/nature/S2.jpg","50","2","Ns4,test","50","true","",""
"null","","html-keyboard-response","557","339425","0.0-557.0","","<img src=""img/nature/S2.jpg"" width=""540"" height = ""360"" style=""border:14px solid orange"">","null","","","","","",""
"null","","html-keyboard-response","558","339626","0.0-558.0","","","null","","","","","",""
"593.3999999985099","","image-keyboard-response","559","340220","0.0-559.0","","img/nature/S3.jpg","52","3","Ns4,test","51","false","",""
"null","","html-keyboard-response","560","340572","0.0-560.0","","<img src=""img/nature/S3.jpg"" width=""540"" height = ""360"">","null","","","","","",""
"null","","html-keyboard-response","561","340773","0.0-561.0","","","null","","","","","",""
"433.70000000298023","","image-keyboard-response","562","341209","0.0-562.0","","img/nature/S3.jpg","51","3","Ns4,test","51","true","",""
"null","","html-keyboard-response","563","341561","0.0-563.0","","<img src=""img/nature/S3.jpg"" width=""540"" height = ""360"" style=""border:14px solid orange"">","null","","","","","",""
"null","","html-keyboard-response","564","341763","0.0-564.0","","","null","","","","","",""
"517.5","","image-keyboard-response","565","342284","0.0-565.0","","img/nature/S4.jpg","52","4","Ns4,test","52","true","",""
"null","","html-keyboard-response","566","342637","0.0-566.0","","<img src=""img/nature/S4.jpg"" width=""540"" height = ""360"" style=""border:14px solid orange"">","null","","","","","",""
"null","","html-keyboard-response","567","342839","0.0-567.0","","","null","","","","","",""
"436.80000000447035","","image-keyboard-response","568","343278","0.0-568.0","","img/nature/S3.jpg","51","3","Ns4,test","51","true","",""
"null","","html-keyboard-response","569","343630","0.0-569.0","","<img src=""img/nature/S3.jpg"" width=""540"" height = ""360"" style=""border:14px solid orange"">","null","","","","","",""
"null","","html-keyboard-response","570","343834","0.0-570.0","","","null","","","","","",""
"717.2999999970198","","image-keyboard-response","571","344553","0.0-571.0","","img/nature/S4.jpg","52","4","Ns4,test","52","true","",""
"null","","html-keyboard-response","572","344906","0.0-572.0","","<img src=""img/nature/S4.jpg"" width=""540"" height = ""360"" style=""border:14px solid orange"">","null","","","","","",""
"null","","html-keyboard-response","573","345109","0.0-573.0","","","null","","","","","",""
"389.29999999701977","","image-keyboard-response","574","345500","0.0-574.0","","img/nature/S3.jpg","51","3","Ns4,test","51","true","",""
"null","","html-keyboard-response","575","345852","0.0-575.0","","<img src=""img/nature/S3.jpg"" width=""540"" height = ""360"" style=""border:14px solid orange"">","null","","","","","",""
"null","","html-keyboard-response","576","346054","0.0-576.0","","","null","","","","","",""
"801.5","","image-keyboard-response","577","346857","0.0-577.0","","img/nature/S2.jpg","50","2","Ns4,test","50","true","",""
"null","","html-keyboard-response","578","347209","0.0-578.0","","<img src=""img/nature/S2.jpg"" width=""540"" height = ""360"" style=""border:14px solid orange"">","null","","","","","",""
"null","","html-keyboard-response","579","347411","0.0-579.0","","","null","","","","","",""
"551.7000000029802","","image-keyboard-response","580","347964","0.0-580.0","","img/nature/S1.jpg","49","1","Ns4,test","49","true","",""
"null","","html-keyboard-response","581","348317","0.0-581.0","","<img src=""img/nature/S1.jpg"" width=""540"" height = ""360"" style=""border:14px solid orange"">","null","","","","","",""
"null","","html-keyboard-response","582","348520","0.0-582.0","","","null","","","","","",""
"746.6000000014901","","image-keyboard-response","583","349269","0.0-583.0","","img/nature/S2.jpg","50","2","Ns4,test","50","true","",""
"null","","html-keyboard-response","584","349622","0.0-584.0","","<img src=""img/nature/S2.jpg"" width=""540"" height = ""360"" style=""border:14px solid orange"">","null","","","","","",""
"null","","html-keyboard-response","585","349824","0.0-585.0","","","null","","","","","",""
"465.70000000298023","","image-keyboard-response","586","350291","0.0-586.0","","img/nature/S2.jpg","50","2","Ns4,test","50","true","",""
"null","","html-keyboard-response","587","350644","0.0-587.0","","<img src=""img/nature/S2.jpg"" width=""540"" height = ""360"" style=""border:14px solid orange"">","null","","","","","",""
"null","","html-keyboard-response","588","350847","0.0-588.0","","","null","","","","","",""
"592.3000000044703","","image-keyboard-response","589","351441","0.0-589.0","","img/nature/S4.jpg","52","4","Ns4,test","52","true","",""
"null","","html-keyboard-response","590","351795","0.0-590.0","","<img src=""img/nature/S4.jpg"" width=""540"" height = ""360"" style=""border:14px solid orange"">","null","","","","","",""
"null","","html-keyboard-response","591","351997","0.0-591.0","","","null","","","","","",""
"594.5","","image-keyboard-response","592","352593","0.0-592.0","","img/nature/S1.jpg","49","1","Ns4,test","49","true","",""
"null","","html-keyboard-response","593","352945","0.0-593.0","","<img src=""img/nature/S1.jpg"" width=""540"" height = ""360"" style=""border:14px solid orange"">","null","","","","","",""
"null","","html-keyboard-response","594","353147","0.0-594.0","","","null","","","","","",""
"604","","image-keyboard-response","595","353754","0.0-595.0","","img/nature/S2.jpg","50","2","Ns4,test","50","true","",""
"null","","html-keyboard-response","596","354107","0.0-596.0","","<img src=""img/nature/S2.jpg"" width=""540"" height = ""360"" style=""border:14px solid orange"">","null","","","","","",""
"null","","html-keyboard-response","597","354308","0.0-597.0","","","null","","","","","",""
"594.1999999955297","","image-keyboard-response","598","354904","0.0-598.0","","img/nature/S3.jpg","51","3","Ns4,test","51","true","",""
"null","","html-keyboard-response","599","355257","0.0-599.0","","<img src=""img/nature/S3.jpg"" width=""540"" height = ""360"" style=""border:14px solid orange"">","null","","","","","",""
"null","","html-keyboard-response","600","355460","0.0-600.0","","","null","","","","","",""
"696","","image-keyboard-response","601","356158","0.0-601.0","","img/nature/S4.jpg","52","4","Ns4,test","52","true","",""
"null","","html-keyboard-response","602","356511","0.0-602.0","","<img src=""img/nature/S4.jpg"" width=""540"" height = ""360"" style=""border:14px solid orange"">","null","","","","","",""
"null","","html-keyboard-response","603","356713","0.0-603.0","","","null","","","","","",""
"21281.39999999851","","instructions","604","377996","0.0-604.0","[{""page_index"":0,""viewing_time"":21281.10000000149}]","","","","","","","",""
"5667.39999999851","","instructions","605","383664","0.0-605.0","[{""page_index"":0,""viewing_time"":5667.10000000149}]","","","","","","","",""
"1364.1999999955297","","image-keyboard-response","606","385030","0.0-606.0-0.0","","img/nature/control/S4.jpg","49","4","Ns4,baseline","52","false","",""
"null","","html-keyboard-response","607","385334","0.0-606.0-1.0","","<img src=""img/nature/control/S4.jpg"" width=""540"" height = ""360"">","null","","","","","",""
"null","","html-keyboard-response","608","385536","0.0-606.0-2.0","","","null","","","","","",""
"1325.6999999955297","","image-keyboard-response","609","386864","0.0-606.0-0.1","","img/nature/control/S2.jpg","51","2","Ns4,baseline","50","false","",""
"null","","html-keyboard-response","610","387167","0.0-606.0-1.1","","<img src=""img/nature/control/S2.jpg"" width=""540"" height = ""360"">","null","","","","","",""
"null","","html-keyboard-response","611","387369","0.0-606.0-2.1","","","null","","","","","",""
"1364.3999999985099","","image-keyboard-response","612","388735","0.0-606.0-0.2","","img/nature/control/S1.jpg","50","1","Ns4,baseline","49","false","",""
"null","","html-keyboard-response","613","389037","0.0-606.0-1.2","","<img src=""img/nature/control/S1.jpg"" width=""540"" height = ""360"">","null","","","","","",""
"null","","html-keyboard-response","614","389239","0.0-606.0-2.2","","","null","","","","","",""
"677.6000000014901","","image-keyboard-response","615","389920","0.0-606.0-0.3","","img/nature/control/S3.jpg","52","3","Ns4,baseline","51","false","",""
"null","","html-keyboard-response","616","390223","0.0-606.0-1.3","","<img src=""img/nature/control/S3.jpg"" width=""540"" height = ""360"">","null","","","","","",""
"null","","html-keyboard-response","617","390427","0.0-606.0-2.3","","","null","","","","","",""
"884.1000000014901","","image-keyboard-response","618","391314","0.0-606.0-0.4","","img/nature/control/S3.jpg","50","3","Ns4,baseline","51","false","",""
"null","","html-keyboard-response","619","391616","0.0-606.0-1.4","","<img src=""img/nature/control/S3.jpg"" width=""540"" height = ""360"">","null","","","","","",""
"null","","html-keyboard-response","620","391818","0.0-606.0-2.4","","","null","","","","","",""
"925.2999999970198","","image-keyboard-response","621","392745","0.0-606.0-0.5","","img/nature/control/S2.jpg","49","2","Ns4,baseline","50","false","",""
"null","","html-keyboard-response","622","393048","0.0-606.0-1.5","","<img src=""img/nature/control/S2.jpg"" width=""540"" height = ""360"">","null","","","","","",""
"null","","html-keyboard-response","623","393250","0.0-606.0-2.5","","","null","","","","","",""
"1017.3000000044703","","image-keyboard-response","624","394270","0.0-606.0-0.6","","img/nature/control/S1.jpg","51","1","Ns4,baseline","49","false","",""
"null","","html-keyboard-response","625","394572","0.0-606.0-1.6","","<img src=""img/nature/control/S1.jpg"" width=""540"" height = ""360"">","null","","","","","",""
"null","","html-keyboard-response","626","394775","0.0-606.0-2.6","","","null","","","","","",""
"882.2000000029802","","image-keyboard-response","627","395659","0.0-606.0-0.7","","img/nature/control/S4.jpg","52","4","Ns4,baseline","52","true","",""
"null","","html-keyboard-response","628","395962","0.0-606.0-1.7","","<img src=""img/nature/control/S4.jpg"" width=""540"" height = ""360"" style=""border:14px solid orange"">","null","","","","","",""
"null","","html-keyboard-response","629","396164","0.0-606.0-2.7","","","null","","","","","",""
"535.8000000044703","","image-keyboard-response","630","396701","0.0-606.0-0.8","","img/nature/control/S4.jpg","52","4","Ns4,baseline","52","true","",""
"null","","html-keyboard-response","631","397005","0.0-606.0-1.8","","<img src=""img/nature/control/S4.jpg"" width=""540"" height = ""360"" style=""border:14px solid orange"">","null","","","","","",""
"null","","html-keyboard-response","632","397207","0.0-606.0-2.8","","","null","","","","","",""
"1032.6000000014901","","image-keyboard-response","633","398242","0.0-606.0-0.9","","img/nature/control/S3.jpg","49","3","Ns4,baseline","51","false","",""
"null","","html-keyboard-response","634","398546","0.0-606.0-1.9","","<img src=""img/nature/control/S3.jpg"" width=""540"" height = ""360"">","null","","","","","",""
"null","","html-keyboard-response","635","398748","0.0-606.0-2.9","","","null","","","","","",""
"1079.1000000014901","","image-keyboard-response","636","399828","0.0-606.0-0.10","","img/nature/control/S2.jpg","49","2","Ns4,baseline","50","false","",""
"null","","html-keyboard-response","637","400131","0.0-606.0-1.10","","<img src=""img/nature/control/S2.jpg"" width=""540"" height = ""360"">","null","","","","","",""
"null","","html-keyboard-response","638","400334","0.0-606.0-2.10","","","null","","","","","",""
"579.2000000029802","","image-keyboard-response","639","400915","0.0-606.0-0.11","","img/nature/control/S1.jpg","50","1","Ns4,baseline","49","false","",""
"null","","html-keyboard-response","640","401217","0.0-606.0-1.11","","<img src=""img/nature/control/S1.jpg"" width=""540"" height = ""360"">","null","","","","","",""
"null","","html-keyboard-response","641","401422","0.0-606.0-2.11","","","null","","","","","",""
"664.2000000029802","","image-keyboard-response","642","402092","0.0-606.0-0.12","","img/nature/control/S4.jpg","52","4","Ns4,baseline","52","true","",""
"null","","html-keyboard-response","643","402394","0.0-606.0-1.12","","<img src=""img/nature/control/S4.jpg"" width=""540"" height = ""360"" style=""border:14px solid orange"">","null","","","","","",""
"null","","html-keyboard-response","644","402597","0.0-606.0-2.12","","","null","","","","","",""
"688.7999999970198","","image-keyboard-response","645","403288","0.0-606.0-0.13","","img/nature/control/S3.jpg","51","3","Ns4,baseline","51","true","",""
"null","","html-keyboard-response","646","403590","0.0-606.0-1.13","","<img src=""img/nature/control/S3.jpg"" width=""540"" height = ""360"" style=""border:14px solid orange"">","null","","","","","",""
"null","","html-keyboard-response","647","403793","0.0-606.0-2.13","","","null","","","","","",""
"1824.7999999970198","","image-keyboard-response","648","405619","0.0-606.0-0.14","","img/nature/control/S2.jpg","50","2","Ns4,baseline","50","true","",""
"null","","html-keyboard-response","649","405922","0.0-606.0-1.14","","<img src=""img/nature/control/S2.jpg"" width=""540"" height = ""360"" style=""border:14px solid orange"">","null","","","","","",""
"null","","html-keyboard-response","650","406124","0.0-606.0-2.14","","","null","","","","","",""
"684.7999999970198","","image-keyboard-response","651","406810","0.0-606.0-0.15","","img/nature/control/S1.jpg","49","1","Ns4,baseline","49","true","",""
"null","","html-keyboard-response","652","407112","0.0-606.0-1.15","","<img src=""img/nature/control/S1.jpg"" width=""540"" height = ""360"" style=""border:14px solid orange"">","null","","","","","",""
"null","","html-keyboard-response","653","407314","0.0-606.0-2.15","","","null","","","","","",""
"949.1000000014901","","image-keyboard-response","654","408264","0.0-606.0-0.16","","img/nature/control/S3.jpg","51","3","Ns4,baseline","51","true","",""
"null","","html-keyboard-response","655","408566","0.0-606.0-1.16","","<img src=""img/nature/control/S3.jpg"" width=""540"" height = ""360"" style=""border:14px solid orange"">","null","","","","","",""
"null","","html-keyboard-response","656","408768","0.0-606.0-2.16","","","null","","","","","",""
"488.5","","image-keyboard-response","657","409258","0.0-606.0-0.17","","img/nature/control/S4.jpg","52","4","Ns4,baseline","52","true","",""
"null","","html-keyboard-response","658","409560","0.0-606.0-1.17","","<img src=""img/nature/control/S4.jpg"" width=""540"" height = ""360"" style=""border:14px solid orange"">","null","","","","","",""
"null","","html-keyboard-response","659","409763","0.0-606.0-2.17","","","null","","","","","",""
"922.5","","image-keyboard-response","660","410688","0.0-606.0-0.18","","img/nature/control/S2.jpg","50","2","Ns4,baseline","50","true","",""
"null","","html-keyboard-response","661","410990","0.0-606.0-1.18","","<img src=""img/nature/control/S2.jpg"" width=""540"" height = ""360"" style=""border:14px solid orange"">","null","","","","","",""
"null","","html-keyboard-response","662","411192","0.0-606.0-2.18","","","null","","","","","",""
"673.7999999970198","","image-keyboard-response","663","411868","0.0-606.0-0.19","","img/nature/control/S1.jpg","49","1","Ns4,baseline","49","true","",""
"null","","html-keyboard-response","664","412171","0.0-606.0-1.19","","<img src=""img/nature/control/S1.jpg"" width=""540"" height = ""360"" style=""border:14px solid orange"">","null","","","","","",""
"null","","html-keyboard-response","665","412373","0.0-606.0-2.19","","","null","","","","","",""
"744.3999999985099","","image-keyboard-response","666","413120","0.0-606.0-0.20","","img/nature/control/S2.jpg","50","2","Ns4,baseline","50","true","",""
"null","","html-keyboard-response","667","413422","0.0-606.0-1.20","","<img src=""img/nature/control/S2.jpg"" width=""540"" height = ""360"" style=""border:14px solid orange"">","null","","","","","",""
"null","","html-keyboard-response","668","413623","0.0-606.0-2.20","","","null","","","","","",""
"771.8999999985099","","image-keyboard-response","669","414396","0.0-606.0-0.21","","img/nature/control/S4.jpg","52","4","Ns4,baseline","52","true","",""
"null","","html-keyboard-response","670","414698","0.0-606.0-1.21","","<img src=""img/nature/control/S4.jpg"" width=""540"" height = ""360"" style=""border:14px solid orange"">","null","","","","","",""
"null","","html-keyboard-response","671","414901","0.0-606.0-2.21","","","null","","","","","",""
"734.6999999955297","","image-keyboard-response","672","415637","0.0-606.0-0.22","","img/nature/control/S3.jpg","51","3","Ns4,baseline","51","true","",""
"null","","html-keyboard-response","673","415939","0.0-606.0-1.22","","<img src=""img/nature/control/S3.jpg"" width=""540"" height = ""360"" style=""border:14px solid orange"">","null","","","","","",""
"null","","html-keyboard-response","674","416141","0.0-606.0-2.22","","","null","","","","","",""
"1160.8999999985099","","image-keyboard-response","675","417304","0.0-606.0-0.23","","img/nature/control/S1.jpg","49","1","Ns4,baseline","49","true","",""
"null","","html-keyboard-response","676","417605","0.0-606.0-1.23","","<img src=""img/nature/control/S1.jpg"" width=""540"" height = ""360"" style=""border:14px solid orange"">","null","","","","","",""
"null","","html-keyboard-response","677","417808","0.0-606.0-2.23","","","null","","","","","",""
"665.1000000014901","","image-keyboard-response","678","418475","0.0-606.0-0.24","","img/nature/control/S1.jpg","49","1","Ns4,baseline","49","true","",""
"null","","html-keyboard-response","679","418778","0.0-606.0-1.24","","<img src=""img/nature/control/S1.jpg"" width=""540"" height = ""360"" style=""border:14px solid orange"">","null","","","","","",""
"null","","html-keyboard-response","680","418979","0.0-606.0-2.24","","","null","","","","","",""
"651.6999999955297","","image-keyboard-response","681","419633","0.0-606.0-0.25","","img/nature/control/S3.jpg","50","3","Ns4,baseline","51","false","",""
"null","","html-keyboard-response","682","419936","0.0-606.0-1.25","","<img src=""img/nature/control/S3.jpg"" width=""540"" height = ""360"">","null","","","","","",""
"null","","html-keyboard-response","683","420137","0.0-606.0-2.25","","","null","","","","","",""
"1443.1000000014901","","image-keyboard-response","684","421582","0.0-606.0-0.26","","img/nature/control/S2.jpg","50","2","Ns4,baseline","50","true","",""
"null","","html-keyboard-response","685","421884","0.0-606.0-1.26","","<img src=""img/nature/control/S2.jpg"" width=""540"" height = ""360"" style=""border:14px solid orange"">","null","","","","","",""
"null","","html-keyboard-response","686","422087","0.0-606.0-2.26","","","null","","","","","",""
"589.2999999970198","","image-keyboard-response","687","422678","0.0-606.0-0.27","","img/nature/control/S4.jpg","52","4","Ns4,baseline","52","true","",""
"null","","html-keyboard-response","688","422981","0.0-606.0-1.27","","<img src=""img/nature/control/S4.jpg"" width=""540"" height = ""360"" style=""border:14px solid orange"">","null","","","","","",""
"null","","html-keyboard-response","689","423183","0.0-606.0-2.27","","","null","","","","","",""
"408.79999999701977","","image-keyboard-response","690","423594","0.0-606.0-0.28","","img/nature/control/S3.jpg","51","3","Ns4,baseline","51","true","",""
"null","","html-keyboard-response","691","423897","0.0-606.0-1.28","","<img src=""img/nature/control/S3.jpg"" width=""540"" height = ""360"" style=""border:14px solid orange"">","null","","","","","",""
"null","","html-keyboard-response","692","424100","0.0-606.0-2.28","","","null","","","","","",""
"821.7999999970198","","image-keyboard-response","693","424924","0.0-606.0-0.29","","img/nature/control/S2.jpg","50","2","Ns4,baseline","50","true","",""
"null","","html-keyboard-response","694","425227","0.0-606.0-1.29","","<img src=""img/nature/control/S2.jpg"" width=""540"" height = ""360"" style=""border:14px solid orange"">","null","","","","","",""
"null","","html-keyboard-response","695","425429","0.0-606.0-2.29","","","null","","","","","",""
"513.7999999970198","","image-keyboard-response","696","425947","0.0-606.0-0.30","","img/nature/control/S1.jpg","49","1","Ns4,baseline","49","true","",""
"null","","html-keyboard-response","697","426250","0.0-606.0-1.30","","<img src=""img/nature/control/S1.jpg"" width=""540"" height = ""360"" style=""border:14px solid orange"">","null","","","","","",""
"null","","html-keyboard-response","698","426468","0.0-606.0-2.30","","","null","","","","","",""
"651.6999999955297","","image-keyboard-response","699","427121","0.0-606.0-0.31","","img/nature/control/S4.jpg","52","4","Ns4,baseline","52","true","",""
"null","","html-keyboard-response","700","427423","0.0-606.0-1.31","","<img src=""img/nature/control/S4.jpg"" width=""540"" height = ""360"" style=""border:14px solid orange"">","null","","","","","",""
"null","","html-keyboard-response","701","427626","0.0-606.0-2.31","","","null","","","","","",""
"455","","image-keyboard-response","702","428084","0.0-606.0-0.32","","img/nature/control/S4.jpg","52","4","Ns4,baseline","52","true","",""
