"rt","url","trial_type","trial_index","time_elapsed","internal_node_id","view_history","stimulus","key_press","state","test_part","correct_response","correct","bonus","responses"
"3033","consent.html","external-html","0","3134","0.0-0.0","","","","","","","","",""
"59822","","instructions","1","62957","0.0-1.0","[{""page_index"":0,""viewing_time"":3174},{""page_index"":1,""viewing_time"":7367},{""page_index"":2,""viewing_time"":3144},{""page_index"":3,""viewing_time"":9392},{""page_index"":4,""viewing_time"":15688},{""page_index"":5,""viewing_time"":4248},{""page_index"":6,""viewing_time"":11208},{""page_index"":7,""viewing_time"":5600}]","","","","","","","",""
"973","","image-keyboard-response","2","63933","0.0-2.0-0.0","","img/animals/control/S2.jpg","49","2","baseline","50","false","",""
"null","","html-keyboard-response","3","64238","0.0-2.0-1.0","","<img src=""img/animals/control/S2.jpg"" width=""540"" height = ""360"">","null","","","","","",""
"null","","html-keyboard-response","4","64458","0.0-2.0-2.0","","","null","","","","","",""
"640","","image-keyboard-response","5","65100","0.0-2.0-0.1","","img/animals/control/S6.jpg","50","6","baseline","54","false","",""
"null","","html-keyboard-response","6","65418","0.0-2.0-1.1","","<img src=""img/animals/control/S6.jpg"" width=""540"" height = ""360"">","null","","","","","",""
"null","","html-keyboard-response","7","65638","0.0-2.0-2.1","","","null","","","","","",""
"549","","image-keyboard-response","8","66189","0.0-2.0-0.2","","img/animals/control/S1.jpg","50","1","baseline","49","false","",""
"null","","html-keyboard-response","9","66503","0.0-2.0-1.2","","<img src=""img/animals/control/S1.jpg"" width=""540"" height = ""360"">","null","","","","","",""
"null","","html-keyboard-response","10","66718","0.0-2.0-2.2","","","null","","","","","",""
"668","","image-keyboard-response","11","67388","0.0-2.0-0.3","","img/animals/control/S4.jpg","50","4","baseline","52","false","",""
"null","","html-keyboard-response","12","67698","0.0-2.0-1.3","","<img src=""img/animals/control/S4.jpg"" width=""540"" height = ""360"">","null","","","","","",""
"null","","html-keyboard-response","13","67918","0.0-2.0-2.3","","","null","","","","","",""
"557","","image-keyboard-response","14","68476","0.0-2.0-0.4","","img/animals/control/S3.jpg","50","3","baseline","51","false","",""
"null","","html-keyboard-response","15","68777","0.0-2.0-1.4","","<img src=""img/animals/control/S3.jpg"" width=""540"" height = ""360"">","null","","","","","",""
"null","","html-keyboard-response","16","68978","0.0-2.0-2.4","","","null","","","","","",""
"617","","image-keyboard-response","17","69596","0.0-2.0-0.5","","img/animals/control/S5.jpg","50","5","baseline","53","false","",""
"null","","html-keyboard-response","18","69907","0.0-2.0-1.5","","<img src=""img/animals/control/S5.jpg"" width=""540"" height = ""360"">","null","","","","","",""
"null","","html-keyboard-response","19","70128","0.0-2.0-2.5","","","null","","","","","",""
"332","","image-keyboard-response","20","70460","0.0-2.0-0.6","","img/animals/control/S5.jpg","50","5","baseline","53","false","",""
"null","","html-keyboard-response","21","70768","0.0-2.0-1.6","","<img src=""img/animals/control/S5.jpg"" width=""540"" height = ""360"">","null","","","","","",""
"null","","html-keyboard-response","22","70969","0.0-2.0-2.6","","","null","","","","","",""
"354","","image-keyboard-response","23","71323","0.0-2.0-0.7","","img/animals/control/S2.jpg","51","2","baseline","50","false","",""
"null","","html-keyboard-response","24","71627","0.0-2.0-1.7","","<img src=""img/animals/control/S2.jpg"" width=""540"" height = ""360"">","null","","","","","",""
"null","","html-keyboard-response","25","71848","0.0-2.0-2.7","","","null","","","","","",""
"530","","image-keyboard-response","26","72380","0.0-2.0-0.8","","img/animals/control/S1.jpg","51","1","baseline","49","false","",""
"null","","html-keyboard-response","27","72688","0.0-2.0-1.8","","<img src=""img/animals/control/S1.jpg"" width=""540"" height = ""360"">","null","","","","","",""
"null","","html-keyboard-response","28","72887","0.0-2.0-2.8","","","null","","","","","",""
"707","","image-keyboard-response","29","73596","0.0-2.0-0.9","","img/animals/control/S4.jpg","49","4","baseline","52","false","",""
"null","","html-keyboard-response","30","73908","0.0-2.0-1.9","","<img src=""img/animals/control/S4.jpg"" width=""540"" height = ""360"">","null","","","","","",""
"null","","html-keyboard-response","31","74128","0.0-2.0-2.9","","","null","","","","","",""
"843","","image-keyboard-response","32","74971","0.0-2.0-0.10","","img/animals/control/S6.jpg","50","6","baseline","54","false","",""
"null","","html-keyboard-response","33","75278","0.0-2.0-1.10","","<img src=""img/animals/control/S6.jpg"" width=""540"" height = ""360"">","null","","","","","",""
"null","","html-keyboard-response","34","75494","0.0-2.0-2.10","","","null","","","","","",""
"484","","image-keyboard-response","35","75979","0.0-2.0-0.11","","img/animals/control/S3.jpg","51","3","baseline","51","true","",""
"null","","html-keyboard-response","36","76296","0.0-2.0-1.11","","<img src=""img/animals/control/S3.jpg"" width=""540"" height = ""360"" style=""border:14px solid orange"">","null","","","","","",""
"null","","html-keyboard-response","37","76512","0.0-2.0-2.11","","","null","","","","","",""
"987","","image-keyboard-response","38","77499","0.0-2.0-0.12","","img/animals/control/S1.jpg","52","1","baseline","49","false","",""
"null","","html-keyboard-response","39","77817","0.0-2.0-1.12","","<img src=""img/animals/control/S1.jpg"" width=""540"" height = ""360"">","null","","","","","",""
"null","","html-keyboard-response","40","78037","0.0-2.0-2.12","","","null","","","","","",""
"982","","image-keyboard-response","41","79020","0.0-2.0-0.13","","img/animals/control/S5.jpg","53","5","baseline","53","true","",""
"null","","html-keyboard-response","42","79337","0.0-2.0-1.13","","<img src=""img/animals/control/S5.jpg"" width=""540"" height = ""360"" style=""border:14px solid orange"">","null","","","","","",""
"null","","html-keyboard-response","43","79558","0.0-2.0-2.13","","","null","","","","","",""
"933","","image-keyboard-response","44","80492","0.0-2.0-0.14","","img/animals/control/S4.jpg","51","4","baseline","52","false","",""
"null","","html-keyboard-response","45","80798","0.0-2.0-1.14","","<img src=""img/animals/control/S4.jpg"" width=""540"" height = ""360"">","null","","","","","",""
"null","","html-keyboard-response","46","81002","0.0-2.0-2.14","","","null","","","","","",""
"833","","image-keyboard-response","47","81835","0.0-2.0-0.15","","img/animals/control/S2.jpg","53","2","baseline","50","false","",""
"null","","html-keyboard-response","48","82136","0.0-2.0-1.15","","<img src=""img/animals/control/S2.jpg"" width=""540"" height = ""360"">","null","","","","","",""
"null","","html-keyboard-response","49","82340","0.0-2.0-2.15","","","null","","","","","",""
"998","","image-keyboard-response","50","83340","0.0-2.0-0.16","","img/animals/control/S6.jpg","50","6","baseline","54","false","",""
"null","","html-keyboard-response","51","83642","0.0-2.0-1.16","","<img src=""img/animals/control/S6.jpg"" width=""540"" height = ""360"">","null","","","","","",""
"null","","html-keyboard-response","52","83848","0.0-2.0-2.16","","","null","","","","","",""
"627","","image-keyboard-response","53","84476","0.0-2.0-0.17","","img/animals/control/S3.jpg","52","3","baseline","51","false","",""
"null","","html-keyboard-response","54","84778","0.0-2.0-1.17","","<img src=""img/animals/control/S3.jpg"" width=""540"" height = ""360"">","null","","","","","",""
"null","","html-keyboard-response","55","84987","0.0-2.0-2.17","","","null","","","","","",""
"561","","image-keyboard-response","56","85548","0.0-2.0-0.18","","img/animals/control/S4.jpg","52","4","baseline","52","true","",""
"null","","html-keyboard-response","57","85855","0.0-2.0-1.18","","<img src=""img/animals/control/S4.jpg"" width=""540"" height = ""360"" style=""border:14px solid orange"">","null","","","","","",""
"null","","html-keyboard-response","58","86058","0.0-2.0-2.18","","","null","","","","","",""
"834","","image-keyboard-response","59","86892","0.0-2.0-0.19","","img/animals/control/S2.jpg","53","2","baseline","50","false","",""
"null","","html-keyboard-response","60","87195","0.0-2.0-1.19","","<img src=""img/animals/control/S2.jpg"" width=""540"" height = ""360"">","null","","","","","",""
"null","","html-keyboard-response","61","87402","0.0-2.0-2.19","","","null","","","","","",""
"737","","image-keyboard-response","62","88140","0.0-2.0-0.20","","img/animals/control/S1.jpg","53","1","baseline","49","false","",""
"null","","html-keyboard-response","63","88447","0.0-2.0-1.20","","<img src=""img/animals/control/S1.jpg"" width=""540"" height = ""360"">","null","","","","","",""
"null","","html-keyboard-response","64","88657","0.0-2.0-2.20","","","null","","","","","",""
"906","","image-keyboard-response","65","89563","0.0-2.0-0.21","","img/animals/control/S6.jpg","51","6","baseline","54","false","",""
"null","","html-keyboard-response","66","89865","0.0-2.0-1.21","","<img src=""img/animals/control/S6.jpg"" width=""540"" height = ""360"">","null","","","","","",""
"null","","html-keyboard-response","67","90073","0.0-2.0-2.21","","","null","","","","","",""
"482","","image-keyboard-response","68","90556","0.0-2.0-0.22","","img/animals/control/S3.jpg","53","3","baseline","51","false","",""
"null","","html-keyboard-response","69","90856","0.0-2.0-1.22","","<img src=""img/animals/control/S3.jpg"" width=""540"" height = ""360"">","null","","","","","",""
"null","","html-keyboard-response","70","91057","0.0-2.0-2.22","","","null","","","","","",""
"362","","image-keyboard-response","71","91420","0.0-2.0-0.23","","img/animals/control/S5.jpg","54","5","baseline","53","false","",""
"null","","html-keyboard-response","72","91720","0.0-2.0-1.23","","<img src=""img/animals/control/S5.jpg"" width=""540"" height = ""360"">","null","","","","","",""
"null","","html-keyboard-response","73","91925","0.0-2.0-2.23","","","null","","","","","",""
"null","","image-keyboard-response","74","94926","0.0-2.0-0.24","","img/animals/control/S1.jpg","null","1","baseline","49","false","",""
"null","","html-keyboard-response","75","95230","0.0-2.0-1.24","","<img src=""img/animals/control/S1.jpg"" width=""540"" height = ""360"">","null","","","","","",""
"null","","html-keyboard-response","76","95433","0.0-2.0-2.24","","","null","","","","","",""
"1043","","image-keyboard-response","77","96476","0.0-2.0-0.25","","img/animals/control/S2.jpg","53","2","baseline","50","false","",""
"null","","html-keyboard-response","78","96777","0.0-2.0-1.25","","<img src=""img/animals/control/S2.jpg"" width=""540"" height = ""360"">","null","","","","","",""
"null","","html-keyboard-response","79","96986","0.0-2.0-2.25","","","null","","","","","",""
"2161","","image-keyboard-response","80","99147","0.0-2.0-0.26","","img/animals/control/S6.jpg","51","6","baseline","54","false","",""
"null","","html-keyboard-response","81","99453","0.0-2.0-1.26","","<img src=""img/animals/control/S6.jpg"" width=""540"" height = ""360"">","null","","","","","",""
"null","","html-keyboard-response","82","99656","0.0-2.0-2.26","","","null","","","","","",""
"2546","","image-keyboard-response","83","102203","0.0-2.0-0.27","","img/animals/control/S4.jpg","51","4","baseline","52","false","",""
"null","","html-keyboard-response","84","102512","0.0-2.0-1.27","","<img src=""img/animals/control/S4.jpg"" width=""540"" height = ""360"">","null","","","","","",""
"null","","html-keyboard-response","85","102716","0.0-2.0-2.27","","","null","","","","","",""
"null","","image-keyboard-response","86","105718","0.0-2.0-0.28","","img/animals/control/S5.jpg","null","5","baseline","53","false","",""
"null","","html-keyboard-response","87","106027","0.0-2.0-1.28","","<img src=""img/animals/control/S5.jpg"" width=""540"" height = ""360"">","null","","","","","",""
"null","","html-keyboard-response","88","106237","0.0-2.0-2.28","","","null","","","","","",""
"941","","image-keyboard-response","89","107179","0.0-2.0-0.29","","img/animals/control/S3.jpg","53","3","baseline","51","false","",""
"null","","html-keyboard-response","90","107482","0.0-2.0-1.29","","<img src=""img/animals/control/S3.jpg"" width=""540"" height = ""360"">","null","","","","","",""
"null","","html-keyboard-response","91","107687","0.0-2.0-2.29","","","null","","","","","",""
"644","","image-keyboard-response","92","108332","0.0-2.0-0.30","","img/animals/control/S5.jpg","54","5","baseline","53","false","",""
"null","","html-keyboard-response","93","108635","0.0-2.0-1.30","","<img src=""img/animals/control/S5.jpg"" width=""540"" height = ""360"">","null","","","","","",""
"null","","html-keyboard-response","94","108836","0.0-2.0-2.30","","","null","","","","","",""
"935","","image-keyboard-response","95","109772","0.0-2.0-0.31","","img/animals/control/S4.jpg","51","4","baseline","52","false","",""
"null","","html-keyboard-response","96","110080","0.0-2.0-1.31","","<img src=""img/animals/control/S4.jpg"" width=""540"" height = ""360"">","null","","","","","",""
"null","","html-keyboard-response","97","110280","0.0-2.0-2.31","","","null","","","","","",""
"1586","","image-keyboard-response","98","111867","0.0-2.0-0.32","","img/animals/control/S2.jpg","54","2","baseline","50","false","",""
"null","","html-keyboard-response","99","112174","0.0-2.0-1.32","","<img src=""img/animals/control/S2.jpg"" width=""540"" height = ""360"">","null","","","","","",""
"null","","html-keyboard-response","100","112375","0.0-2.0-2.32","","","null","","","","","",""
"549","","image-keyboard-response","101","112924","0.0-2.0-0.33","","img/animals/control/S3.jpg","52","3","baseline","51","false","",""
"null","","html-keyboard-response","102","113230","0.0-2.0-1.33","","<img src=""img/animals/control/S3.jpg"" width=""540"" height = ""360"">","null","","","","","",""
"null","","html-keyboard-response","103","113438","0.0-2.0-2.33","","","null","","","","","",""
"332","","image-keyboard-response","104","113772","0.0-2.0-0.34","","img/animals/control/S1.jpg","51","1","baseline","49","false","",""
"null","","html-keyboard-response","105","114077","0.0-2.0-1.34","","<img src=""img/animals/control/S1.jpg"" width=""540"" height = ""360"">","null","","","","","",""
"null","","html-keyboard-response","106","114298","0.0-2.0-2.34","","","null","","","","","",""
"161","","image-keyboard-response","107","114459","0.0-2.0-0.35","","img/animals/control/S6.jpg","50","6","baseline","54","false","",""
"null","","html-keyboard-response","108","114777","0.0-2.0-1.35","","<img src=""img/animals/control/S6.jpg"" width=""540"" height = ""360"">","null","","","","","",""
"null","","html-keyboard-response","109","114978","0.0-2.0-2.35","","","null","","","","","",""
"585","","image-keyboard-response","110","115563","0.0-2.0-0.36","","img/animals/control/S3.jpg","53","3","baseline","51","false","",""
"null","","html-keyboard-response","111","115866","0.0-2.0-1.36","","<img src=""img/animals/control/S3.jpg"" width=""540"" height = ""360"">","null","","","","","",""
"null","","html-keyboard-response","112","116087","0.0-2.0-2.36","","","null","","","","","",""
"258","","image-keyboard-response","113","116347","0.0-2.0-0.37","","img/animals/control/S5.jpg","54","5","baseline","53","false","",""
"null","","html-keyboard-response","114","116667","0.0-2.0-1.37","","<img src=""img/animals/control/S5.jpg"" width=""540"" height = ""360"">","null","","","","","",""
"null","","html-keyboard-response","115","116887","0.0-2.0-2.37","","","null","","","","","",""
"1460","","image-keyboard-response","116","118347","0.0-2.0-0.38","","img/animals/control/S4.jpg","51","4","baseline","52","false","",""
"null","","html-keyboard-response","117","118667","0.0-2.0-1.38","","<img src=""img/animals/control/S4.jpg"" width=""540"" height = ""360"">","null","","","","","",""
"null","","html-keyboard-response","118","118887","0.0-2.0-2.38","","","null","","","","","",""
"803","","image-keyboard-response","119","119691","0.0-2.0-0.39","","img/animals/control/S6.jpg","53","6","baseline","54","false","",""
"null","","html-keyboard-response","120","119991","0.0-2.0-1.39","","<img src=""img/animals/control/S6.jpg"" width=""540"" height = ""360"">","null","","","","","",""
"null","","html-keyboard-response","121","120196","0.0-2.0-2.39","","","null","","","","","",""
"695","","image-keyboard-response","122","120891","0.0-2.0-0.40","","img/animals/control/S1.jpg","54","1","baseline","49","false","",""
"null","","html-keyboard-response","123","121206","0.0-2.0-1.40","","<img src=""img/animals/control/S1.jpg"" width=""540"" height = ""360"">","null","","","","","",""
"null","","html-keyboard-response","124","121427","0.0-2.0-2.40","","","null","","","","","",""
"1176","","image-keyboard-response","125","122603","0.0-2.0-0.41","","img/animals/control/S2.jpg","51","2","baseline","50","false","",""
"null","","html-keyboard-response","126","122917","0.0-2.0-1.41","","<img src=""img/animals/control/S2.jpg"" width=""540"" height = ""360"">","null","","","","","",""
"null","","html-keyboard-response","127","123137","0.0-2.0-2.41","","","null","","","","","",""
"889","","image-keyboard-response","128","124027","0.0-2.0-0.42","","img/animals/control/S4.jpg","51","4","baseline","52","false","",""
"null","","html-keyboard-response","129","124337","0.0-2.0-1.42","","<img src=""img/animals/control/S4.jpg"" width=""540"" height = ""360"">","null","","","","","",""
"null","","html-keyboard-response","130","124557","0.0-2.0-2.42","","","null","","","","","",""
"1533","","image-keyboard-response","131","126091","0.0-2.0-0.43","","img/animals/control/S5.jpg","53","5","baseline","53","true","",""
"null","","html-keyboard-response","132","126398","0.0-2.0-1.43","","<img src=""img/animals/control/S5.jpg"" width=""540"" height = ""360"" style=""border:14px solid orange"">","null","","","","","",""
"null","","html-keyboard-response","133","126617","0.0-2.0-2.43","","","null","","","","","",""
"1185","","image-keyboard-response","134","127803","0.0-2.0-0.44","","img/animals/control/S1.jpg","54","1","baseline","49","false","",""
"null","","html-keyboard-response","135","128107","0.0-2.0-1.44","","<img src=""img/animals/control/S1.jpg"" width=""540"" height = ""360"">","null","","","","","",""
"null","","html-keyboard-response","136","128327","0.0-2.0-2.44","","","null","","","","","",""
"1076","","image-keyboard-response","137","129403","0.0-2.0-0.45","","img/animals/control/S2.jpg","53","2","baseline","50","false","",""
"null","","html-keyboard-response","138","129706","0.0-2.0-1.45","","<img src=""img/animals/control/S2.jpg"" width=""540"" height = ""360"">","null","","","","","",""
"null","","html-keyboard-response","139","129926","0.0-2.0-2.45","","","null","","","","","",""
"819","","image-keyboard-response","140","130747","0.0-2.0-0.46","","img/animals/control/S6.jpg","52","6","baseline","54","false","",""
"null","","html-keyboard-response","141","131067","0.0-2.0-1.46","","<img src=""img/animals/control/S6.jpg"" width=""540"" height = ""360"">","null","","","","","",""
"null","","html-keyboard-response","142","131287","0.0-2.0-2.46","","","null","","","","","",""
"1091","","image-keyboard-response","143","132379","0.0-2.0-0.47","","img/animals/control/S3.jpg","54","3","baseline","51","false","",""
"null","","html-keyboard-response","144","132686","0.0-2.0-1.47","","<img src=""img/animals/control/S3.jpg"" width=""540"" height = ""360"">","null","","","","","",""
"null","","html-keyboard-response","145","132907","0.0-2.0-2.47","","","null","","","","","",""
"1663","","image-keyboard-response","146","134571","0.0-2.0-0.48","","img/animals/control/S4.jpg","52","4","baseline","52","true","",""
"null","","html-keyboard-response","147","134887","0.0-2.0-1.48","","<img src=""img/animals/control/S4.jpg"" width=""540"" height = ""360"" style=""border:14px solid orange"">","null","","","","","",""
"null","","html-keyboard-response","148","135102","0.0-2.0-2.48","","","null","","","","","",""
"828","","image-keyboard-response","149","135931","0.0-2.0-0.49","","img/animals/control/S1.jpg","53","1","baseline","49","false","",""
"null","","html-keyboard-response","150","136238","0.0-2.0-1.49","","<img src=""img/animals/control/S1.jpg"" width=""540"" height = ""360"">","null","","","","","",""
"null","","html-keyboard-response","151","136457","0.0-2.0-2.49","","","null","","","","","",""
"1169","","image-keyboard-response","152","137626","0.0-2.0-0.50","","img/animals/control/S5.jpg","54","5","baseline","53","false","",""
"null","","html-keyboard-response","153","137936","0.0-2.0-1.50","","<img src=""img/animals/control/S5.jpg"" width=""540"" height = ""360"">","null","","","","","",""
"null","","html-keyboard-response","154","138157","0.0-2.0-2.50","","","null","","","","","",""
"638","","image-keyboard-response","155","138795","0.0-2.0-0.51","","img/animals/control/S6.jpg","52","6","baseline","54","false","",""
"null","","html-keyboard-response","156","139107","0.0-2.0-1.51","","<img src=""img/animals/control/S6.jpg"" width=""540"" height = ""360"">","null","","","","","",""
"null","","html-keyboard-response","157","139327","0.0-2.0-2.51","","","null","","","","","",""
"59","","image-keyboard-response","158","139387","0.0-2.0-0.52","","img/animals/control/S2.jpg","53","2","baseline","50","false","",""
"null","","html-keyboard-response","159","139707","0.0-2.0-1.52","","<img src=""img/animals/control/S2.jpg"" width=""540"" height = ""360"">","null","","","","","",""
"null","","html-keyboard-response","160","139927","0.0-2.0-2.52","","","null","","","","","",""
"611","","image-keyboard-response","161","140539","0.0-2.0-0.53","","img/animals/control/S3.jpg","54","3","baseline","51","false","",""
"null","","html-keyboard-response","162","140857","0.0-2.0-1.53","","<img src=""img/animals/control/S3.jpg"" width=""540"" height = ""360"">","null","","","","","",""
"null","","html-keyboard-response","163","141077","0.0-2.0-2.53","","","null","","","","","",""
"661","","image-keyboard-response","164","141739","0.0-2.0-0.54","","img/animals/control/S3.jpg","54","3","baseline","51","false","",""
"null","","html-keyboard-response","165","142057","0.0-2.0-1.54","","<img src=""img/animals/control/S3.jpg"" width=""540"" height = ""360"">","null","","","","","",""
"null","","html-keyboard-response","166","142276","0.0-2.0-2.54","","","null","","","","","",""
"1942","","image-keyboard-response","167","144219","0.0-2.0-0.55","","img/animals/control/S1.jpg","49","1","baseline","49","true","",""
"null","","html-keyboard-response","168","144537","0.0-2.0-1.55","","<img src=""img/animals/control/S1.jpg"" width=""540"" height = ""360"" style=""border:14px solid orange"">","null","","","","","",""
"null","","html-keyboard-response","169","144747","0.0-2.0-2.55","","","null","","","","","",""
"1522","","image-keyboard-response","170","146268","0.0-2.0-0.56","","img/animals/control/S6.jpg","51","6","baseline","54","false","",""
"null","","html-keyboard-response","171","146588","0.0-2.0-1.56","","<img src=""img/animals/control/S6.jpg"" width=""540"" height = ""360"">","null","","","","","",""
"null","","html-keyboard-response","172","146807","0.0-2.0-2.56","","","null","","","","","",""
"900","","image-keyboard-response","173","147707","0.0-2.0-0.57","","img/animals/control/S4.jpg","52","4","baseline","52","true","",""
"null","","html-keyboard-response","174","148026","0.0-2.0-1.57","","<img src=""img/animals/control/S4.jpg"" width=""540"" height = ""360"" style=""border:14px solid orange"">","null","","","","","",""
"null","","html-keyboard-response","175","148227","0.0-2.0-2.57","","","null","","","","","",""
"854","","image-keyboard-response","176","149082","0.0-2.0-0.58","","img/animals/control/S2.jpg","53","2","baseline","50","false","",""
"null","","html-keyboard-response","177","149397","0.0-2.0-1.58","","<img src=""img/animals/control/S2.jpg"" width=""540"" height = ""360"">","null","","","","","",""
"null","","html-keyboard-response","178","149616","0.0-2.0-2.58","","","null","","","","","",""
"1435","","image-keyboard-response","179","151051","0.0-2.0-0.59","","img/animals/control/S5.jpg","54","5","baseline","53","false","",""
"null","","html-keyboard-response","180","151356","0.0-2.0-1.59","","<img src=""img/animals/control/S5.jpg"" width=""540"" height = ""360"">","null","","","","","",""
"null","","html-keyboard-response","181","151566","0.0-2.0-2.59","","","null","","","","","",""
"1021","","image-keyboard-response","182","152587","0.0-2.0-0.60","","img/animals/control/S3.jpg","53","3","baseline","51","false","",""
"null","","html-keyboard-response","183","152896","0.0-2.0-1.60","","<img src=""img/animals/control/S3.jpg"" width=""540"" height = ""360"">","null","","","","","",""
"null","","html-keyboard-response","184","153116","0.0-2.0-2.60","","","null","","","","","",""
"1005","","image-keyboard-response","185","154122","0.0-2.0-0.61","","img/animals/control/S2.jpg","53","2","baseline","50","false","",""
"null","","html-keyboard-response","186","154427","0.0-2.0-1.61","","<img src=""img/animals/control/S2.jpg"" width=""540"" height = ""360"">","null","","","","","",""
"null","","html-keyboard-response","187","154646","0.0-2.0-2.61","","","null","","","","","",""
"772","","image-keyboard-response","188","155419","0.0-2.0-0.62","","img/animals/control/S4.jpg","51","4","baseline","52","false","",""
"null","","html-keyboard-response","189","155727","0.0-2.0-1.62","","<img src=""img/animals/control/S4.jpg"" width=""540"" height = ""360"">","null","","","","","",""
"null","","html-keyboard-response","190","155947","0.0-2.0-2.62","","","null","","","","","",""
"942","","image-keyboard-response","191","156890","0.0-2.0-0.63","","img/animals/control/S1.jpg","52","1","baseline","49","false","",""
"null","","html-keyboard-response","192","157207","0.0-2.0-1.63","","<img src=""img/animals/control/S1.jpg"" width=""540"" height = ""360"">","null","","","","","",""
"null","","html-keyboard-response","193","157426","0.0-2.0-2.63","","","null","","","","","",""
"1240","","image-keyboard-response","194","158667","0.0-2.0-0.64","","img/animals/control/S6.jpg","54","6","baseline","54","true","",""
"null","","html-keyboard-response","195","158968","0.0-2.0-1.64","","<img src=""img/animals/control/S6.jpg"" width=""540"" height = ""360"" style=""border:14px solid orange"">","null","","","","","",""
"null","","html-keyboard-response","196","159186","0.0-2.0-2.64","","","null","","","","","",""
"1784","","image-keyboard-response","197","160971","0.0-2.0-0.65","","img/animals/control/S5.jpg","51","5","baseline","53","false","",""
"null","","html-keyboard-response","198","161286","0.0-2.0-1.65","","<img src=""img/animals/control/S5.jpg"" width=""540"" height = ""360"">","null","","","","","",""
"null","","html-keyboard-response","199","161506","0.0-2.0-2.65","","","null","","","","","",""
"1144","","image-keyboard-response","200","162651","0.0-2.0-0.66","","img/animals/control/S2.jpg","52","2","baseline","50","false","",""
"null","","html-keyboard-response","201","162957","0.0-2.0-1.66","","<img src=""img/animals/control/S2.jpg"" width=""540"" height = ""360"">","null","","","","","",""
"null","","html-keyboard-response","202","163177","0.0-2.0-2.66","","","null","","","","","",""
"801","","image-keyboard-response","203","163978","0.0-2.0-0.67","","img/animals/control/S1.jpg","52","1","baseline","49","false","",""
"null","","html-keyboard-response","204","164296","0.0-2.0-1.67","","<img src=""img/animals/control/S1.jpg"" width=""540"" height = ""360"">","null","","","","","",""
"null","","html-keyboard-response","205","164516","0.0-2.0-2.67","","","null","","","","","",""
"741","","image-keyboard-response","206","165259","0.0-2.0-0.68","","img/animals/control/S6.jpg","54","6","baseline","54","true","",""
"null","","html-keyboard-response","207","165567","0.0-2.0-1.68","","<img src=""img/animals/control/S6.jpg"" width=""540"" height = ""360"" style=""border:14px solid orange"">","null","","","","","",""
"null","","html-keyboard-response","208","165786","0.0-2.0-2.68","","","null","","","","","",""
"1040","","image-keyboard-response","209","166827","0.0-2.0-0.69","","img/animals/control/S5.jpg","51","5","baseline","53","false","",""
"null","","html-keyboard-response","210","167147","0.0-2.0-1.69","","<img src=""img/animals/control/S5.jpg"" width=""540"" height = ""360"">","null","","","","","",""
"null","","html-keyboard-response","211","167366","0.0-2.0-2.69","","","null","","","","","",""
"1092","","image-keyboard-response","212","168458","0.0-2.0-0.70","","img/animals/control/S4.jpg","52","4","baseline","52","true","",""
"null","","html-keyboard-response","213","168766","0.0-2.0-1.70","","<img src=""img/animals/control/S4.jpg"" width=""540"" height = ""360"" style=""border:14px solid orange"">","null","","","","","",""
"null","","html-keyboard-response","214","168967","0.0-2.0-2.70","","","null","","","","","",""
"1378","","image-keyboard-response","215","170346","0.0-2.0-0.71","","img/animals/control/S3.jpg","54","3","baseline","51","false","",""
"null","","html-keyboard-response","216","170656","0.0-2.0-1.71","","<img src=""img/animals/control/S3.jpg"" width=""540"" height = ""360"">","null","","","","","",""
"null","","html-keyboard-response","217","170876","0.0-2.0-2.71","","","null","","","","","",""
"1150","","image-keyboard-response","218","172027","0.0-2.0-0.72","","img/animals/control/S4.jpg","52","4","baseline","52","true","",""
"null","","html-keyboard-response","219","172346","0.0-2.0-1.72","","<img src=""img/animals/control/S4.jpg"" width=""540"" height = ""360"" style=""border:14px solid orange"">","null","","","","","",""
"null","","html-keyboard-response","220","172556","0.0-2.0-2.72","","","null","","","","","",""
"957","","image-keyboard-response","221","173514","0.0-2.0-0.73","","img/animals/control/S1.jpg","49","1","baseline","49","true","",""
"null","","html-keyboard-response","222","173817","0.0-2.0-1.73","","<img src=""img/animals/control/S1.jpg"" width=""540"" height = ""360"" style=""border:14px solid orange"">","null","","","","","",""
"null","","html-keyboard-response","223","174037","0.0-2.0-2.73","","","null","","","","","",""
"949","","image-keyboard-response","224","174985","0.0-2.0-0.74","","img/animals/control/S2.jpg","53","2","baseline","50","false","",""
"null","","html-keyboard-response","225","175296","0.0-2.0-1.74","","<img src=""img/animals/control/S2.jpg"" width=""540"" height = ""360"">","null","","","","","",""
"null","","html-keyboard-response","226","175516","0.0-2.0-2.74","","","null","","","","","",""
"null","","image-keyboard-response","227","178527","0.0-2.0-0.75","","img/animals/control/S5.jpg","null","5","baseline","53","false","",""
"null","","html-keyboard-response","228","178836","0.0-2.0-1.75","","<img src=""img/animals/control/S5.jpg"" width=""540"" height = ""360"">","null","","","","","",""
"null","","html-keyboard-response","229","179056","0.0-2.0-2.75","","","null","","","","","",""
"1098","","image-keyboard-response","230","180155","0.0-2.0-0.76","","img/animals/control/S3.jpg","54","3","baseline","51","false","",""
"null","","html-keyboard-response","231","180466","0.0-2.0-1.76","","<img src=""img/animals/control/S3.jpg"" width=""540"" height = ""360"">","null","","","","","",""
"null","","html-keyboard-response","232","180676","0.0-2.0-2.76","","","null","","","","","",""
"1125","","image-keyboard-response","233","181802","0.0-2.0-0.77","","img/animals/control/S6.jpg","49","6","baseline","54","false","",""
"null","","html-keyboard-response","234","182116","0.0-2.0-1.77","","<img src=""img/animals/control/S6.jpg"" width=""540"" height = ""360"">","null","","","","","",""
"null","","html-keyboard-response","235","182337","0.0-2.0-2.77","","","null","","","","","",""
"1065","","image-keyboard-response","236","183403","0.0-2.0-0.78","","img/animals/control/S1.jpg","49","1","baseline","49","true","",""
"null","","html-keyboard-response","237","183716","0.0-2.0-1.78","","<img src=""img/animals/control/S1.jpg"" width=""540"" height = ""360"" style=""border:14px solid orange"">","null","","","","","",""
"null","","html-keyboard-response","238","183917","0.0-2.0-2.78","","","null","","","","","",""
"1149","","image-keyboard-response","239","185067","0.0-2.0-0.79","","img/animals/control/S4.jpg","52","4","baseline","52","true","",""
"null","","html-keyboard-response","240","185376","0.0-2.0-1.79","","<img src=""img/animals/control/S4.jpg"" width=""540"" height = ""360"" style=""border:14px solid orange"">","null","","","","","",""
"null","","html-keyboard-response","241","185596","0.0-2.0-2.79","","","null","","","","","",""
"1279","","image-keyboard-response","242","186874","0.0-2.0-0.80","","img/animals/control/S5.jpg","53","5","baseline","53","true","",""
"null","","html-keyboard-response","243","187177","0.0-2.0-1.80","","<img src=""img/animals/control/S5.jpg"" width=""540"" height = ""360"" style=""border:14px solid orange"">","null","","","","","",""
"null","","html-keyboard-response","244","187396","0.0-2.0-2.80","","","null","","","","","",""
"1477","","image-keyboard-response","245","188874","0.0-2.0-0.81","","img/animals/control/S3.jpg","54","3","baseline","51","false","",""
"null","","html-keyboard-response","246","189186","0.0-2.0-1.81","","<img src=""img/animals/control/S3.jpg"" width=""540"" height = ""360"">","null","","","","","",""
"null","","html-keyboard-response","247","189406","0.0-2.0-2.81","","","null","","","","","",""
"null","","image-keyboard-response","248","192416","0.0-2.0-0.82","","img/animals/control/S2.jpg","null","2","baseline","50","false","",""
"null","","html-keyboard-response","249","192736","0.0-2.0-1.82","","<img src=""img/animals/control/S2.jpg"" width=""540"" height = ""360"">","null","","","","","",""
"null","","html-keyboard-response","250","192946","0.0-2.0-2.82","","","null","","","","","",""
"1479","","image-keyboard-response","251","194427","0.0-2.0-0.83","","img/animals/control/S6.jpg","50","6","baseline","54","false","",""
"null","","html-keyboard-response","252","194746","0.0-2.0-1.83","","<img src=""img/animals/control/S6.jpg"" width=""540"" height = ""360"">","null","","","","","",""
"null","","html-keyboard-response","253","194968","0.0-2.0-2.83","","","null","","","","","",""
"null","","image-keyboard-response","254","197986","0.0-2.0-0.84","","img/animals/control/S2.jpg","null","2","baseline","50","false","",""
"null","","html-keyboard-response","255","198295","0.0-2.0-1.84","","<img src=""img/animals/control/S2.jpg"" width=""540"" height = ""360"">","null","","","","","",""
"null","","html-keyboard-response","256","198510","0.0-2.0-2.84","","","null","","","","","",""
"null","","image-keyboard-response","257","201536","0.0-2.0-0.85","","img/animals/control/S3.jpg","null","3","baseline","51","false","",""
"null","","html-keyboard-response","258","201856","0.0-2.0-1.85","","<img src=""img/animals/control/S3.jpg"" width=""540"" height = ""360"">","null","","","","","",""
"null","","html-keyboard-response","259","202076","0.0-2.0-2.85","","","null","","","","","",""
"861","","image-keyboard-response","260","202938","0.0-2.0-0.86","","img/animals/control/S1.jpg","49","1","baseline","49","true","",""
"null","","html-keyboard-response","261","203256","0.0-2.0-1.86","","<img src=""img/animals/control/S1.jpg"" width=""540"" height = ""360"" style=""border:14px solid orange"">","null","","","","","",""
"null","","html-keyboard-response","262","203476","0.0-2.0-2.86","","","null","","","","","",""
"1045","","image-keyboard-response","263","204522","0.0-2.0-0.87","","img/animals/control/S4.jpg","52","4","baseline","52","true","",""
"null","","html-keyboard-response","264","204823","0.0-2.0-1.87","","<img src=""img/animals/control/S4.jpg"" width=""540"" height = ""360"" style=""border:14px solid orange"">","null","","","","","",""
"null","","html-keyboard-response","265","205036","0.0-2.0-2.87","","","null","","","","","",""
"1535","","image-keyboard-response","266","206570","0.0-2.0-0.88","","img/animals/control/S6.jpg","53","6","baseline","54","false","",""
"null","","html-keyboard-response","267","206886","0.0-2.0-1.88","","<img src=""img/animals/control/S6.jpg"" width=""540"" height = ""360"">","null","","","","","",""
"null","","html-keyboard-response","268","207105","0.0-2.0-2.88","","","null","","","","","",""
"712","","image-keyboard-response","269","207817","0.0-2.0-0.89","","img/animals/control/S5.jpg","54","5","baseline","53","false","",""
"null","","html-keyboard-response","270","208125","0.0-2.0-1.89","","<img src=""img/animals/control/S5.jpg"" width=""540"" height = ""360"">","null","","","","","",""
"null","","html-keyboard-response","271","208326","0.0-2.0-2.89","","","null","","","","","",""
"1603","","image-keyboard-response","272","209930","0.0-2.0-0.90","","img/animals/control/S6.jpg","53","6","baseline","54","false","",""
"null","","html-keyboard-response","273","210235","0.0-2.0-1.90","","<img src=""img/animals/control/S6.jpg"" width=""540"" height = ""360"">","null","","","","","",""
"null","","html-keyboard-response","274","210456","0.0-2.0-2.90","","","null","","","","","",""
"1313","","image-keyboard-response","275","211770","0.0-2.0-0.91","","img/animals/control/S4.jpg","52","4","baseline","52","true","",""
"null","","html-keyboard-response","276","212075","0.0-2.0-1.91","","<img src=""img/animals/control/S4.jpg"" width=""540"" height = ""360"" style=""border:14px solid orange"">","null","","","","","",""
"null","","html-keyboard-response","277","212276","0.0-2.0-2.91","","","null","","","","","",""
"790","","image-keyboard-response","278","213066","0.0-2.0-0.92","","img/animals/control/S1.jpg","49","1","baseline","49","true","",""
"null","","html-keyboard-response","279","213386","0.0-2.0-1.92","","<img src=""img/animals/control/S1.jpg"" width=""540"" height = ""360"" style=""border:14px solid orange"">","null","","","","","",""
"null","","html-keyboard-response","280","213606","0.0-2.0-2.92","","","null","","","","","",""
"null","","image-keyboard-response","281","216616","0.0-2.0-0.93","","img/animals/control/S5.jpg","null","5","baseline","53","false","",""
"null","","html-keyboard-response","282","216935","0.0-2.0-1.93","","<img src=""img/animals/control/S5.jpg"" width=""540"" height = ""360"">","null","","","","","",""
"null","","html-keyboard-response","283","217156","0.0-2.0-2.93","","","null","","","","","",""
"2373","","image-keyboard-response","284","219530","0.0-2.0-0.94","","img/animals/control/S2.jpg","53","2","baseline","50","false","",""
"null","","html-keyboard-response","285","219835","0.0-2.0-1.94","","<img src=""img/animals/control/S2.jpg"" width=""540"" height = ""360"">","null","","","","","",""
"null","","html-keyboard-response","286","220055","0.0-2.0-2.94","","","null","","","","","",""
"1202","","image-keyboard-response","287","221258","0.0-2.0-0.95","","img/animals/control/S3.jpg","54","3","baseline","51","false","",""
"null","","html-keyboard-response","288","221571","0.0-2.0-1.95","","<img src=""img/animals/control/S3.jpg"" width=""540"" height = ""360"">","null","","","","","",""
"null","","html-keyboard-response","289","221783","0.0-2.0-2.95","","","null","","","","","",""
"null","","image-keyboard-response","290","224795","0.0-2.0-0.96","","img/animals/control/S6.jpg","null","6","baseline","54","false","",""
"null","","html-keyboard-response","291","225115","0.0-2.0-1.96","","<img src=""img/animals/control/S6.jpg"" width=""540"" height = ""360"">","null","","","","","",""
"null","","html-keyboard-response","292","225335","0.0-2.0-2.96","","","null","","","","","",""
"1473","","image-keyboard-response","293","226809","0.0-2.0-0.97","","img/animals/control/S3.jpg","51","3","baseline","51","true","",""
"null","","html-keyboard-response","294","227116","0.0-2.0-1.97","","<img src=""img/animals/control/S3.jpg"" width=""540"" height = ""360"" style=""border:14px solid orange"">","null","","","","","",""
"null","","html-keyboard-response","295","227335","0.0-2.0-2.97","","","null","","","","","",""
"1121","","image-keyboard-response","296","228459","0.0-2.0-0.98","","img/animals/control/S2.jpg","53","2","baseline","50","false","",""
"null","","html-keyboard-response","297","228765","0.0-2.0-1.98","","<img src=""img/animals/control/S2.jpg"" width=""540"" height = ""360"">","null","","","","","",""
"null","","html-keyboard-response","298","228967","0.0-2.0-2.98","","","null","","","","","",""
"802","","image-keyboard-response","299","229770","0.0-2.0-0.99","","img/animals/control/S4.jpg","52","4","baseline","52","true","",""
"null","","html-keyboard-response","300","230086","0.0-2.0-1.99","","<img src=""img/animals/control/S4.jpg"" width=""540"" height = ""360"" style=""border:14px solid orange"">","null","","","","","",""
"null","","html-keyboard-response","301","230295","0.0-2.0-2.99","","","null","","","","","",""
"961","","image-keyboard-response","302","231257","0.0-2.0-0.100","","img/animals/control/S5.jpg","53","5","baseline","53","true","",""
"null","","html-keyboard-response","303","231565","0.0-2.0-1.100","","<img src=""img/animals/control/S5.jpg"" width=""540"" height = ""360"" style=""border:14px solid orange"">","null","","","","","",""
"null","","html-keyboard-response","304","231765","0.0-2.0-2.100","","","null","","","","","",""
"883","","image-keyboard-response","305","232649","0.0-2.0-0.101","","img/animals/control/S1.jpg","49","1","baseline","49","true","",""
"null","","html-keyboard-response","306","232956","0.0-2.0-1.101","","<img src=""img/animals/control/S1.jpg"" width=""540"" height = ""360"" style=""border:14px solid orange"">","null","","","","","",""
"null","","html-keyboard-response","307","233175","0.0-2.0-2.101","","","null","","","","","",""
"1089","","image-keyboard-response","308","234266","0.0-2.0-0.102","","img/animals/control/S3.jpg","52","3","baseline","51","false","",""
"null","","html-keyboard-response","309","234585","0.0-2.0-1.102","","<img src=""img/animals/control/S3.jpg"" width=""540"" height = ""360"">","null","","","","","",""
"null","","html-keyboard-response","310","234785","0.0-2.0-2.102","","","null","","","","","",""
"1144","","image-keyboard-response","311","235930","0.0-2.0-0.103","","img/animals/control/S1.jpg","49","1","baseline","49","true","",""
"null","","html-keyboard-response","312","236246","0.0-2.0-1.103","","<img src=""img/animals/control/S1.jpg"" width=""540"" height = ""360"" style=""border:14px solid orange"">","null","","","","","",""
"null","","html-keyboard-response","313","236465","0.0-2.0-2.103","","","null","","","","","",""
"1080","","image-keyboard-response","314","237545","0.0-2.0-0.104","","img/animals/control/S2.jpg","53","2","baseline","50","false","",""
"null","","html-keyboard-response","315","237855","0.0-2.0-1.104","","<img src=""img/animals/control/S2.jpg"" width=""540"" height = ""360"">","null","","","","","",""
"null","","html-keyboard-response","316","238066","0.0-2.0-2.104","","","null","","","","","",""
"711","","image-keyboard-response","317","238777","0.0-2.0-0.105","","img/animals/control/S5.jpg","53","5","baseline","53","true","",""
"null","","html-keyboard-response","318","239086","0.0-2.0-1.105","","<img src=""img/animals/control/S5.jpg"" width=""540"" height = ""360"" style=""border:14px solid orange"">","null","","","","","",""
"null","","html-keyboard-response","319","239305","0.0-2.0-2.105","","","null","","","","","",""
"1295","","image-keyboard-response","320","240602","0.0-2.0-0.106","","img/animals/control/S6.jpg","51","6","baseline","54","false","",""
"null","","html-keyboard-response","321","240905","0.0-2.0-1.106","","<img src=""img/animals/control/S6.jpg"" width=""540"" height = ""360"">","null","","","","","",""
"null","","html-keyboard-response","322","241123","0.0-2.0-2.106","","","null","","","","","",""
"1430","","image-keyboard-response","323","242553","0.0-2.0-0.107","","img/animals/control/S4.jpg","52","4","baseline","52","true","",""
"null","","html-keyboard-response","324","242856","0.0-2.0-1.107","","<img src=""img/animals/control/S4.jpg"" width=""540"" height = ""360"" style=""border:14px solid orange"">","null","","","","","",""
"null","","html-keyboard-response","325","243075","0.0-2.0-2.107","","","null","","","","","",""
"null","","image-keyboard-response","326","246096","0.0-2.0-0.108","","img/animals/control/S3.jpg","null","3","baseline","51","false","",""
"null","","html-keyboard-response","327","246416","0.0-2.0-1.108","","<img src=""img/animals/control/S3.jpg"" width=""540"" height = ""360"">","null","","","","","",""
"null","","html-keyboard-response","328","246635","0.0-2.0-2.108","","","null","","","","","",""
"797","","image-keyboard-response","329","247433","0.0-2.0-0.109","","img/animals/control/S6.jpg","52","6","baseline","54","false","",""
"null","","html-keyboard-response","330","247735","0.0-2.0-1.109","","<img src=""img/animals/control/S6.jpg"" width=""540"" height = ""360"">","null","","","","","",""
"null","","html-keyboard-response","331","247955","0.0-2.0-2.109","","","null","","","","","",""
"1029","","image-keyboard-response","332","248986","0.0-2.0-0.110","","img/animals/control/S4.jpg","52","4","baseline","52","true","",""
"null","","html-keyboard-response","333","249295","0.0-2.0-1.110","","<img src=""img/animals/control/S4.jpg"" width=""540"" height = ""360"" style=""border:14px solid orange"">","null","","","","","",""
"null","","html-keyboard-response","334","249515","0.0-2.0-2.110","","","null","","","","","",""
"766","","image-keyboard-response","335","250281","0.0-2.0-0.111","","img/animals/control/S1.jpg","49","1","baseline","49","true","",""
"null","","html-keyboard-response","336","250595","0.0-2.0-1.111","","<img src=""img/animals/control/S1.jpg"" width=""540"" height = ""360"" style=""border:14px solid orange"">","null","","","","","",""
"null","","html-keyboard-response","337","250815","0.0-2.0-2.111","","","null","","","","","",""
"761","","image-keyboard-response","338","251577","0.0-2.0-0.112","","img/animals/control/S5.jpg","53","5","baseline","53","true","",""
"null","","html-keyboard-response","339","251895","0.0-2.0-1.112","","<img src=""img/animals/control/S5.jpg"" width=""540"" height = ""360"" style=""border:14px solid orange"">","null","","","","","",""
"null","","html-keyboard-response","340","252115","0.0-2.0-2.112","","","null","","","","","",""
"854","","image-keyboard-response","341","252970","0.0-2.0-0.113","","img/animals/control/S2.jpg","54","2","baseline","50","false","",""
"null","","html-keyboard-response","342","253275","0.0-2.0-1.113","","<img src=""img/animals/control/S2.jpg"" width=""540"" height = ""360"">","null","","","","","",""
"null","","html-keyboard-response","343","253494","0.0-2.0-2.113","","","null","","","","","",""
"1026","","image-keyboard-response","344","254521","0.0-2.0-0.114","","img/animals/control/S1.jpg","49","1","baseline","49","true","",""
"null","","html-keyboard-response","345","254825","0.0-2.0-1.114","","<img src=""img/animals/control/S1.jpg"" width=""540"" height = ""360"" style=""border:14px solid orange"">","null","","","","","",""
"null","","html-keyboard-response","346","255045","0.0-2.0-2.114","","","null","","","","","",""
"1124","","image-keyboard-response","347","256169","0.0-2.0-0.115","","img/animals/control/S4.jpg","51","4","baseline","52","false","",""
"null","","html-keyboard-response","348","256475","0.0-2.0-1.115","","<img src=""img/animals/control/S4.jpg"" width=""540"" height = ""360"">","null","","","","","",""
"null","","html-keyboard-response","349","256695","0.0-2.0-2.115","","","null","","","","","",""
"2002","","image-keyboard-response","350","258697","0.0-2.0-0.116","","img/animals/control/S3.jpg","51","3","baseline","51","true","",""
"null","","html-keyboard-response","351","259015","0.0-2.0-1.116","","<img src=""img/animals/control/S3.jpg"" width=""540"" height = ""360"" style=""border:14px solid orange"">","null","","","","","",""
"null","","html-keyboard-response","352","259235","0.0-2.0-2.116","","","null","","","","","",""
"1766","","image-keyboard-response","353","261002","0.0-2.0-0.117","","img/animals/control/S2.jpg","54","2","baseline","50","false","",""
"null","","html-keyboard-response","354","261315","0.0-2.0-1.117","","<img src=""img/animals/control/S2.jpg"" width=""540"" height = ""360"">","null","","","","","",""
"null","","html-keyboard-response","355","261535","0.0-2.0-2.117","","","null","","","","","",""
"null","","image-keyboard-response","356","264555","0.0-2.0-0.118","","img/animals/control/S6.jpg","null","6","baseline","54","false","",""
"null","","html-keyboard-response","357","264875","0.0-2.0-1.118","","<img src=""img/animals/control/S6.jpg"" width=""540"" height = ""360"">","null","","","","","",""
"null","","html-keyboard-response","358","265095","0.0-2.0-2.118","","","null","","","","","",""
"1474","","image-keyboard-response","359","266569","0.0-2.0-0.119","","img/animals/control/S5.jpg","53","5","baseline","53","true","",""
"null","","html-keyboard-response","360","266870","0.0-2.0-1.119","","<img src=""img/animals/control/S5.jpg"" width=""540"" height = ""360"" style=""border:14px solid orange"">","null","","","","","",""
"null","","html-keyboard-response","361","267085","0.0-2.0-2.119","","","null","","","","","",""
"5907","","instructions","362","272993","0.0-3.0","[{""page_index"":0,""viewing_time"":5907}]","","","","","","","",""
"7807","","instructions","363","280801","0.0-4.0","[{""page_index"":0,""viewing_time"":7807}]","","","","","","","",""
"1046","","image-keyboard-response","364","281849","0.0-5.0","","img/animals/S3.jpg","49","3","Ns6,train","51","false","",""
"null","","html-keyboard-response","365","282205","0.0-6.0","","<img src=""img/animals/S3.jpg"" width=""540"" height = ""360"">","null","","","","","",""
"null","","html-keyboard-response","366","282424","0.0-7.0","","","null","","","","","",""
"671","","image-keyboard-response","367","283097","0.0-8.0","","img/animals/S5.jpg","49","5","Ns6,train","53","false","",""
"null","","html-keyboard-response","368","283455","0.0-9.0","","<img src=""img/animals/S5.jpg"" width=""540"" height = ""360"">","null","","","","","",""
"null","","html-keyboard-response","369","283675","0.0-10.0","","","null","","","","","",""
"605","","image-keyboard-response","370","284281","0.0-11.0","","img/animals/S4.jpg","49","4","Ns6,train","52","false","",""
"null","","html-keyboard-response","371","284636","0.0-12.0","","<img src=""img/animals/S4.jpg"" width=""540"" height = ""360"">","null","","","","","",""
"null","","html-keyboard-response","372","284844","0.0-13.0","","","null","","","","","",""
"587","","image-keyboard-response","373","285433","0.0-14.0","","img/animals/S5.jpg","49","5","Ns6,train","53","false","",""
"null","","html-keyboard-response","374","285784","0.0-15.0","","<img src=""img/animals/S5.jpg"" width=""540"" height = ""360"">","null","","","","","",""
"null","","html-keyboard-response","375","285995","0.0-16.0","","","null","","","","","",""
"701","","image-keyboard-response","376","286697","0.0-17.0","","img/animals/S4.jpg","50","4","Ns6,train","52","false","",""
"null","","html-keyboard-response","377","287054","0.0-18.0","","<img src=""img/animals/S4.jpg"" width=""540"" height = ""360"">","null","","","","","",""
"null","","html-keyboard-response","378","287255","0.0-19.0","","","null","","","","","",""
"561","","image-keyboard-response","379","287817","0.0-20.0","","img/animals/S5.jpg","50","5","Ns6,train","53","false","",""
"null","","html-keyboard-response","380","288174","0.0-21.0","","<img src=""img/animals/S5.jpg"" width=""540"" height = ""360"">","null","","","","","",""
"null","","html-keyboard-response","381","288395","0.0-22.0","","","null","","","","","",""
"957","","image-keyboard-response","382","289352","0.0-23.0","","img/animals/S4.jpg","51","4","Ns6,train","52","false","",""
"null","","html-keyboard-response","383","289715","0.0-24.0","","<img src=""img/animals/S4.jpg"" width=""540"" height = ""360"">","null","","","","","",""
"null","","html-keyboard-response","384","289935","0.0-25.0","","","null","","","","","",""
"857","","image-keyboard-response","385","290793","0.0-26.0","","img/animals/S1.jpg","53","1","Ns6,train","49","false","",""
"null","","html-keyboard-response","386","291145","0.0-27.0","","<img src=""img/animals/S1.jpg"" width=""540"" height = ""360"">","null","","","","","",""
"null","","html-keyboard-response","387","291365","0.0-28.0","","","null","","","","","",""
"1315","","image-keyboard-response","388","292681","0.0-29.0","","img/animals/S5.jpg","51","5","Ns6,train","53","false","",""
"null","","html-keyboard-response","389","293034","0.0-30.0","","<img src=""img/animals/S5.jpg"" width=""540"" height = ""360"">","null","","","","","",""
"null","","html-keyboard-response","390","293255","0.0-31.0","","","null","","","","","",""
"1008","","image-keyboard-response","391","294265","0.0-32.0","","img/animals/S4.jpg","53","4","Ns6,train","52","false","",""
"null","","html-keyboard-response","392","294635","0.0-33.0","","<img src=""img/animals/S4.jpg"" width=""540"" height = ""360"">","null","","","","","",""
"null","","html-keyboard-response","393","294854","0.0-34.0","","","null","","","","","",""
"947","","image-keyboard-response","394","295801","0.0-35.0","","img/animals/S5.jpg","53","5","Ns6,train","53","true","",""
"null","","html-keyboard-response","395","296165","0.0-36.0","","<img src=""img/animals/S5.jpg"" width=""540"" height = ""360"" style=""border:14px solid orange"">","null","","","","","",""
"null","","html-keyboard-response","396","296385","0.0-37.0","","","null","","","","","",""
"760","","image-keyboard-response","397","297144","0.0-38.0","","img/animals/S4.jpg","52","4","Ns6,train","52","true","",""
"null","","html-keyboard-response","398","297504","0.0-39.0","","<img src=""img/animals/S4.jpg"" width=""540"" height = ""360"" style=""border:14px solid orange"">","null","","","","","",""
"null","","html-keyboard-response","399","297724","0.0-40.0","","","null","","","","","",""
"587","","image-keyboard-response","400","298313","0.0-41.0","","img/animals/S5.jpg","53","5","Ns6,train","53","true","",""
"null","","html-keyboard-response","401","298664","0.0-42.0","","<img src=""img/animals/S5.jpg"" width=""540"" height = ""360"" style=""border:14px solid orange"">","null","","","","","",""
"null","","html-keyboard-response","402","298884","0.0-43.0","","","null","","","","","",""
"436","","image-keyboard-response","403","299321","0.0-44.0","","img/animals/S4.jpg","52","4","Ns6,train","52","true","",""
"null","","html-keyboard-response","404","299685","0.0-45.0","","<img src=""img/animals/S4.jpg"" width=""540"" height = ""360"" style=""border:14px solid orange"">","null","","","","","",""
"null","","html-keyboard-response","405","299885","0.0-46.0","","","null","","","","","",""
"859","","image-keyboard-response","406","300744","0.0-47.0","","img/animals/S6.jpg","54","6","Ns6,train","54","true","",""
"null","","html-keyboard-response","407","301104","0.0-48.0","","<img src=""img/animals/S6.jpg"" width=""540"" height = ""360"" style=""border:14px solid orange"">","null","","","","","",""
"null","","html-keyboard-response","408","301325","0.0-49.0","","","null","","","","","",""
"1836","","image-keyboard-response","409","303160","0.0-50.0","","img/animals/S2.jpg","49","2","Ns6,train","50","false","",""
"null","","html-keyboard-response","410","303524","0.0-51.0","","<img src=""img/animals/S2.jpg"" width=""540"" height = ""360"">","null","","","","","",""
"null","","html-keyboard-response","411","303725","0.0-52.0","","","null","","","","","",""
"1067","","image-keyboard-response","412","304792","0.0-53.0","","img/animals/S5.jpg","52","5","Ns6,train","53","false","",""
"null","","html-keyboard-response","413","305144","0.0-54.0","","<img src=""img/animals/S5.jpg"" width=""540"" height = ""360"">","null","","","","","",""
"null","","html-keyboard-response","414","305365","0.0-55.0","","","null","","","","","",""
"788","","image-keyboard-response","415","306153","0.0-56.0","","img/animals/S4.jpg","51","4","Ns6,train","52","false","",""
"null","","html-keyboard-response","416","306504","0.0-57.0","","<img src=""img/animals/S4.jpg"" width=""540"" height = ""360"">","null","","","","","",""
"null","","html-keyboard-response","417","306724","0.0-58.0","","","null","","","","","",""
"null","","image-keyboard-response","418","309245","0.0-59.0","","img/animals/S2.jpg","null","2","Ns6,train","50","false","",""
"null","","html-keyboard-response","419","309605","0.0-60.0","","<img src=""img/animals/S2.jpg"" width=""540"" height = ""360"">","null","","","","","",""
"null","","html-keyboard-response","420","309824","0.0-61.0","","","null","","","","","",""
"null","","image-keyboard-response","421","312334","0.0-62.0","","img/animals/S2.jpg","null","2","Ns6,train","50","false","",""
"null","","html-keyboard-response","422","312700","0.0-63.0","","<img src=""img/animals/S2.jpg"" width=""540"" height = ""360"">","null","","","","","",""
"null","","html-keyboard-response","423","312904","0.0-64.0","","","null","","","","","",""
"null","","image-keyboard-response","424","315424","0.0-65.0","","img/animals/S3.jpg","null","3","Ns6,train","51","false","",""
"null","","html-keyboard-response","425","315785","0.0-66.0","","<img src=""img/animals/S3.jpg"" width=""540"" height = ""360"">","null","","","","","",""
"null","","html-keyboard-response","426","316004","0.0-67.0","","","null","","","","","",""
"1075","","image-keyboard-response","427","317080","0.0-68.0","","img/animals/S1.jpg","49","1","Ns6,train","49","true","",""
"null","","html-keyboard-response","428","317442","0.0-69.0","","<img src=""img/animals/S1.jpg"" width=""540"" height = ""360"" style=""border:14px solid orange"">","null","","","","","",""
"null","","html-keyboard-response","429","317654","0.0-70.0","","","null","","","","","",""
"1570","","image-keyboard-response","430","319224","0.0-71.0","","img/animals/S2.jpg","54","2","Ns6,train","50","false","",""
"null","","html-keyboard-response","431","319585","0.0-72.0","","<img src=""img/animals/S2.jpg"" width=""540"" height = ""360"">","null","","","","","",""
"null","","html-keyboard-response","432","319804","0.0-73.0","","","null","","","","","",""
"859","","image-keyboard-response","433","320664","0.0-74.0","","img/animals/S3.jpg","49","3","Ns6,train","51","false","",""
"null","","html-keyboard-response","434","321024","0.0-75.0","","<img src=""img/animals/S3.jpg"" width=""540"" height = ""360"">","null","","","","","",""
"null","","html-keyboard-response","435","321224","0.0-76.0","","","null","","","","","",""
"null","","image-keyboard-response","436","323744","0.0-77.0","","img/animals/S2.jpg","null","2","Ns6,train","50","false","",""
"null","","html-keyboard-response","437","324103","0.0-78.0","","<img src=""img/animals/S2.jpg"" width=""540"" height = ""360"">","null","","","","","",""
"null","","html-keyboard-response","438","324324","0.0-79.0","","","null","","","","","",""
"2194","","image-keyboard-response","439","326520","0.0-80.0","","img/animals/S1.jpg","54","1","Ns6,train","49","false","",""
"null","","html-keyboard-response","440","326874","0.0-81.0","","<img src=""img/animals/S1.jpg"" width=""540"" height = ""360"">","null","","","","","",""
"null","","html-keyboard-response","441","327094","0.0-82.0","","","null","","","","","",""
"null","","image-keyboard-response","442","329614","0.0-83.0","","img/animals/S3.jpg","null","3","Ns6,train","51","false","",""
"null","","html-keyboard-response","443","329974","0.0-84.0","","<img src=""img/animals/S3.jpg"" width=""540"" height = ""360"">","null","","","","","",""
"null","","html-keyboard-response","444","330194","0.0-85.0","","","null","","","","","",""
"950","","image-keyboard-response","445","331144","0.0-86.0","","img/animals/S1.jpg","49","1","Ns6,train","49","true","",""
"null","","html-keyboard-response","446","331513","0.0-87.0","","<img src=""img/animals/S1.jpg"" width=""540"" height = ""360"" style=""border:14px solid orange"">","null","","","","","",""
"null","","html-keyboard-response","447","331734","0.0-88.0","","","null","","","","","",""
"null","","image-keyboard-response","448","334244","0.0-89.0","","img/animals/S2.jpg","null","2","Ns6,train","50","false","",""
"null","","html-keyboard-response","449","334604","0.0-90.0","","<img src=""img/animals/S2.jpg"" width=""540"" height = ""360"">","null","","","","","",""
"null","","html-keyboard-response","450","334824","0.0-91.0","","","null","","","","","",""
"null","","image-keyboard-response","451","337344","0.0-92.0","","img/animals/S6.jpg","null","6","Ns6,train","54","false","",""
"null","","html-keyboard-response","452","337704","0.0-93.0","","<img src=""img/animals/S6.jpg"" width=""540"" height = ""360"">","null","","","","","",""
"null","","html-keyboard-response","453","337924","0.0-94.0","","","null","","","","","",""
"836","","image-keyboard-response","454","338760","0.0-95.0","","img/animals/S6.jpg","50","6","Ns6,train","54","false","",""
"null","","html-keyboard-response","455","339114","0.0-96.0","","<img src=""img/animals/S6.jpg"" width=""540"" height = ""360"">","null","","","","","",""
"null","","html-keyboard-response","456","339314","0.0-97.0","","","null","","","","","",""
"1317","","image-keyboard-response","457","340632","0.0-98.0","","img/animals/S3.jpg","49","3","Ns6,train","51","false","",""
"null","","html-keyboard-response","458","340984","0.0-99.0","","<img src=""img/animals/S3.jpg"" width=""540"" height = ""360"">","null","","","","","",""
"null","","html-keyboard-response","459","341204","0.0-100.0","","","null","","","","","",""
"1171","","image-keyboard-response","460","342376","0.0-101.0","","img/animals/S6.jpg","52","6","Ns6,train","54","false","",""
"null","","html-keyboard-response","461","342744","0.0-102.0","","<img src=""img/animals/S6.jpg"" width=""540"" height = ""360"">","null","","","","","",""
"null","","html-keyboard-response","462","342964","0.0-103.0","","","null","","","","","",""
"1154","","image-keyboard-response","463","344120","0.0-104.0","","img/animals/S5.jpg","53","5","Ns6,train","53","true","",""
"null","","html-keyboard-response","464","344484","0.0-105.0","","<img src=""img/animals/S5.jpg"" width=""540"" height = ""360"" style=""border:14px solid orange"">","null","","","","","",""
"null","","html-keyboard-response","465","344704","0.0-106.0","","","null","","","","","",""
"663","","image-keyboard-response","466","345368","0.0-107.0","","img/animals/S4.jpg","52","4","Ns6,train","52","true","",""
"null","","html-keyboard-response","467","345723","0.0-108.0","","<img src=""img/animals/S4.jpg"" width=""540"" height = ""360"" style=""border:14px solid orange"">","null","","","","","",""
"null","","html-keyboard-response","468","345944","0.0-109.0","","","null","","","","","",""
"1328","","image-keyboard-response","469","347272","0.0-110.0","","img/animals/S6.jpg","54","6","Ns6,train","54","true","",""
"null","","html-keyboard-response","470","347623","0.0-111.0","","<img src=""img/animals/S6.jpg"" width=""540"" height = ""360"" style=""border:14px solid orange"">","null","","","","","",""
"null","","html-keyboard-response","471","347844","0.0-112.0","","","null","","","","","",""
"867","","image-keyboard-response","472","348712","0.0-113.0","","img/animals/S5.jpg","53","5","Ns6,train","53","true","",""
"null","","html-keyboard-response","473","349064","0.0-114.0","","<img src=""img/animals/S5.jpg"" width=""540"" height = ""360"" style=""border:14px solid orange"">","null","","","","","",""
"null","","html-keyboard-response","474","349274","0.0-115.0","","","null","","","","","",""
"462","","image-keyboard-response","475","349736","0.0-116.0","","img/animals/S4.jpg","52","4","Ns6,train","52","true","",""
"null","","html-keyboard-response","476","350094","0.0-117.0","","<img src=""img/animals/S4.jpg"" width=""540"" height = ""360"" style=""border:14px solid orange"">","null","","","","","",""
"null","","html-keyboard-response","477","350295","0.0-118.0","","","null","","","","","",""
"1248","","image-keyboard-response","478","351544","0.0-119.0","","img/animals/S3.jpg","49","3","Ns6,train","51","false","",""
"null","","html-keyboard-response","479","351914","0.0-120.0","","<img src=""img/animals/S3.jpg"" width=""540"" height = ""360"">","null","","","","","",""
"null","","html-keyboard-response","480","352134","0.0-121.0","","","null","","","","","",""
"882","","image-keyboard-response","481","353015","0.0-122.0","","img/animals/S6.jpg","54","6","Ns6,train","54","true","",""
"null","","html-keyboard-response","482","353384","0.0-123.0","","<img src=""img/animals/S6.jpg"" width=""540"" height = ""360"" style=""border:14px solid orange"">","null","","","","","",""
"null","","html-keyboard-response","483","353604","0.0-124.0","","","null","","","","","",""
"531","","image-keyboard-response","484","354135","0.0-125.0","","img/animals/S6.jpg","54","6","Ns6,train","54","true","",""
"null","","html-keyboard-response","485","354504","0.0-126.0","","<img src=""img/animals/S6.jpg"" width=""540"" height = ""360"" style=""border:14px solid orange"">","null","","","","","",""
"null","","html-keyboard-response","486","354724","0.0-127.0","","","null","","","","","",""
"1731","","image-keyboard-response","487","356455","0.0-128.0","","img/animals/S3.jpg","53","3","Ns6,train","51","false","",""
"null","","html-keyboard-response","488","356824","0.0-129.0","","<img src=""img/animals/S3.jpg"" width=""540"" height = ""360"">","null","","","","","",""
"null","","html-keyboard-response","489","357044","0.0-130.0","","","null","","","","","",""
"963","","image-keyboard-response","490","358008","0.0-131.0","","img/animals/S5.jpg","53","5","Ns6,train","53","true","",""
"null","","html-keyboard-response","491","358364","0.0-132.0","","<img src=""img/animals/S5.jpg"" width=""540"" height = ""360"" style=""border:14px solid orange"">","null","","","","","",""
"null","","html-keyboard-response","492","358583","0.0-133.0","","","null","","","","","",""
"479","","image-keyboard-response","493","359064","0.0-134.0","","img/animals/S4.jpg","52","4","Ns6,train","52","true","",""
"null","","html-keyboard-response","494","359433","0.0-135.0","","<img src=""img/animals/S4.jpg"" width=""540"" height = ""360"" style=""border:14px solid orange"">","null","","","","","",""
"null","","html-keyboard-response","495","359654","0.0-136.0","","","null","","","","","",""
"945","","image-keyboard-response","496","360599","0.0-137.0","","img/animals/S5.jpg","53","5","Ns6,train","53","true","",""
"null","","html-keyboard-response","497","360953","0.0-138.0","","<img src=""img/animals/S5.jpg"" width=""540"" height = ""360"" style=""border:14px solid orange"">","null","","","","","",""
"null","","html-keyboard-response","498","361173","0.0-139.0","","","null","","","","","",""
"562","","image-keyboard-response","499","361735","0.0-140.0","","img/animals/S4.jpg","52","4","Ns6,train","52","true","",""
"null","","html-keyboard-response","500","362093","0.0-141.0","","<img src=""img/animals/S4.jpg"" width=""540"" height = ""360"" style=""border:14px solid orange"">","null","","","","","",""
"null","","html-keyboard-response","501","362313","0.0-142.0","","","null","","","","","",""
"null","","image-keyboard-response","502","364833","0.0-143.0","","img/animals/S3.jpg","null","3","Ns6,train","51","false","",""
"null","","html-keyboard-response","503","365193","0.0-144.0","","<img src=""img/animals/S3.jpg"" width=""540"" height = ""360"">","null","","","","","",""
"null","","html-keyboard-response","504","365414","0.0-145.0","","","null","","","","","",""
"null","","image-keyboard-response","505","367933","0.0-146.0","","img/animals/S3.jpg","null","3","Ns6,train","51","false","",""
"null","","html-keyboard-response","506","368294","0.0-147.0","","<img src=""img/animals/S3.jpg"" width=""540"" height = ""360"">","null","","","","","",""
"null","","html-keyboard-response","507","368504","0.0-148.0","","","null","","","","","",""
"464","","image-keyboard-response","508","368968","0.0-149.0","","img/animals/S3.jpg","54","3","Ns6,train","51","false","",""
"null","","html-keyboard-response","509","369334","0.0-150.0","","<img src=""img/animals/S3.jpg"" width=""540"" height = ""360"">","null","","","","","",""
"null","","html-keyboard-response","510","369553","0.0-151.0","","","null","","","","","",""
"1349","","image-keyboard-response","511","370904","0.0-152.0","","img/animals/S1.jpg","54","1","Ns6,train","49","false","",""
"null","","html-keyboard-response","512","371273","0.0-153.0","","<img src=""img/animals/S1.jpg"" width=""540"" height = ""360"">","null","","","","","",""
"null","","html-keyboard-response","513","371493","0.0-154.0","","","null","","","","","",""
"2225","","image-keyboard-response","514","373719","0.0-155.0","","img/animals/S1.jpg","49","1","Ns6,train","49","true","",""
"null","","html-keyboard-response","515","374071","0.0-156.0","","<img src=""img/animals/S1.jpg"" width=""540"" height = ""360"" style=""border:14px solid orange"">","null","","","","","",""
"null","","html-keyboard-response","516","374293","0.0-157.0","","","null","","","","","",""
"578","","image-keyboard-response","517","374872","0.0-158.0","","img/animals/S1.jpg","49","1","Ns6,train","49","true","",""
"null","","html-keyboard-response","518","375233","0.0-159.0","","<img src=""img/animals/S1.jpg"" width=""540"" height = ""360"" style=""border:14px solid orange"">","null","","","","","",""
"null","","html-keyboard-response","519","375453","0.0-160.0","","","null","","","","","",""
"2073","","image-keyboard-response","520","377527","0.0-161.0","","img/animals/S3.jpg","51","3","Ns6,train","51","true","",""
"null","","html-keyboard-response","521","377894","0.0-162.0","","<img src=""img/animals/S3.jpg"" width=""540"" height = ""360"" style=""border:14px solid orange"">","null","","","","","",""
"null","","html-keyboard-response","522","378113","0.0-163.0","","","null","","","","","",""
"1190","","image-keyboard-response","523","379304","0.0-164.0","","img/animals/S1.jpg","49","1","Ns6,train","49","true","",""
"null","","html-keyboard-response","524","379663","0.0-165.0","","<img src=""img/animals/S1.jpg"" width=""540"" height = ""360"" style=""border:14px solid orange"">","null","","","","","",""
"null","","html-keyboard-response","525","379864","0.0-166.0","","","null","","","","","",""
"1103","","image-keyboard-response","526","380967","0.0-167.0","","img/animals/S3.jpg","54","3","Ns6,train","51","false","",""
"null","","html-keyboard-response","527","381334","0.0-168.0","","<img src=""img/animals/S3.jpg"" width=""540"" height = ""360"">","null","","","","","",""
"null","","html-keyboard-response","528","381553","0.0-169.0","","","null","","","","","",""
"502","","image-keyboard-response","529","382056","0.0-170.0","","img/animals/S3.jpg","51","3","Ns6,train","51","true","",""
"null","","html-keyboard-response","530","382413","0.0-171.0","","<img src=""img/animals/S3.jpg"" width=""540"" height = ""360"" style=""border:14px solid orange"">","null","","","","","",""
"null","","html-keyboard-response","531","382633","0.0-172.0","","","null","","","","","",""
"null","","image-keyboard-response","532","385143","0.0-173.0","","img/animals/S2.jpg","null","2","Ns6,train","50","false","",""
"null","","html-keyboard-response","533","385502","0.0-174.0","","<img src=""img/animals/S2.jpg"" width=""540"" height = ""360"">","null","","","","","",""
"null","","html-keyboard-response","534","385703","0.0-175.0","","","null","","","","","",""
"1088","","image-keyboard-response","535","386791","0.0-176.0","","img/animals/S5.jpg","53","5","Ns6,train","53","true","",""
"null","","html-keyboard-response","536","387143","0.0-177.0","","<img src=""img/animals/S5.jpg"" width=""540"" height = ""360"" style=""border:14px solid orange"">","null","","","","","",""
"null","","html-keyboard-response","537","387363","0.0-178.0","","","null","","","","","",""
"467","","image-keyboard-response","538","387831","0.0-179.0","","img/animals/S4.jpg","52","4","Ns6,train","52","true","",""
"null","","html-keyboard-response","539","388194","0.0-180.0","","<img src=""img/animals/S4.jpg"" width=""540"" height = ""360"" style=""border:14px solid orange"">","null","","","","","",""
"null","","html-keyboard-response","540","388413","0.0-181.0","","","null","","","","","",""
"null","","image-keyboard-response","541","390933","0.0-182.0","","img/animals/S2.jpg","null","2","Ns6,train","50","false","",""
"null","","html-keyboard-response","542","391292","0.0-183.0","","<img src=""img/animals/S2.jpg"" width=""540"" height = ""360"">","null","","","","","",""
"null","","html-keyboard-response","543","391493","0.0-184.0","","","null","","","","","",""
"641","","image-keyboard-response","544","392135","0.0-185.0","","img/animals/S2.jpg","54","2","Ns6,train","50","false","",""
"null","","html-keyboard-response","545","392493","0.0-186.0","","<img src=""img/animals/S2.jpg"" width=""540"" height = ""360"">","null","","","","","",""
"null","","html-keyboard-response","546","392703","0.0-187.0","","","null","","","","","",""
"1847","","image-keyboard-response","547","394552","0.0-188.0","","img/animals/S6.jpg","53","6","Ns6,train","54","false","",""
"null","","html-keyboard-response","548","394913","0.0-189.0","","<img src=""img/animals/S6.jpg"" width=""540"" height = ""360"">","null","","","","","",""
"null","","html-keyboard-response","549","395133","0.0-190.0","","","null","","","","","",""
"841","","image-keyboard-response","550","395975","0.0-191.0","","img/animals/S5.jpg","53","5","Ns6,train","53","true","",""
"null","","html-keyboard-response","551","396343","0.0-192.0","","<img src=""img/animals/S5.jpg"" width=""540"" height = ""360"" style=""border:14px solid orange"">","null","","","","","",""
"null","","html-keyboard-response","552","396553","0.0-193.0","","","null","","","","","",""
"398","","image-keyboard-response","553","396951","0.0-194.0","","img/animals/S4.jpg","52","4","Ns6,train","52","true","",""
"null","","html-keyboard-response","554","397303","0.0-195.0","","<img src=""img/animals/S4.jpg"" width=""540"" height = ""360"" style=""border:14px solid orange"">","null","","","","","",""
"null","","html-keyboard-response","555","397522","0.0-196.0","","","null","","","","","",""
"1219","","image-keyboard-response","556","398743","0.0-197.0","","img/animals/S3.jpg","49","3","Ns6,train","51","false","",""
"null","","html-keyboard-response","557","399113","0.0-198.0","","<img src=""img/animals/S3.jpg"" width=""540"" height = ""360"">","null","","","","","",""
"null","","html-keyboard-response","558","399332","0.0-199.0","","","null","","","","","",""
"2194","","image-keyboard-response","559","401527","0.0-200.0","","img/animals/S2.jpg","50","2","Ns6,train","50","true","",""
"null","","html-keyboard-response","560","401893","0.0-201.0","","<img src=""img/animals/S2.jpg"" width=""540"" height = ""360"" style=""border:14px solid orange"">","null","","","","","",""
"null","","html-keyboard-response","561","402113","0.0-202.0","","","null","","","","","",""
"550","","image-keyboard-response","562","402664","0.0-203.0","","img/animals/S2.jpg","50","2","Ns6,train","50","true","",""
"null","","html-keyboard-response","563","403031","0.0-204.0","","<img src=""img/animals/S2.jpg"" width=""540"" height = ""360"" style=""border:14px solid orange"">","null","","","","","",""
"null","","html-keyboard-response","564","403252","0.0-205.0","","","null","","","","","",""
"738","","image-keyboard-response","565","403991","0.0-206.0","","img/animals/S5.jpg","53","5","Ns6,train","53","true","",""
"null","","html-keyboard-response","566","404354","0.0-207.0","","<img src=""img/animals/S5.jpg"" width=""540"" height = ""360"" style=""border:14px solid orange"">","null","","","","","",""
"null","","html-keyboard-response","567","404573","0.0-208.0","","","null","","","","","",""
"426","","image-keyboard-response","568","404999","0.0-209.0","","img/animals/S4.jpg","52","4","Ns6,train","52","true","",""
"null","","html-keyboard-response","569","405353","0.0-210.0","","<img src=""img/animals/S4.jpg"" width=""540"" height = ""360"" style=""border:14px solid orange"">","null","","","","","",""
"null","","html-keyboard-response","570","405573","0.0-211.0","","","null","","","","","",""
"1585","","image-keyboard-response","571","407159","0.0-212.0","","img/animals/S1.jpg","54","1","Ns6,train","49","false","",""
"null","","html-keyboard-response","572","407528","0.0-213.0","","<img src=""img/animals/S1.jpg"" width=""540"" height = ""360"">","null","","","","","",""
"null","","html-keyboard-response","573","407743","0.0-214.0","","","null","","","","","",""
"null","","image-keyboard-response","574","410258","0.0-215.0","","img/animals/S2.jpg","null","2","Ns6,train","50","false","",""
"null","","html-keyboard-response","575","410623","0.0-216.0","","<img src=""img/animals/S2.jpg"" width=""540"" height = ""360"">","null","","","","","",""
"null","","html-keyboard-response","576","410843","0.0-217.0","","","null","","","","","",""
"1132","","image-keyboard-response","577","411975","0.0-218.0","","img/animals/S6.jpg","49","6","Ns6,train","54","false","",""
"null","","html-keyboard-response","578","412343","0.0-219.0","","<img src=""img/animals/S6.jpg"" width=""540"" height = ""360"">","null","","","","","",""
"null","","html-keyboard-response","579","412553","0.0-220.0","","","null","","","","","",""
"1630","","image-keyboard-response","580","414182","0.0-221.0","","img/animals/S1.jpg","49","1","Ns6,train","49","true","",""
"null","","html-keyboard-response","581","414537","0.0-222.0","","<img src=""img/animals/S1.jpg"" width=""540"" height = ""360"" style=""border:14px solid orange"">","null","","","","","",""
"null","","html-keyboard-response","582","414753","0.0-223.0","","","null","","","","","",""
"725","","image-keyboard-response","583","415479","0.0-224.0","","img/animals/S5.jpg","53","5","Ns6,train","53","true","",""
"null","","html-keyboard-response","584","415833","0.0-225.0","","<img src=""img/animals/S5.jpg"" width=""540"" height = ""360"" style=""border:14px solid orange"">","null","","","","","",""
"null","","html-keyboard-response","585","416053","0.0-226.0","","","null","","","","","",""
"401","","image-keyboard-response","586","416455","0.0-227.0","","img/animals/S4.jpg","52","4","Ns6,train","52","true","",""
"null","","html-keyboard-response","587","416813","0.0-228.0","","<img src=""img/animals/S4.jpg"" width=""540"" height = ""360"" style=""border:14px solid orange"">","null","","","","","",""
"null","","html-keyboard-response","588","417033","0.0-229.0","","","null","","","","","",""
"749","","image-keyboard-response","589","417783","0.0-230.0","","img/animals/S5.jpg","53","5","Ns6,train","53","true","",""
"null","","html-keyboard-response","590","418154","0.0-231.0","","<img src=""img/animals/S5.jpg"" width=""540"" height = ""360"" style=""border:14px solid orange"">","null","","","","","",""
"null","","html-keyboard-response","591","418372","0.0-232.0","","","null","","","","","",""
"464","","image-keyboard-response","592","418838","0.0-233.0","","img/animals/S4.jpg","52","4","Ns6,train","52","true","",""
"null","","html-keyboard-response","593","419194","0.0-234.0","","<img src=""img/animals/S4.jpg"" width=""540"" height = ""360"" style=""border:14px solid orange"">","null","","","","","",""
"null","","html-keyboard-response","594","419413","0.0-235.0","","","null","","","","","",""
"1377","","image-keyboard-response","595","420790","0.0-236.0","","img/animals/S2.jpg","54","2","Ns6,train","50","false","",""
"null","","html-keyboard-response","596","421153","0.0-237.0","","<img src=""img/animals/S2.jpg"" width=""540"" height = ""360"">","null","","","","","",""
"null","","html-keyboard-response","597","421368","0.0-238.0","","","null","","","","","",""
"719","","image-keyboard-response","598","422087","0.0-239.0","","img/animals/S5.jpg","53","5","Ns6,train","53","true","",""
"null","","html-keyboard-response","599","422453","0.0-240.0","","<img src=""img/animals/S5.jpg"" width=""540"" height = ""360"" style=""border:14px solid orange"">","null","","","","","",""
"null","","html-keyboard-response","600","422670","0.0-241.0","","","null","","","","","",""
"440","","image-keyboard-response","601","423110","0.0-242.0","","img/animals/S4.jpg","52","4","Ns6,train","52","true","",""
"null","","html-keyboard-response","602","423472","0.0-243.0","","<img src=""img/animals/S4.jpg"" width=""540"" height = ""360"" style=""border:14px solid orange"">","null","","","","","",""
"null","","html-keyboard-response","603","423694","0.0-244.0","","","null","","","","","",""
"null","","image-keyboard-response","604","426213","0.0-245.0","","img/animals/S3.jpg","null","3","Ns6,train","51","false","",""
"null","","html-keyboard-response","605","426572","0.0-246.0","","<img src=""img/animals/S3.jpg"" width=""540"" height = ""360"">","null","","","","","",""
"null","","html-keyboard-response","606","426793","0.0-247.0","","","null","","","","","",""
"846","","image-keyboard-response","607","427639","0.0-248.0","","img/animals/S5.jpg","53","5","Ns6,train","53","true","",""
"null","","html-keyboard-response","608","427993","0.0-249.0","","<img src=""img/animals/S5.jpg"" width=""540"" height = ""360"" style=""border:14px solid orange"">","null","","","","","",""
"null","","html-keyboard-response","609","428213","0.0-250.0","","","null","","","","","",""
"480","","image-keyboard-response","610","428694","0.0-251.0","","img/animals/S4.jpg","52","4","Ns6,train","52","true","",""
"null","","html-keyboard-response","611","429053","0.0-252.0","","<img src=""img/animals/S4.jpg"" width=""540"" height = ""360"" style=""border:14px solid orange"">","null","","","","","",""
"null","","html-keyboard-response","612","429263","0.0-253.0","","","null","","","","","",""
"1255","","image-keyboard-response","613","430518","0.0-254.0","","img/animals/S1.jpg","49","1","Ns6,train","49","true","",""
"null","","html-keyboard-response","614","430883","0.0-255.0","","<img src=""img/animals/S1.jpg"" width=""540"" height = ""360"" style=""border:14px solid orange"">","null","","","","","",""
"null","","html-keyboard-response","615","431103","0.0-256.0","","","null","","","","","",""
"1031","","image-keyboard-response","616","432134","0.0-257.0","","img/animals/S2.jpg","50","2","Ns6,train","50","true","",""
"null","","html-keyboard-response","617","432502","0.0-258.0","","<img src=""img/animals/S2.jpg"" width=""540"" height = ""360"" style=""border:14px solid orange"">","null","","","","","",""
"null","","html-keyboard-response","618","432722","0.0-259.0","","","null","","","","","",""
"1444","","image-keyboard-response","619","434167","0.0-260.0","","img/animals/S6.jpg","53","6","Ns6,train","54","false","",""
"null","","html-keyboard-response","620","434527","0.0-261.0","","<img src=""img/animals/S6.jpg"" width=""540"" height = ""360"">","null","","","","","",""
"null","","html-keyboard-response","621","434733","0.0-262.0","","","null","","","","","",""
"810","","image-keyboard-response","622","435542","0.0-263.0","","img/animals/S2.jpg","50","2","Ns6,train","50","true","",""
"null","","html-keyboard-response","623","435913","0.0-264.0","","<img src=""img/animals/S2.jpg"" width=""540"" height = ""360"" style=""border:14px solid orange"">","null","","","","","",""
"null","","html-keyboard-response","624","436132","0.0-265.0","","","null","","","","","",""
"1009","","image-keyboard-response","625","437143","0.0-266.0","","img/animals/S6.jpg","54","6","Ns6,train","54","true","",""
"null","","html-keyboard-response","626","437513","0.0-267.0","","<img src=""img/animals/S6.jpg"" width=""540"" height = ""360"" style=""border:14px solid orange"">","null","","","","","",""
"null","","html-keyboard-response","627","437723","0.0-268.0","","","null","","","","","",""
"860","","image-keyboard-response","628","438582","0.0-269.0","","img/animals/S2.jpg","50","2","Ns6,train","50","true","",""
"null","","html-keyboard-response","629","438952","0.0-270.0","","<img src=""img/animals/S2.jpg"" width=""540"" height = ""360"" style=""border:14px solid orange"">","null","","","","","",""
"null","","html-keyboard-response","630","439172","0.0-271.0","","","null","","","","","",""
"1041","","image-keyboard-response","631","440214","0.0-272.0","","img/animals/S1.jpg","49","1","Ns6,train","49","true","",""
"null","","html-keyboard-response","632","440582","0.0-273.0","","<img src=""img/animals/S1.jpg"" width=""540"" height = ""360"" style=""border:14px solid orange"">","null","","","","","",""
"null","","html-keyboard-response","633","440792","0.0-274.0","","","null","","","","","",""
"797","","image-keyboard-response","634","441590","0.0-275.0","","img/animals/S6.jpg","54","6","Ns6,train","54","true","",""
"null","","html-keyboard-response","635","441943","0.0-276.0","","<img src=""img/animals/S6.jpg"" width=""540"" height = ""360"" style=""border:14px solid orange"">","null","","","","","",""
"null","","html-keyboard-response","636","442163","0.0-277.0","","","null","","","","","",""
"580","","image-keyboard-response","637","442742","0.0-278.0","","img/animals/S6.jpg","54","6","Ns6,train","54","true","",""
"null","","html-keyboard-response","638","443113","0.0-279.0","","<img src=""img/animals/S6.jpg"" width=""540"" height = ""360"" style=""border:14px solid orange"">","null","","","","","",""
"null","","html-keyboard-response","639","443323","0.0-280.0","","","null","","","","","",""
"1450","","image-keyboard-response","640","444775","0.0-281.0","","img/animals/S3.jpg","49","3","Ns6,train","51","false","",""
"null","","html-keyboard-response","641","445142","0.0-282.0","","<img src=""img/animals/S3.jpg"" width=""540"" height = ""360"">","null","","","","","",""
"null","","html-keyboard-response","642","445362","0.0-283.0","","","null","","","","","",""
"1347","","image-keyboard-response","643","446710","0.0-284.0","","img/animals/S1.jpg","49","1","Ns6,train","49","true","",""
"null","","html-keyboard-response","644","447073","0.0-285.0","","<img src=""img/animals/S1.jpg"" width=""540"" height = ""360"" style=""border:14px solid orange"">","null","","","","","",""
"null","","html-keyboard-response","645","447292","0.0-286.0","","","null","","","","","",""
"1195","","image-keyboard-response","646","448486","0.0-287.0","","img/animals/S6.jpg","54","6","Ns6,train","54","true","",""
"null","","html-keyboard-response","647","448853","0.0-288.0","","<img src=""img/animals/S6.jpg"" width=""540"" height = ""360"" style=""border:14px solid orange"">","null","","","","","",""
"null","","html-keyboard-response","648","449072","0.0-289.0","","","null","","","","","",""
"887","","image-keyboard-response","649","449958","0.0-290.0","","img/animals/S1.jpg","49","1","Ns6,train","49","true","",""
"null","","html-keyboard-response","650","450313","0.0-291.0","","<img src=""img/animals/S1.jpg"" width=""540"" height = ""360"" style=""border:14px solid orange"">","null","","","","","",""
"null","","html-keyboard-response","651","450514","0.0-292.0","","","null","","","","","",""
"723","","image-keyboard-response","652","451238","0.0-293.0","","img/animals/S5.jpg","53","5","Ns6,train","53","true","",""
"null","","html-keyboard-response","653","451592","0.0-294.0","","<img src=""img/animals/S5.jpg"" width=""540"" height = ""360"" style=""border:14px solid orange"">","null","","","","","",""
"null","","html-keyboard-response","654","451812","0.0-295.0","","","null","","","","","",""
"465","","image-keyboard-response","655","452279","0.0-296.0","","img/animals/S4.jpg","52","4","Ns6,train","52","true","",""
"null","","html-keyboard-response","656","452642","0.0-297.0","","<img src=""img/animals/S4.jpg"" width=""540"" height = ""360"" style=""border:14px solid orange"">","null","","","","","",""
"null","","html-keyboard-response","657","452862","0.0-298.0","","","null","","","","","",""
"1639","","image-keyboard-response","658","454502","0.0-299.0","","img/animals/S3.jpg","50","3","Ns6,train","51","false","",""
"null","","html-keyboard-response","659","454863","0.0-300.0","","<img src=""img/animals/S3.jpg"" width=""540"" height = ""360"">","null","","","","","",""
"null","","html-keyboard-response","660","455083","0.0-301.0","","","null","","","","","",""
"1163","","image-keyboard-response","661","456247","0.0-302.0","","img/animals/S6.jpg","53","6","Ns6,train","54","false","",""
"null","","html-keyboard-response","662","456612","0.0-303.0","","<img src=""img/animals/S6.jpg"" width=""540"" height = ""360"">","null","","","","","",""
"null","","html-keyboard-response","663","456832","0.0-304.0","","","null","","","","","",""
"903","","image-keyboard-response","664","457735","0.0-305.0","","img/animals/S1.jpg","49","1","Ns6,train","49","true","",""
"null","","html-keyboard-response","665","458092","0.0-306.0","","<img src=""img/animals/S1.jpg"" width=""540"" height = ""360"" style=""border:14px solid orange"">","null","","","","","",""
"null","","html-keyboard-response","666","458292","0.0-307.0","","","null","","","","","",""
"null","","image-keyboard-response","667","460802","0.0-308.0","","img/animals/S3.jpg","null","3","Ns6,train","51","false","",""
"null","","html-keyboard-response","668","461172","0.0-309.0","","<img src=""img/animals/S3.jpg"" width=""540"" height = ""360"">","null","","","","","",""
"null","","html-keyboard-response","669","461393","0.0-310.0","","","null","","","","","",""
"1109","","image-keyboard-response","670","462502","0.0-311.0","","img/animals/S6.jpg","54","6","Ns6,train","54","true","",""
"null","","html-keyboard-response","671","462869","0.0-312.0","","<img src=""img/animals/S6.jpg"" width=""540"" height = ""360"" style=""border:14px solid orange"">","null","","","","","",""
"null","","html-keyboard-response","672","463092","0.0-313.0","","","null","","","","","",""
"1378","","image-keyboard-response","673","464470","0.0-314.0","","img/animals/S1.jpg","49","1","Ns6,train","49","true","",""
"null","","html-keyboard-response","674","464832","0.0-315.0","","<img src=""img/animals/S1.jpg"" width=""540"" height = ""360"" style=""border:14px solid orange"">","null","","","","","",""
"null","","html-keyboard-response","675","465053","0.0-316.0","","","null","","","","","",""
"null","","image-keyboard-response","676","467572","0.0-317.0","","img/animals/S3.jpg","null","3","Ns6,train","51","false","",""
"null","","html-keyboard-response","677","467932","0.0-318.0","","<img src=""img/animals/S3.jpg"" width=""540"" height = ""360"">","null","","","","","",""
"null","","html-keyboard-response","678","468147","0.0-319.0","","","null","","","","","",""
"915","","image-keyboard-response","679","469062","0.0-320.0","","img/animals/S6.jpg","54","6","Ns6,train","54","true","",""
"null","","html-keyboard-response","680","469432","0.0-321.0","","<img src=""img/animals/S6.jpg"" width=""540"" height = ""360"" style=""border:14px solid orange"">","null","","","","","",""
"null","","html-keyboard-response","681","469647","0.0-322.0","","","null","","","","","",""
"1942","","image-keyboard-response","682","471589","0.0-323.0","","img/animals/S2.jpg","50","2","Ns6,train","50","true","",""
"null","","html-keyboard-response","683","471942","0.0-324.0","","<img src=""img/animals/S2.jpg"" width=""540"" height = ""360"" style=""border:14px solid orange"">","null","","","","","",""
"null","","html-keyboard-response","684","472162","0.0-325.0","","","null","","","","","",""
"564","","image-keyboard-response","685","472726","0.0-326.0","","img/animals/S2.jpg","50","2","Ns6,train","50","true","",""
"null","","html-keyboard-response","686","473082","0.0-327.0","","<img src=""img/animals/S2.jpg"" width=""540"" height = ""360"" style=""border:14px solid orange"">","null","","","","","",""
"null","","html-keyboard-response","687","473302","0.0-328.0","","","null","","","","","",""
"1393","","image-keyboard-response","688","474694","0.0-329.0","","img/animals/S3.jpg","54","3","Ns6,train","51","false","",""
"null","","html-keyboard-response","689","475062","0.0-330.0","","<img src=""img/animals/S3.jpg"" width=""540"" height = ""360"">","null","","","","","",""
"null","","html-keyboard-response","690","475282","0.0-331.0","","","null","","","","","",""
"980","","image-keyboard-response","691","476262","0.0-332.0","","img/animals/S6.jpg","54","6","Ns6,train","54","true","",""
"null","","html-keyboard-response","692","476622","0.0-333.0","","<img src=""img/animals/S6.jpg"" width=""540"" height = ""360"" style=""border:14px solid orange"">","null","","","","","",""
"null","","html-keyboard-response","693","476842","0.0-334.0","","","null","","","","","",""
"508","","image-keyboard-response","694","477350","0.0-335.0","","img/animals/S6.jpg","54","6","Ns6,train","54","true","",""
"null","","html-keyboard-response","695","477722","0.0-336.0","","<img src=""img/animals/S6.jpg"" width=""540"" height = ""360"" style=""border:14px solid orange"">","null","","","","","",""
"null","","html-keyboard-response","696","477926","0.0-337.0","","","null","","","","","",""
"null","","image-keyboard-response","697","480432","0.0-338.0","","img/animals/S2.jpg","null","2","Ns6,train","50","false","",""
"null","","html-keyboard-response","698","480792","0.0-339.0","","<img src=""img/animals/S2.jpg"" width=""540"" height = ""360"">","null","","","","","",""
"null","","html-keyboard-response","699","481001","0.0-340.0","","","null","","","","","",""
"1211","","image-keyboard-response","700","482214","0.0-341.0","","img/animals/S2.jpg","50","2","Ns6,train","50","true","",""
"null","","html-keyboard-response","701","482571","0.0-342.0","","<img src=""img/animals/S2.jpg"" width=""540"" height = ""360"" style=""border:14px solid orange"">","null","","","","","",""
"null","","html-keyboard-response","702","482792","0.0-343.0","","","null","","","","","",""
"926","","image-keyboard-response","703","483718","0.0-344.0","","img/animals/S1.jpg","49","1","Ns6,train","49","true","",""
"null","","html-keyboard-response","704","484082","0.0-345.0","","<img src=""img/animals/S1.jpg"" width=""540"" height = ""360"" style=""border:14px solid orange"">","null","","","","","",""
"null","","html-keyboard-response","705","484301","0.0-346.0","","","null","","","","","",""
"632","","image-keyboard-response","706","484934","0.0-347.0","","img/animals/S1.jpg","49","1","Ns6,train","49","true","",""
"null","","html-keyboard-response","707","485301","0.0-348.0","","<img src=""img/animals/S1.jpg"" width=""540"" height = ""360"" style=""border:14px solid orange"">","null","","","","","",""
"null","","html-keyboard-response","708","485516","0.0-349.0","","","null","","","","","",""
"697","","image-keyboard-response","709","486214","0.0-350.0","","img/animals/S5.jpg","53","5","Ns6,train","53","true","",""
"null","","html-keyboard-response","710","486572","0.0-351.0","","<img src=""img/animals/S5.jpg"" width=""540"" height = ""360"" style=""border:14px solid orange"">","null","","","","","",""
"null","","html-keyboard-response","711","486791","0.0-352.0","","","null","","","","","",""
"477","","image-keyboard-response","712","487270","0.0-353.0","","img/animals/S4.jpg","52","4","Ns6,train","52","true","",""
"null","","html-keyboard-response","713","487632","0.0-354.0","","<img src=""img/animals/S4.jpg"" width=""540"" height = ""360"" style=""border:14px solid orange"">","null","","","","","",""
"null","","html-keyboard-response","714","487852","0.0-355.0","","","null","","","","","",""
"1129","","image-keyboard-response","715","488982","0.0-356.0","","img/animals/S6.jpg","54","6","Ns6,train","54","true","",""
"null","","html-keyboard-response","716","489352","0.0-357.0","","<img src=""img/animals/S6.jpg"" width=""540"" height = ""360"" style=""border:14px solid orange"">","null","","","","","",""
"null","","html-keyboard-response","717","489572","0.0-358.0","","","null","","","","","",""
"784","","image-keyboard-response","718","490358","0.0-359.0","","img/animals/S1.jpg","49","1","Ns6,train","49","true","",""
"null","","html-keyboard-response","719","490712","0.0-360.0","","<img src=""img/animals/S1.jpg"" width=""540"" height = ""360"" style=""border:14px solid orange"">","null","","","","","",""
"null","","html-keyboard-response","720","490932","0.0-361.0","","","null","","","","","",""
"560","","image-keyboard-response","721","491493","0.0-362.0","","img/animals/S1.jpg","49","1","Ns6,train","49","true","",""
"null","","html-keyboard-response","722","491851","0.0-363.0","","<img src=""img/animals/S1.jpg"" width=""540"" height = ""360"" style=""border:14px solid orange"">","null","","","","","",""
"null","","html-keyboard-response","723","492072","0.0-364.0","","","null","","","","","",""
"26126","","html-keyboard-response","724","518197","0.0-365.0","","<p class=""center-content"">You have completed a block! </p><p class=""center-content"">Press any key on the keyboard to continue to the next block,</p><p class=""center-content"">or wait for the automatic progression to the next block after one minute.</p>","53","","","","","",""
"735","","image-keyboard-response","725","518933","0.0-366.0","","img/animals/S1.jpg","49","1","Ns6,perform","49","true","",""
"null","","html-keyboard-response","726","519291","0.0-367.0","","<img src=""img/animals/S1.jpg"" width=""540"" height = ""360"" style=""border:14px solid orange"">","null","","","","","",""
"null","","html-keyboard-response","727","519511","0.0-368.0","","","null","","","","","",""
"670","","image-keyboard-response","728","520182","0.0-369.0","","img/animals/S5.jpg","53","5","Ns6,perform","53","true","",""
"null","","html-keyboard-response","729","520541","0.0-370.0","","<img src=""img/animals/S5.jpg"" width=""540"" height = ""360"" style=""border:14px solid orange"">","null","","","","","",""
"null","","html-keyboard-response","730","520762","0.0-371.0","","","null","","","","","",""
"411","","image-keyboard-response","731","521173","0.0-372.0","","img/animals/S4.jpg","52","4","Ns6,perform","52","true","",""
"null","","html-keyboard-response","732","521536","0.0-373.0","","<img src=""img/animals/S4.jpg"" width=""540"" height = ""360"" style=""border:14px solid orange"">","null","","","","","",""
"null","","html-keyboard-response","733","521751","0.0-374.0","","","null","","","","","",""
"924","","image-keyboard-response","734","522677","0.0-375.0","","img/animals/S2.jpg","54","2","Ns6,perform","50","false","",""
"null","","html-keyboard-response","735","523041","0.0-376.0","","<img src=""img/animals/S2.jpg"" width=""540"" height = ""360"">","null","","","","","",""
"null","","html-keyboard-response","736","523261","0.0-377.0","","","null","","","","","",""
"1080","","image-keyboard-response","737","524342","0.0-378.0","","img/animals/S5.jpg","53","5","Ns6,perform","53","true","",""
