"rt","url","trial_type","trial_index","time_elapsed","internal_node_id","view_history","stimulus","key_press","state","test_part","correct_response","correct","bonus","responses"
"19597.5","consent.html","external-html","0","19669","0.0-0.0","","","","","","","","",""
"50662.5","","instructions","1","70335","0.0-1.0","[{""page_index"":0,""viewing_time"":3729.699999988079},{""page_index"":1,""viewing_time"":8834.199999988079},{""page_index"":2,""viewing_time"":5910.400000035763},{""page_index"":3,""viewing_time"":8338.199999988079},{""page_index"":4,""viewing_time"":8270},{""page_index"":5,""viewing_time"":3935},{""page_index"":6,""viewing_time"":7253.899999976158},{""page_index"":7,""viewing_time"":4390.100000023842}]","","","","","","","",""
"829.8000000119209","","image-keyboard-response","2","71170","0.0-2.0-0.0","","img/nature/control/S2.jpg","49","2","Ns4,baseline","50","false","",""
"null","","html-keyboard-response","3","71484","0.0-2.0-1.0","","<img src=""img/nature/control/S2.jpg"" width=""540"" height = ""360"">","null","","","","","",""
"null","","html-keyboard-response","4","71700","0.0-2.0-2.0","","","null","","","","","",""
"725.5","","image-keyboard-response","5","72429","0.0-2.0-0.1","","img/nature/control/S1.jpg","49","1","Ns4,baseline","49","true","",""
"null","","html-keyboard-response","6","72740","0.0-2.0-1.1","","<img src=""img/nature/control/S1.jpg"" width=""540"" height = ""360"" style=""border:14px solid orange"">","null","","","","","",""
"null","","html-keyboard-response","7","72956","0.0-2.0-2.1","","","null","","","","","",""
"590","","image-keyboard-response","8","73550","0.0-2.0-0.2","","img/nature/control/S4.jpg","50","4","Ns4,baseline","52","false","",""
"null","","html-keyboard-response","9","73862","0.0-2.0-1.2","","<img src=""img/nature/control/S4.jpg"" width=""540"" height = ""360"">","null","","","","","",""
"null","","html-keyboard-response","10","74070","0.0-2.0-2.2","","","null","","","","","",""
"735","","image-keyboard-response","11","74807","0.0-2.0-0.3","","img/nature/control/S3.jpg","50","3","Ns4,baseline","51","false","",""
"null","","html-keyboard-response","12","75120","0.0-2.0-1.3","","<img src=""img/nature/control/S3.jpg"" width=""540"" height = ""360"">","null","","","","","",""
"null","","html-keyboard-response","13","75336","0.0-2.0-2.3","","","null","","","","","",""
"890.5999999642372","","image-keyboard-response","14","76229","0.0-2.0-0.4","","img/nature/control/S2.jpg","49","2","Ns4,baseline","50","false","",""
"null","","html-keyboard-response","15","76539","0.0-2.0-1.4","","<img src=""img/nature/control/S2.jpg"" width=""540"" height = ""360"">","null","","","","","",""
"null","","html-keyboard-response","16","76755","0.0-2.0-2.4","","","null","","","","","",""
"811.1000000238419","","image-keyboard-response","17","77568","0.0-2.0-0.5","","img/nature/control/S4.jpg","50","4","Ns4,baseline","52","false","",""
"null","","html-keyboard-response","18","77881","0.0-2.0-1.5","","<img src=""img/nature/control/S4.jpg"" width=""540"" height = ""360"">","null","","","","","",""
"null","","html-keyboard-response","19","78097","0.0-2.0-2.5","","","null","","","","","",""
"683.4000000357628","","image-keyboard-response","20","78782","0.0-2.0-0.6","","img/nature/control/S1.jpg","51","1","Ns4,baseline","49","false","",""
"null","","html-keyboard-response","21","79086","0.0-2.0-1.6","","<img src=""img/nature/control/S1.jpg"" width=""540"" height = ""360"">","null","","","","","",""
"null","","html-keyboard-response","22","79290","0.0-2.0-2.6","","","null","","","","","",""
"608.3000000119209","","image-keyboard-response","23","79900","0.0-2.0-0.7","","img/nature/control/S3.jpg","52","3","Ns4,baseline","51","false","",""
"null","","html-keyboard-response","24","80212","0.0-2.0-1.7","","<img src=""img/nature/control/S3.jpg"" width=""540"" height = ""360"">","null","","","","","",""
"null","","html-keyboard-response","25","80415","0.0-2.0-2.7","","","null","","","","","",""
"979.8999999761581","","image-keyboard-response","26","81397","0.0-2.0-0.8","","img/nature/control/S4.jpg","51","4","Ns4,baseline","52","false","",""
"null","","html-keyboard-response","27","81705","0.0-2.0-1.8","","<img src=""img/nature/control/S4.jpg"" width=""540"" height = ""360"">","null","","","","","",""
"null","","html-keyboard-response","28","81921","0.0-2.0-2.8","","","null","","","","","",""
"740.6999999880791","","image-keyboard-response","29","82663","0.0-2.0-0.9","","img/nature/control/S1.jpg","52","1","Ns4,baseline","49","false","",""
"null","","html-keyboard-response","30","82975","0.0-2.0-1.9","","<img src=""img/nature/control/S1.jpg"" width=""540"" height = ""360"">","null","","","","","",""
"null","","html-keyboard-response","31","83192","0.0-2.0-2.9","","","null","","","","","",""
"951.5","","image-keyboard-response","32","84145","0.0-2.0-0.10","","img/nature/control/S3.jpg","50","3","Ns4,baseline","51","false","",""
"null","","html-keyboard-response","33","84448","0.0-2.0-1.10","","<img src=""img/nature/control/S3.jpg"" width=""540"" height = ""360"">","null","","","","","",""
"null","","html-keyboard-response","34","84655","0.0-2.0-2.10","","","null","","","","","",""
"922.8000000119209","","image-keyboard-response","35","85580","0.0-2.0-0.11","","img/nature/control/S2.jpg","49","2","Ns4,baseline","50","false","",""
"null","","html-keyboard-response","36","85891","0.0-2.0-1.11","","<img src=""img/nature/control/S2.jpg"" width=""540"" height = ""360"">","null","","","","","",""
"null","","html-keyboard-response","37","86114","0.0-2.0-2.11","","","null","","","","","",""
"508.39999997615814","","image-keyboard-response","38","86624","0.0-2.0-0.12","","img/nature/control/S3.jpg","49","3","Ns4,baseline","51","false","",""
"null","","html-keyboard-response","39","86933","0.0-2.0-1.12","","<img src=""img/nature/control/S3.jpg"" width=""540"" height = ""360"">","null","","","","","",""
"null","","html-keyboard-response","40","87149","0.0-2.0-2.12","","","null","","","","","",""
"440.39999997615814","","image-keyboard-response","41","87591","0.0-2.0-0.13","","img/nature/control/S4.jpg","49","4","Ns4,baseline","52","false","",""
"null","","html-keyboard-response","42","87903","0.0-2.0-1.13","","<img src=""img/nature/control/S4.jpg"" width=""540"" height = ""360"">","null","","","","","",""
"null","","html-keyboard-response","43","88108","0.0-2.0-2.13","","","null","","","","","",""
"452.5","","image-keyboard-response","44","88562","0.0-2.0-0.14","","img/nature/control/S1.jpg","49","1","Ns4,baseline","49","true","",""
"null","","html-keyboard-response","45","88878","0.0-2.0-1.14","","<img src=""img/nature/control/S1.jpg"" width=""540"" height = ""360"" style=""border:14px solid orange"">","null","","","","","",""
"null","","html-keyboard-response","46","89093","0.0-2.0-2.14","","","null","","","","","",""
"739.1000000238419","","image-keyboard-response","47","89834","0.0-2.0-0.15","","img/nature/control/S2.jpg","51","2","Ns4,baseline","50","false","",""
"null","","html-keyboard-response","48","90152","0.0-2.0-1.15","","<img src=""img/nature/control/S2.jpg"" width=""540"" height = ""360"">","null","","","","","",""
"null","","html-keyboard-response","49","90367","0.0-2.0-2.15","","","null","","","","","",""
"821.1999999880791","","image-keyboard-response","50","91190","0.0-2.0-0.16","","img/nature/control/S2.jpg","52","2","Ns4,baseline","50","false","",""
"null","","html-keyboard-response","51","91501","0.0-2.0-1.16","","<img src=""img/nature/control/S2.jpg"" width=""540"" height = ""360"">","null","","","","","",""
"null","","html-keyboard-response","52","91706","0.0-2.0-2.16","","","null","","","","","",""
"974.5","","image-keyboard-response","53","92683","0.0-2.0-0.17","","img/nature/control/S1.jpg","49","1","Ns4,baseline","49","true","",""
"null","","html-keyboard-response","54","92999","0.0-2.0-1.17","","<img src=""img/nature/control/S1.jpg"" width=""540"" height = ""360"" style=""border:14px solid orange"">","null","","","","","",""
"null","","html-keyboard-response","55","93215","0.0-2.0-2.17","","","null","","","","","",""
"1086.4000000357628","","image-keyboard-response","56","94303","0.0-2.0-0.18","","img/nature/control/S4.jpg","52","4","Ns4,baseline","52","true","",""
"null","","html-keyboard-response","57","94618","0.0-2.0-1.18","","<img src=""img/nature/control/S4.jpg"" width=""540"" height = ""360"" style=""border:14px solid orange"">","null","","","","","",""
"null","","html-keyboard-response","58","94834","0.0-2.0-2.18","","","null","","","","","",""
"877.1999999880791","","image-keyboard-response","59","95713","0.0-2.0-0.19","","img/nature/control/S3.jpg","51","3","Ns4,baseline","51","true","",""
"null","","html-keyboard-response","60","96027","0.0-2.0-1.19","","<img src=""img/nature/control/S3.jpg"" width=""540"" height = ""360"" style=""border:14px solid orange"">","null","","","","","",""
"null","","html-keyboard-response","61","96243","0.0-2.0-2.19","","","null","","","","","",""
"546.4000000357628","","image-keyboard-response","62","96791","0.0-2.0-0.20","","img/nature/control/S3.jpg","51","3","Ns4,baseline","51","true","",""
"null","","html-keyboard-response","63","97102","0.0-2.0-1.20","","<img src=""img/nature/control/S3.jpg"" width=""540"" height = ""360"" style=""border:14px solid orange"">","null","","","","","",""
"null","","html-keyboard-response","64","97318","0.0-2.0-2.20","","","null","","","","","",""
"806.3999999761581","","image-keyboard-response","65","98126","0.0-2.0-0.21","","img/nature/control/S2.jpg","49","2","Ns4,baseline","50","false","",""
"null","","html-keyboard-response","66","98437","0.0-2.0-1.21","","<img src=""img/nature/control/S2.jpg"" width=""540"" height = ""360"">","null","","","","","",""
"null","","html-keyboard-response","67","98652","0.0-2.0-2.21","","","null","","","","","",""
"878.5","","image-keyboard-response","68","99533","0.0-2.0-0.22","","img/nature/control/S1.jpg","49","1","Ns4,baseline","49","true","",""
"null","","html-keyboard-response","69","99845","0.0-2.0-1.22","","<img src=""img/nature/control/S1.jpg"" width=""540"" height = ""360"" style=""border:14px solid orange"">","null","","","","","",""
"null","","html-keyboard-response","70","100061","0.0-2.0-2.22","","","null","","","","","",""
"1044.3999999761581","","image-keyboard-response","71","101108","0.0-2.0-0.23","","img/nature/control/S4.jpg","50","4","Ns4,baseline","52","false","",""
"null","","html-keyboard-response","72","101421","0.0-2.0-1.23","","<img src=""img/nature/control/S4.jpg"" width=""540"" height = ""360"">","null","","","","","",""
"null","","html-keyboard-response","73","101637","0.0-2.0-2.23","","","null","","","","","",""
"911.5","","image-keyboard-response","74","102550","0.0-2.0-0.24","","img/nature/control/S3.jpg","51","3","Ns4,baseline","51","true","",""
"null","","html-keyboard-response","75","102867","0.0-2.0-1.24","","<img src=""img/nature/control/S3.jpg"" width=""540"" height = ""360"" style=""border:14px solid orange"">","null","","","","","",""
"null","","html-keyboard-response","76","103083","0.0-2.0-2.24","","","null","","","","","",""
"1116.199999988079","","image-keyboard-response","77","104201","0.0-2.0-0.25","","img/nature/control/S2.jpg","49","2","Ns4,baseline","50","false","",""
"null","","html-keyboard-response","78","104512","0.0-2.0-1.25","","<img src=""img/nature/control/S2.jpg"" width=""540"" height = ""360"">","null","","","","","",""
"null","","html-keyboard-response","79","104716","0.0-2.0-2.25","","","null","","","","","",""
"1108.9000000357628","","image-keyboard-response","80","105827","0.0-2.0-0.26","","img/nature/control/S1.jpg","52","1","Ns4,baseline","49","false","",""
"null","","html-keyboard-response","81","106136","0.0-2.0-1.26","","<img src=""img/nature/control/S1.jpg"" width=""540"" height = ""360"">","null","","","","","",""
"null","","html-keyboard-response","82","106339","0.0-2.0-2.26","","","null","","","","","",""
"1012.2999999523163","","image-keyboard-response","83","107353","0.0-2.0-0.27","","img/nature/control/S4.jpg","52","4","Ns4,baseline","52","true","",""
"null","","html-keyboard-response","84","107668","0.0-2.0-1.27","","<img src=""img/nature/control/S4.jpg"" width=""540"" height = ""360"" style=""border:14px solid orange"">","null","","","","","",""
"null","","html-keyboard-response","85","107871","0.0-2.0-2.27","","","null","","","","","",""
"519","","image-keyboard-response","86","108392","0.0-2.0-0.28","","img/nature/control/S4.jpg","52","4","Ns4,baseline","52","true","",""
"null","","html-keyboard-response","87","108698","0.0-2.0-1.28","","<img src=""img/nature/control/S4.jpg"" width=""540"" height = ""360"" style=""border:14px solid orange"">","null","","","","","",""
"null","","html-keyboard-response","88","108915","0.0-2.0-2.28","","","null","","","","","",""
"887.5999999642372","","image-keyboard-response","89","109804","0.0-2.0-0.29","","img/nature/control/S2.jpg","51","2","Ns4,baseline","50","false","",""
"null","","html-keyboard-response","90","110119","0.0-2.0-1.29","","<img src=""img/nature/control/S2.jpg"" width=""540"" height = ""360"">","null","","","","","",""
"null","","html-keyboard-response","91","110338","0.0-2.0-2.29","","","null","","","","","",""
"744.1999999880791","","image-keyboard-response","92","111085","0.0-2.0-0.30","","img/nature/control/S1.jpg","49","1","Ns4,baseline","49","true","",""
"null","","html-keyboard-response","93","111386","0.0-2.0-1.30","","<img src=""img/nature/control/S1.jpg"" width=""540"" height = ""360"" style=""border:14px solid orange"">","null","","","","","",""
"null","","html-keyboard-response","94","111594","0.0-2.0-2.30","","","null","","","","","",""
"900.3000000119209","","image-keyboard-response","95","112496","0.0-2.0-0.31","","img/nature/control/S3.jpg","51","3","Ns4,baseline","51","true","",""
"null","","html-keyboard-response","96","112800","0.0-2.0-1.31","","<img src=""img/nature/control/S3.jpg"" width=""540"" height = ""360"" style=""border:14px solid orange"">","null","","","","","",""
"null","","html-keyboard-response","97","113005","0.0-2.0-2.31","","","null","","","","","",""
"910.8999999761581","","image-keyboard-response","98","113917","0.0-2.0-0.32","","img/nature/control/S1.jpg","49","1","Ns4,baseline","49","true","",""
"null","","html-keyboard-response","99","114233","0.0-2.0-1.32","","<img src=""img/nature/control/S1.jpg"" width=""540"" height = ""360"" style=""border:14px solid orange"">","null","","","","","",""
"null","","html-keyboard-response","100","114438","0.0-2.0-2.32","","","null","","","","","",""
"750.3000000119209","","image-keyboard-response","101","115190","0.0-2.0-0.33","","img/nature/control/S3.jpg","50","3","Ns4,baseline","51","false","",""
"null","","html-keyboard-response","102","115498","0.0-2.0-1.33","","<img src=""img/nature/control/S3.jpg"" width=""540"" height = ""360"">","null","","","","","",""
"null","","html-keyboard-response","103","115714","0.0-2.0-2.33","","","null","","","","","",""
"1050.5999999642372","","image-keyboard-response","104","116768","0.0-2.0-0.34","","img/nature/control/S4.jpg","52","4","Ns4,baseline","52","true","",""
"null","","html-keyboard-response","105","117071","0.0-2.0-1.34","","<img src=""img/nature/control/S4.jpg"" width=""540"" height = ""360"" style=""border:14px solid orange"">","null","","","","","",""
"null","","html-keyboard-response","106","117274","0.0-2.0-2.34","","","null","","","","","",""
"765.9000000357628","","image-keyboard-response","107","118041","0.0-2.0-0.35","","img/nature/control/S2.jpg","51","2","Ns4,baseline","50","false","",""
"null","","html-keyboard-response","108","118348","0.0-2.0-1.35","","<img src=""img/nature/control/S2.jpg"" width=""540"" height = ""360"">","null","","","","","",""
"null","","html-keyboard-response","109","118565","0.0-2.0-2.35","","","null","","","","","",""
"891.3000000119209","","image-keyboard-response","110","119458","0.0-2.0-0.36","","img/nature/control/S1.jpg","49","1","Ns4,baseline","49","true","",""
"null","","html-keyboard-response","111","119772","0.0-2.0-1.36","","<img src=""img/nature/control/S1.jpg"" width=""540"" height = ""360"" style=""border:14px solid orange"">","null","","","","","",""
"null","","html-keyboard-response","112","119987","0.0-2.0-2.36","","","null","","","","","",""
"677.3000000119209","","image-keyboard-response","113","120667","0.0-2.0-0.37","","img/nature/control/S2.jpg","50","2","Ns4,baseline","50","true","",""
"null","","html-keyboard-response","114","120970","0.0-2.0-1.37","","<img src=""img/nature/control/S2.jpg"" width=""540"" height = ""360"" style=""border:14px solid orange"">","null","","","","","",""
"null","","html-keyboard-response","115","121175","0.0-2.0-2.37","","","null","","","","","",""
"696.2000000476837","","image-keyboard-response","116","121874","0.0-2.0-0.38","","img/nature/control/S4.jpg","52","4","Ns4,baseline","52","true","",""
"null","","html-keyboard-response","117","122177","0.0-2.0-1.38","","<img src=""img/nature/control/S4.jpg"" width=""540"" height = ""360"" style=""border:14px solid orange"">","null","","","","","",""
"null","","html-keyboard-response","118","122393","0.0-2.0-2.38","","","null","","","","","",""
"704.1999999880791","","image-keyboard-response","119","123099","0.0-2.0-0.39","","img/nature/control/S3.jpg","51","3","Ns4,baseline","51","true","",""
"null","","html-keyboard-response","120","123403","0.0-2.0-1.39","","<img src=""img/nature/control/S3.jpg"" width=""540"" height = ""360"" style=""border:14px solid orange"">","null","","","","","",""
"null","","html-keyboard-response","121","123615","0.0-2.0-2.39","","","null","","","","","",""
"653.8000000119209","","image-keyboard-response","122","124270","0.0-2.0-0.40","","img/nature/control/S1.jpg","49","1","Ns4,baseline","49","true","",""
"null","","html-keyboard-response","123","124582","0.0-2.0-1.40","","<img src=""img/nature/control/S1.jpg"" width=""540"" height = ""360"" style=""border:14px solid orange"">","null","","","","","",""
"null","","html-keyboard-response","124","124798","0.0-2.0-2.40","","","null","","","","","",""
"676.0999999642372","","image-keyboard-response","125","125476","0.0-2.0-0.41","","img/nature/control/S4.jpg","52","4","Ns4,baseline","52","true","",""
"null","","html-keyboard-response","126","125786","0.0-2.0-1.41","","<img src=""img/nature/control/S4.jpg"" width=""540"" height = ""360"" style=""border:14px solid orange"">","null","","","","","",""
"null","","html-keyboard-response","127","126001","0.0-2.0-2.41","","","null","","","","","",""
"580.1999999880791","","image-keyboard-response","128","126584","0.0-2.0-0.42","","img/nature/control/S2.jpg","50","2","Ns4,baseline","50","true","",""
"null","","html-keyboard-response","129","126899","0.0-2.0-1.42","","<img src=""img/nature/control/S2.jpg"" width=""540"" height = ""360"" style=""border:14px solid orange"">","null","","","","","",""
"null","","html-keyboard-response","130","127115","0.0-2.0-2.42","","","null","","","","","",""
"591.5","","image-keyboard-response","131","127708","0.0-2.0-0.43","","img/nature/control/S3.jpg","51","3","Ns4,baseline","51","true","",""
"null","","html-keyboard-response","132","128016","0.0-2.0-1.43","","<img src=""img/nature/control/S3.jpg"" width=""540"" height = ""360"" style=""border:14px solid orange"">","null","","","","","",""
"null","","html-keyboard-response","133","128232","0.0-2.0-2.43","","","null","","","","","",""
"525.8000000119209","","image-keyboard-response","134","128759","0.0-2.0-0.44","","img/nature/control/S3.jpg","51","3","Ns4,baseline","51","true","",""
"null","","html-keyboard-response","135","129071","0.0-2.0-1.44","","<img src=""img/nature/control/S3.jpg"" width=""540"" height = ""360"" style=""border:14px solid orange"">","null","","","","","",""
"null","","html-keyboard-response","136","129273","0.0-2.0-2.44","","","null","","","","","",""
"560.1999999880791","","image-keyboard-response","137","129835","0.0-2.0-0.45","","img/nature/control/S4.jpg","52","4","Ns4,baseline","52","true","",""
"null","","html-keyboard-response","138","130144","0.0-2.0-1.45","","<img src=""img/nature/control/S4.jpg"" width=""540"" height = ""360"" style=""border:14px solid orange"">","null","","","","","",""
"null","","html-keyboard-response","139","130346","0.0-2.0-2.45","","","null","","","","","",""
"669.8000000119209","","image-keyboard-response","140","131018","0.0-2.0-0.46","","img/nature/control/S1.jpg","49","1","Ns4,baseline","49","true","",""
"null","","html-keyboard-response","141","131335","0.0-2.0-1.46","","<img src=""img/nature/control/S1.jpg"" width=""540"" height = ""360"" style=""border:14px solid orange"">","null","","","","","",""
"null","","html-keyboard-response","142","131551","0.0-2.0-2.46","","","null","","","","","",""
"980.5","","image-keyboard-response","143","132533","0.0-2.0-0.47","","img/nature/control/S2.jpg","50","2","Ns4,baseline","50","true","",""
"null","","html-keyboard-response","144","132850","0.0-2.0-1.47","","<img src=""img/nature/control/S2.jpg"" width=""540"" height = ""360"" style=""border:14px solid orange"">","null","","","","","",""
"null","","html-keyboard-response","145","133058","0.0-2.0-2.47","","","null","","","","","",""
"412.80000001192093","","image-keyboard-response","146","133472","0.0-2.0-0.48","","img/nature/control/S2.jpg","50","2","Ns4,baseline","50","true","",""
"null","","html-keyboard-response","147","133790","0.0-2.0-1.48","","<img src=""img/nature/control/S2.jpg"" width=""540"" height = ""360"" style=""border:14px solid orange"">","null","","","","","",""
"null","","html-keyboard-response","148","133993","0.0-2.0-2.48","","","null","","","","","",""
"638.3999999761581","","image-keyboard-response","149","134633","0.0-2.0-0.49","","img/nature/control/S3.jpg","51","3","Ns4,baseline","51","true","",""
"null","","html-keyboard-response","150","134951","0.0-2.0-1.49","","<img src=""img/nature/control/S3.jpg"" width=""540"" height = ""360"" style=""border:14px solid orange"">","null","","","","","",""
"null","","html-keyboard-response","151","135167","0.0-2.0-2.49","","","null","","","","","",""
"611.4000000357628","","image-keyboard-response","152","135780","0.0-2.0-0.50","","img/nature/control/S1.jpg","49","1","Ns4,baseline","49","true","",""
"null","","html-keyboard-response","153","136087","0.0-2.0-1.50","","<img src=""img/nature/control/S1.jpg"" width=""540"" height = ""360"" style=""border:14px solid orange"">","null","","","","","",""
"null","","html-keyboard-response","154","136301","0.0-2.0-2.50","","","null","","","","","",""
"667.3000000119209","","image-keyboard-response","155","136969","0.0-2.0-0.51","","img/nature/control/S4.jpg","52","4","Ns4,baseline","52","true","",""
"null","","html-keyboard-response","156","137283","0.0-2.0-1.51","","<img src=""img/nature/control/S4.jpg"" width=""540"" height = ""360"" style=""border:14px solid orange"">","null","","","","","",""
"null","","html-keyboard-response","157","137489","0.0-2.0-2.51","","","null","","","","","",""
"439.80000001192093","","image-keyboard-response","158","137930","0.0-2.0-0.52","","img/nature/control/S4.jpg","52","4","Ns4,baseline","52","true","",""
"null","","html-keyboard-response","159","138240","0.0-2.0-1.52","","<img src=""img/nature/control/S4.jpg"" width=""540"" height = ""360"" style=""border:14px solid orange"">","null","","","","","",""
"null","","html-keyboard-response","160","138456","0.0-2.0-2.52","","","null","","","","","",""
"829.3000000119209","","image-keyboard-response","161","139288","0.0-2.0-0.53","","img/nature/control/S3.jpg","51","3","Ns4,baseline","51","true","",""
"null","","html-keyboard-response","162","139596","0.0-2.0-1.53","","<img src=""img/nature/control/S3.jpg"" width=""540"" height = ""360"" style=""border:14px solid orange"">","null","","","","","",""
"null","","html-keyboard-response","163","139802","0.0-2.0-2.53","","","null","","","","","",""
"561.8999999761581","","image-keyboard-response","164","140365","0.0-2.0-0.54","","img/nature/control/S2.jpg","50","2","Ns4,baseline","50","true","",""
"null","","html-keyboard-response","165","140677","0.0-2.0-1.54","","<img src=""img/nature/control/S2.jpg"" width=""540"" height = ""360"" style=""border:14px solid orange"">","null","","","","","",""
"null","","html-keyboard-response","166","140893","0.0-2.0-2.54","","","null","","","","","",""
"537.6000000238419","","image-keyboard-response","167","141432","0.0-2.0-0.55","","img/nature/control/S1.jpg","49","1","Ns4,baseline","49","true","",""
"null","","html-keyboard-response","168","141735","0.0-2.0-1.55","","<img src=""img/nature/control/S1.jpg"" width=""540"" height = ""360"" style=""border:14px solid orange"">","null","","","","","",""
"null","","html-keyboard-response","169","141940","0.0-2.0-2.55","","","null","","","","","",""
"723","","image-keyboard-response","170","142665","0.0-2.0-0.56","","img/nature/control/S2.jpg","51","2","Ns4,baseline","50","false","",""
"null","","html-keyboard-response","171","142970","0.0-2.0-1.56","","<img src=""img/nature/control/S2.jpg"" width=""540"" height = ""360"">","null","","","","","",""
"null","","html-keyboard-response","172","143187","0.0-2.0-2.56","","","null","","","","","",""
"614.2000000476837","","image-keyboard-response","173","143803","0.0-2.0-0.57","","img/nature/control/S4.jpg","52","4","Ns4,baseline","52","true","",""
"null","","html-keyboard-response","174","144117","0.0-2.0-1.57","","<img src=""img/nature/control/S4.jpg"" width=""540"" height = ""360"" style=""border:14px solid orange"">","null","","","","","",""
"null","","html-keyboard-response","175","144334","0.0-2.0-2.57","","","null","","","","","",""
"623.3999999761581","","image-keyboard-response","176","144959","0.0-2.0-0.58","","img/nature/control/S3.jpg","51","3","Ns4,baseline","51","true","",""
"null","","html-keyboard-response","177","145273","0.0-2.0-1.58","","<img src=""img/nature/control/S3.jpg"" width=""540"" height = ""360"" style=""border:14px solid orange"">","null","","","","","",""
"null","","html-keyboard-response","178","145485","0.0-2.0-2.58","","","null","","","","","",""
"638.6999999880791","","image-keyboard-response","179","146125","0.0-2.0-0.59","","img/nature/control/S1.jpg","49","1","Ns4,baseline","49","true","",""
"null","","html-keyboard-response","180","146435","0.0-2.0-1.59","","<img src=""img/nature/control/S1.jpg"" width=""540"" height = ""360"" style=""border:14px solid orange"">","null","","","","","",""
"null","","html-keyboard-response","181","146651","0.0-2.0-2.59","","","null","","","","","",""
"566.8000000119209","","image-keyboard-response","182","147220","0.0-2.0-0.60","","img/nature/control/S4.jpg","52","4","Ns4,baseline","52","true","",""
"null","","html-keyboard-response","183","147523","0.0-2.0-1.60","","<img src=""img/nature/control/S4.jpg"" width=""540"" height = ""360"" style=""border:14px solid orange"">","null","","","","","",""
"null","","html-keyboard-response","184","147740","0.0-2.0-2.60","","","null","","","","","",""
"738","","image-keyboard-response","185","148480","0.0-2.0-0.61","","img/nature/control/S3.jpg","51","3","Ns4,baseline","51","true","",""
"null","","html-keyboard-response","186","148789","0.0-2.0-1.61","","<img src=""img/nature/control/S3.jpg"" width=""540"" height = ""360"" style=""border:14px solid orange"">","null","","","","","",""
"null","","html-keyboard-response","187","148993","0.0-2.0-2.61","","","null","","","","","",""
"428.80000001192093","","image-keyboard-response","188","149424","0.0-2.0-0.62","","img/nature/control/S2.jpg","50","2","Ns4,baseline","50","true","",""
"null","","html-keyboard-response","189","149726","0.0-2.0-1.62","","<img src=""img/nature/control/S2.jpg"" width=""540"" height = ""360"" style=""border:14px solid orange"">","null","","","","","",""
"null","","html-keyboard-response","190","149949","0.0-2.0-2.62","","","null","","","","","",""
"660.4000000357628","","image-keyboard-response","191","150611","0.0-2.0-0.63","","img/nature/control/S1.jpg","49","1","Ns4,baseline","49","true","",""
"null","","html-keyboard-response","192","150915","0.0-2.0-1.63","","<img src=""img/nature/control/S1.jpg"" width=""540"" height = ""360"" style=""border:14px solid orange"">","null","","","","","",""
"null","","html-keyboard-response","193","151127","0.0-2.0-2.63","","","null","","","","","",""
"652.3999999761581","","image-keyboard-response","194","151781","0.0-2.0-0.64","","img/nature/control/S4.jpg","52","4","Ns4,baseline","52","true","",""
"null","","html-keyboard-response","195","152091","0.0-2.0-1.64","","<img src=""img/nature/control/S4.jpg"" width=""540"" height = ""360"" style=""border:14px solid orange"">","null","","","","","",""
"null","","html-keyboard-response","196","152306","0.0-2.0-2.64","","","null","","","","","",""
"784.0999999642372","","image-keyboard-response","197","153092","0.0-2.0-0.65","","img/nature/control/S3.jpg","51","3","Ns4,baseline","51","true","",""
"null","","html-keyboard-response","198","153409","0.0-2.0-1.65","","<img src=""img/nature/control/S3.jpg"" width=""540"" height = ""360"" style=""border:14px solid orange"">","null","","","","","",""
"null","","html-keyboard-response","199","153624","0.0-2.0-2.65","","","null","","","","","",""
"649.5","","image-keyboard-response","200","154276","0.0-2.0-0.66","","img/nature/control/S1.jpg","49","1","Ns4,baseline","49","true","",""
"null","","html-keyboard-response","201","154587","0.0-2.0-1.66","","<img src=""img/nature/control/S1.jpg"" width=""540"" height = ""360"" style=""border:14px solid orange"">","null","","","","","",""
"null","","html-keyboard-response","202","154804","0.0-2.0-2.66","","","null","","","","","",""
"773.8999999761581","","image-keyboard-response","203","155579","0.0-2.0-0.67","","img/nature/control/S2.jpg","50","2","Ns4,baseline","50","true","",""
"null","","html-keyboard-response","204","155890","0.0-2.0-1.67","","<img src=""img/nature/control/S2.jpg"" width=""540"" height = ""360"" style=""border:14px solid orange"">","null","","","","","",""
"null","","html-keyboard-response","205","156106","0.0-2.0-2.67","","","null","","","","","",""
"529.1000000238419","","image-keyboard-response","206","156637","0.0-2.0-0.68","","img/nature/control/S4.jpg","52","4","Ns4,baseline","52","true","",""
"null","","html-keyboard-response","207","156942","0.0-2.0-1.68","","<img src=""img/nature/control/S4.jpg"" width=""540"" height = ""360"" style=""border:14px solid orange"">","null","","","","","",""
"null","","html-keyboard-response","208","157153","0.0-2.0-2.68","","","null","","","","","",""
"521","","image-keyboard-response","209","157676","0.0-2.0-0.69","","img/nature/control/S3.jpg","52","3","Ns4,baseline","51","false","",""
"null","","html-keyboard-response","210","157979","0.0-2.0-1.69","","<img src=""img/nature/control/S3.jpg"" width=""540"" height = ""360"">","null","","","","","",""
"null","","html-keyboard-response","211","158190","0.0-2.0-2.69","","","null","","","","","",""
"580.5999999642372","","image-keyboard-response","212","158772","0.0-2.0-0.70","","img/nature/control/S2.jpg","50","2","Ns4,baseline","50","true","",""
"null","","html-keyboard-response","213","159077","0.0-2.0-1.70","","<img src=""img/nature/control/S2.jpg"" width=""540"" height = ""360"" style=""border:14px solid orange"">","null","","","","","",""
"null","","html-keyboard-response","214","159292","0.0-2.0-2.70","","","null","","","","","",""
"548.8000000119209","","image-keyboard-response","215","159842","0.0-2.0-0.71","","img/nature/control/S1.jpg","49","1","Ns4,baseline","49","true","",""
"null","","html-keyboard-response","216","160156","0.0-2.0-1.71","","<img src=""img/nature/control/S1.jpg"" width=""540"" height = ""360"" style=""border:14px solid orange"">","null","","","","","",""
"null","","html-keyboard-response","217","160371","0.0-2.0-2.71","","","null","","","","","",""
"635.4000000357628","","image-keyboard-response","218","161008","0.0-2.0-0.72","","img/nature/control/S4.jpg","52","4","Ns4,baseline","52","true","",""
"null","","html-keyboard-response","219","161320","0.0-2.0-1.72","","<img src=""img/nature/control/S4.jpg"" width=""540"" height = ""360"" style=""border:14px solid orange"">","null","","","","","",""
"null","","html-keyboard-response","220","161542","0.0-2.0-2.72","","","null","","","","","",""
"535.5","","image-keyboard-response","221","162080","0.0-2.0-0.73","","img/nature/control/S3.jpg","51","3","Ns4,baseline","51","true","",""
"null","","html-keyboard-response","222","162394","0.0-2.0-1.73","","<img src=""img/nature/control/S3.jpg"" width=""540"" height = ""360"" style=""border:14px solid orange"">","null","","","","","",""
"null","","html-keyboard-response","223","162610","0.0-2.0-2.73","","","null","","","","","",""
"579.9000000357628","","image-keyboard-response","224","163192","0.0-2.0-0.74","","img/nature/control/S1.jpg","49","1","Ns4,baseline","49","true","",""
"null","","html-keyboard-response","225","163505","0.0-2.0-1.74","","<img src=""img/nature/control/S1.jpg"" width=""540"" height = ""360"" style=""border:14px solid orange"">","null","","","","","",""
"null","","html-keyboard-response","226","163709","0.0-2.0-2.74","","","null","","","","","",""
"640","","image-keyboard-response","227","164351","0.0-2.0-0.75","","img/nature/control/S2.jpg","50","2","Ns4,baseline","50","true","",""
"null","","html-keyboard-response","228","164662","0.0-2.0-1.75","","<img src=""img/nature/control/S2.jpg"" width=""540"" height = ""360"" style=""border:14px solid orange"">","null","","","","","",""
"null","","html-keyboard-response","229","164867","0.0-2.0-2.75","","","null","","","","","",""
"534.5999999642372","","image-keyboard-response","230","165403","0.0-2.0-0.76","","img/nature/control/S4.jpg","52","4","Ns4,baseline","52","true","",""
"null","","html-keyboard-response","231","165719","0.0-2.0-1.76","","<img src=""img/nature/control/S4.jpg"" width=""540"" height = ""360"" style=""border:14px solid orange"">","null","","","","","",""
"null","","html-keyboard-response","232","165934","0.0-2.0-2.76","","","null","","","","","",""
"818.4000000357628","","image-keyboard-response","233","166755","0.0-2.0-0.77","","img/nature/control/S1.jpg","49","1","Ns4,baseline","49","true","",""
"null","","html-keyboard-response","234","167058","0.0-2.0-1.77","","<img src=""img/nature/control/S1.jpg"" width=""540"" height = ""360"" style=""border:14px solid orange"">","null","","","","","",""
"null","","html-keyboard-response","235","167262","0.0-2.0-2.77","","","null","","","","","",""
"672.5","","image-keyboard-response","236","167936","0.0-2.0-0.78","","img/nature/control/S2.jpg","50","2","Ns4,baseline","50","true","",""
"null","","html-keyboard-response","237","168243","0.0-2.0-1.78","","<img src=""img/nature/control/S2.jpg"" width=""540"" height = ""360"" style=""border:14px solid orange"">","null","","","","","",""
"null","","html-keyboard-response","238","168454","0.0-2.0-2.78","","","null","","","","","",""
"498.5999999642372","","image-keyboard-response","239","168955","0.0-2.0-0.79","","img/nature/control/S3.jpg","51","3","Ns4,baseline","51","true","",""
"null","","html-keyboard-response","240","169271","0.0-2.0-1.79","","<img src=""img/nature/control/S3.jpg"" width=""540"" height = ""360"" style=""border:14px solid orange"">","null","","","","","",""
"null","","html-keyboard-response","241","169482","0.0-2.0-2.79","","","null","","","","","",""
"7055.600000023842","","instructions","242","176539","0.0-3.0","[{""page_index"":0,""viewing_time"":7055.400000035763}]","","","","","","","",""
"3973.800000011921","","instructions","243","180508","0.0-4.0","[{""page_index"":0,""viewing_time"":3973.400000035763}]","","","","","","","",""
"582.1999999880791","","image-keyboard-response","244","181092","0.0-5.0","","img/nature/S4.jpg","49","4","Ns4,train","52","false","",""
"null","","html-keyboard-response","245","181454","0.0-6.0","","<img src=""img/nature/S4.jpg"" width=""540"" height = ""360"">","null","","","","","",""
"null","","html-keyboard-response","246","181676","0.0-7.0","","","null","","","","","",""
"653","","image-keyboard-response","247","182331","0.0-8.0","","img/nature/S3.jpg","49","3","Ns4,train","51","false","",""
"null","","html-keyboard-response","248","182689","0.0-9.0","","<img src=""img/nature/S3.jpg"" width=""540"" height = ""360"">","null","","","","","",""
"null","","html-keyboard-response","249","182904","0.0-10.0","","","null","","","","","",""
"1007.5","","image-keyboard-response","250","183913","0.0-11.0","","img/nature/S4.jpg","50","4","Ns4,train","52","false","",""
"null","","html-keyboard-response","251","184266","0.0-12.0","","<img src=""img/nature/S4.jpg"" width=""540"" height = ""360"">","null","","","","","",""
"null","","html-keyboard-response","252","184478","0.0-13.0","","","null","","","","","",""
"867.2999999523163","","image-keyboard-response","253","185347","0.0-14.0","","img/nature/S3.jpg","50","3","Ns4,train","51","false","",""
"null","","html-keyboard-response","254","185705","0.0-15.0","","<img src=""img/nature/S3.jpg"" width=""540"" height = ""360"">","null","","","","","",""
"null","","html-keyboard-response","255","185921","0.0-16.0","","","null","","","","","",""
"629.7000000476837","","image-keyboard-response","256","186553","0.0-17.0","","img/nature/S3.jpg","51","3","Ns4,train","51","true","",""
"null","","html-keyboard-response","257","186911","0.0-18.0","","<img src=""img/nature/S3.jpg"" width=""540"" height = ""360"" style=""border:14px solid orange"">","null","","","","","",""
"null","","html-keyboard-response","258","187127","0.0-19.0","","","null","","","","","",""
"976.2999999523163","","image-keyboard-response","259","188105","0.0-20.0","","img/nature/S4.jpg","52","4","Ns4,train","52","true","",""
"null","","html-keyboard-response","260","188461","0.0-21.0","","<img src=""img/nature/S4.jpg"" width=""540"" height = ""360"" style=""border:14px solid orange"">","null","","","","","",""
"null","","html-keyboard-response","261","188664","0.0-22.0","","","null","","","","","",""
"515.8000000119209","","image-keyboard-response","262","189183","0.0-23.0","","img/nature/S3.jpg","51","3","Ns4,train","51","true","",""
"null","","html-keyboard-response","263","189538","0.0-24.0","","<img src=""img/nature/S3.jpg"" width=""540"" height = ""360"" style=""border:14px solid orange"">","null","","","","","",""
"null","","html-keyboard-response","264","189755","0.0-25.0","","","null","","","","","",""
"887.4000000357628","","image-keyboard-response","265","190644","0.0-26.0","","img/nature/S2.jpg","50","2","Ns4,train","50","true","",""
"null","","html-keyboard-response","266","191008","0.0-27.0","","<img src=""img/nature/S2.jpg"" width=""540"" height = ""360"" style=""border:14px solid orange"">","null","","","","","",""
"null","","html-keyboard-response","267","191230","0.0-28.0","","","null","","","","","",""
"795.2999999523163","","image-keyboard-response","268","192028","0.0-29.0","","img/nature/S1.jpg","49","1","Ns4,train","49","true","",""
"null","","html-keyboard-response","269","192383","0.0-30.0","","<img src=""img/nature/S1.jpg"" width=""540"" height = ""360"" style=""border:14px solid orange"">","null","","","","","",""
"null","","html-keyboard-response","270","192586","0.0-31.0","","","null","","","","","",""
"654.8999999761581","","image-keyboard-response","271","193243","0.0-32.0","","img/nature/S2.jpg","50","2","Ns4,train","50","true","",""
"null","","html-keyboard-response","272","193604","0.0-33.0","","<img src=""img/nature/S2.jpg"" width=""540"" height = ""360"" style=""border:14px solid orange"">","null","","","","","",""
"null","","html-keyboard-response","273","193809","0.0-34.0","","","null","","","","","",""
"816.5","","image-keyboard-response","274","194627","0.0-35.0","","img/nature/S1.jpg","49","1","Ns4,train","49","true","",""
"null","","html-keyboard-response","275","194983","0.0-36.0","","<img src=""img/nature/S1.jpg"" width=""540"" height = ""360"" style=""border:14px solid orange"">","null","","","","","",""
"null","","html-keyboard-response","276","195187","0.0-37.0","","","null","","","","","",""
"642.8000000119209","","image-keyboard-response","277","195831","0.0-38.0","","img/nature/S3.jpg","51","3","Ns4,train","51","true","",""
"null","","html-keyboard-response","278","196187","0.0-39.0","","<img src=""img/nature/S3.jpg"" width=""540"" height = ""360"" style=""border:14px solid orange"">","null","","","","","",""
"null","","html-keyboard-response","279","196404","0.0-40.0","","","null","","","","","",""
"498.4000000357628","","image-keyboard-response","280","196905","0.0-41.0","","img/nature/S4.jpg","52","4","Ns4,train","52","true","",""
"null","","html-keyboard-response","281","197265","0.0-42.0","","<img src=""img/nature/S4.jpg"" width=""540"" height = ""360"" style=""border:14px solid orange"">","null","","","","","",""
"null","","html-keyboard-response","282","197481","0.0-43.0","","","null","","","","","",""
"651.6000000238419","","image-keyboard-response","283","198134","0.0-44.0","","img/nature/S2.jpg","50","2","Ns4,train","50","true","",""
"null","","html-keyboard-response","284","198499","0.0-45.0","","<img src=""img/nature/S2.jpg"" width=""540"" height = ""360"" style=""border:14px solid orange"">","null","","","","","",""
"null","","html-keyboard-response","285","198715","0.0-46.0","","","null","","","","","",""
"914.8000000119209","","image-keyboard-response","286","199632","0.0-47.0","","img/nature/S1.jpg","51","1","Ns4,train","49","false","",""
"null","","html-keyboard-response","287","199989","0.0-48.0","","<img src=""img/nature/S1.jpg"" width=""540"" height = ""360"">","null","","","","","",""
"null","","html-keyboard-response","288","200205","0.0-49.0","","","null","","","","","",""
"763.7000000476837","","image-keyboard-response","289","200970","0.0-50.0","","img/nature/S2.jpg","50","2","Ns4,train","50","true","",""
"null","","html-keyboard-response","290","201323","0.0-51.0","","<img src=""img/nature/S2.jpg"" width=""540"" height = ""360"" style=""border:14px solid orange"">","null","","","","","",""
"null","","html-keyboard-response","291","201526","0.0-52.0","","","null","","","","","",""
"920","","image-keyboard-response","292","202448","0.0-53.0","","img/nature/S1.jpg","49","1","Ns4,train","49","true","",""
"null","","html-keyboard-response","293","202806","0.0-54.0","","<img src=""img/nature/S1.jpg"" width=""540"" height = ""360"" style=""border:14px solid orange"">","null","","","","","",""
"null","","html-keyboard-response","294","203022","0.0-55.0","","","null","","","","","",""
"636.5","","image-keyboard-response","295","203660","0.0-56.0","","img/nature/S3.jpg","51","3","Ns4,train","51","true","",""
"null","","html-keyboard-response","296","204024","0.0-57.0","","<img src=""img/nature/S3.jpg"" width=""540"" height = ""360"" style=""border:14px solid orange"">","null","","","","","",""
"null","","html-keyboard-response","297","204234","0.0-58.0","","","null","","","","","",""
"606.5","","image-keyboard-response","298","204843","0.0-59.0","","img/nature/S2.jpg","52","2","Ns4,train","50","false","",""
"null","","html-keyboard-response","299","205197","0.0-60.0","","<img src=""img/nature/S2.jpg"" width=""540"" height = ""360"">","null","","","","","",""
"null","","html-keyboard-response","300","205400","0.0-61.0","","","null","","","","","",""
"827.0999999642372","","image-keyboard-response","301","206229","0.0-62.0","","img/nature/S1.jpg","52","1","Ns4,train","49","false","",""
"null","","html-keyboard-response","302","206590","0.0-63.0","","<img src=""img/nature/S1.jpg"" width=""540"" height = ""360"">","null","","","","","",""
"null","","html-keyboard-response","303","206795","0.0-64.0","","","null","","","","","",""
"634.5","","image-keyboard-response","304","207431","0.0-65.0","","img/nature/S4.jpg","52","4","Ns4,train","52","true","",""
"null","","html-keyboard-response","305","207786","0.0-66.0","","<img src=""img/nature/S4.jpg"" width=""540"" height = ""360"" style=""border:14px solid orange"">","null","","","","","",""
"null","","html-keyboard-response","306","208001","0.0-67.0","","","null","","","","","",""
"851","","image-keyboard-response","307","208854","0.0-68.0","","img/nature/S3.jpg","50","3","Ns4,train","51","false","",""
"null","","html-keyboard-response","308","209219","0.0-69.0","","<img src=""img/nature/S3.jpg"" width=""540"" height = ""360"">","null","","","","","",""
"null","","html-keyboard-response","309","209425","0.0-70.0","","","null","","","","","",""
"633.3999999761581","","image-keyboard-response","310","210060","0.0-71.0","","img/nature/S3.jpg","51","3","Ns4,train","51","true","",""
"null","","html-keyboard-response","311","210416","0.0-72.0","","<img src=""img/nature/S3.jpg"" width=""540"" height = ""360"" style=""border:14px solid orange"">","null","","","","","",""
"null","","html-keyboard-response","312","210619","0.0-73.0","","","null","","","","","",""
"615.1000000238419","","image-keyboard-response","313","211236","0.0-74.0","","img/nature/S4.jpg","52","4","Ns4,train","52","true","",""
"null","","html-keyboard-response","314","211599","0.0-75.0","","<img src=""img/nature/S4.jpg"" width=""540"" height = ""360"" style=""border:14px solid orange"">","null","","","","","",""
"null","","html-keyboard-response","315","211814","0.0-76.0","","","null","","","","","",""
"673.6999999880791","","image-keyboard-response","316","212490","0.0-77.0","","img/nature/S2.jpg","49","2","Ns4,train","50","false","",""
"null","","html-keyboard-response","317","212847","0.0-78.0","","<img src=""img/nature/S2.jpg"" width=""540"" height = ""360"">","null","","","","","",""
"null","","html-keyboard-response","318","213060","0.0-79.0","","","null","","","","","",""
"910.5","","image-keyboard-response","319","213973","0.0-80.0","","img/nature/S1.jpg","50","1","Ns4,train","49","false","",""
"null","","html-keyboard-response","320","214337","0.0-81.0","","<img src=""img/nature/S1.jpg"" width=""540"" height = ""360"">","null","","","","","",""
"null","","html-keyboard-response","321","214540","0.0-82.0","","","null","","","","","",""
"732.6000000238419","","image-keyboard-response","322","215274","0.0-83.0","","img/nature/S4.jpg","52","4","Ns4,train","52","true","",""
"null","","html-keyboard-response","323","215630","0.0-84.0","","<img src=""img/nature/S4.jpg"" width=""540"" height = ""360"" style=""border:14px solid orange"">","null","","","","","",""
"null","","html-keyboard-response","324","215844","0.0-85.0","","","null","","","","","",""
"656.8000000119209","","image-keyboard-response","325","216502","0.0-86.0","","img/nature/S3.jpg","50","3","Ns4,train","51","false","",""
"null","","html-keyboard-response","326","216865","0.0-87.0","","<img src=""img/nature/S3.jpg"" width=""540"" height = ""360"">","null","","","","","",""
"null","","html-keyboard-response","327","217069","0.0-88.0","","","null","","","","","",""
"642.7000000476837","","image-keyboard-response","328","217714","0.0-89.0","","img/nature/S4.jpg","52","4","Ns4,train","52","true","",""
"null","","html-keyboard-response","329","218075","0.0-90.0","","<img src=""img/nature/S4.jpg"" width=""540"" height = ""360"" style=""border:14px solid orange"">","null","","","","","",""
"null","","html-keyboard-response","330","218278","0.0-91.0","","","null","","","","","",""
"665.2000000476837","","image-keyboard-response","331","218945","0.0-92.0","","img/nature/S2.jpg","49","2","Ns4,train","50","false","",""
"null","","html-keyboard-response","332","219301","0.0-93.0","","<img src=""img/nature/S2.jpg"" width=""540"" height = ""360"">","null","","","","","",""
"null","","html-keyboard-response","333","219524","0.0-94.0","","","null","","","","","",""
"1097.699999988079","","image-keyboard-response","334","220624","0.0-95.0","","img/nature/S1.jpg","49","1","Ns4,train","49","true","",""
"null","","html-keyboard-response","335","220983","0.0-96.0","","<img src=""img/nature/S1.jpg"" width=""540"" height = ""360"" style=""border:14px solid orange"">","null","","","","","",""
"null","","html-keyboard-response","336","221199","0.0-97.0","","","null","","","","","",""
"412.69999998807907","","image-keyboard-response","337","221614","0.0-98.0","","img/nature/S2.jpg","50","2","Ns4,train","50","true","",""
"null","","html-keyboard-response","338","221979","0.0-99.0","","<img src=""img/nature/S2.jpg"" width=""540"" height = ""360"" style=""border:14px solid orange"">","null","","","","","",""
"null","","html-keyboard-response","339","222195","0.0-100.0","","","null","","","","","",""
"822.6999999880791","","image-keyboard-response","340","223019","0.0-101.0","","img/nature/S1.jpg","51","1","Ns4,train","49","false","",""
"null","","html-keyboard-response","341","223380","0.0-102.0","","<img src=""img/nature/S1.jpg"" width=""540"" height = ""360"">","null","","","","","",""
"null","","html-keyboard-response","342","223596","0.0-103.0","","","null","","","","","",""
"998.1999999880791","","image-keyboard-response","343","224595","0.0-104.0","","img/nature/S3.jpg","51","3","Ns4,train","51","true","",""
"null","","html-keyboard-response","344","224961","0.0-105.0","","<img src=""img/nature/S3.jpg"" width=""540"" height = ""360"" style=""border:14px solid orange"">","null","","","","","",""
"null","","html-keyboard-response","345","225167","0.0-106.0","","","null","","","","","",""
"484.60000002384186","","image-keyboard-response","346","225653","0.0-107.0","","img/nature/S4.jpg","52","4","Ns4,train","52","true","",""
"null","","html-keyboard-response","347","226018","0.0-108.0","","<img src=""img/nature/S4.jpg"" width=""540"" height = ""360"" style=""border:14px solid orange"">","null","","","","","",""
"null","","html-keyboard-response","348","226234","0.0-109.0","","","null","","","","","",""
"540.3000000119209","","image-keyboard-response","349","226776","0.0-110.0","","img/nature/S4.jpg","52","4","Ns4,train","52","true","",""
"null","","html-keyboard-response","350","227136","0.0-111.0","","<img src=""img/nature/S4.jpg"" width=""540"" height = ""360"" style=""border:14px solid orange"">","null","","","","","",""
"null","","html-keyboard-response","351","227341","0.0-112.0","","","null","","","","","",""
"774.6000000238419","","image-keyboard-response","352","228117","0.0-113.0","","img/nature/S2.jpg","49","2","Ns4,train","50","false","",""
"null","","html-keyboard-response","353","228480","0.0-114.0","","<img src=""img/nature/S2.jpg"" width=""540"" height = ""360"">","null","","","","","",""
"null","","html-keyboard-response","354","228702","0.0-115.0","","","null","","","","","",""
"651.0999999642372","","image-keyboard-response","355","229356","0.0-116.0","","img/nature/S1.jpg","49","1","Ns4,train","49","true","",""
"null","","html-keyboard-response","356","229721","0.0-117.0","","<img src=""img/nature/S1.jpg"" width=""540"" height = ""360"" style=""border:14px solid orange"">","null","","","","","",""
"null","","html-keyboard-response","357","229937","0.0-118.0","","","null","","","","","",""
"655.6000000238419","","image-keyboard-response","358","230594","0.0-119.0","","img/nature/S4.jpg","52","4","Ns4,train","52","true","",""
"null","","html-keyboard-response","359","230954","0.0-120.0","","<img src=""img/nature/S4.jpg"" width=""540"" height = ""360"" style=""border:14px solid orange"">","null","","","","","",""
"null","","html-keyboard-response","360","231161","0.0-121.0","","","null","","","","","",""
"714.8000000119209","","image-keyboard-response","361","231878","0.0-122.0","","img/nature/S3.jpg","51","3","Ns4,train","51","true","",""
"null","","html-keyboard-response","362","232240","0.0-123.0","","<img src=""img/nature/S3.jpg"" width=""540"" height = ""360"" style=""border:14px solid orange"">","null","","","","","",""
"null","","html-keyboard-response","363","232456","0.0-124.0","","","null","","","","","",""
"526.3000000119209","","image-keyboard-response","364","232984","0.0-125.0","","img/nature/S4.jpg","52","4","Ns4,train","52","true","",""
"null","","html-keyboard-response","365","233342","0.0-126.0","","<img src=""img/nature/S4.jpg"" width=""540"" height = ""360"" style=""border:14px solid orange"">","null","","","","","",""
"null","","html-keyboard-response","366","233550","0.0-127.0","","","null","","","","","",""
"521.6000000238419","","image-keyboard-response","367","234073","0.0-128.0","","img/nature/S4.jpg","52","4","Ns4,train","52","true","",""
"null","","html-keyboard-response","368","234431","0.0-129.0","","<img src=""img/nature/S4.jpg"" width=""540"" height = ""360"" style=""border:14px solid orange"">","null","","","","","",""
"null","","html-keyboard-response","369","234636","0.0-130.0","","","null","","","","","",""
"506.39999997615814","","image-keyboard-response","370","235144","0.0-131.0","","img/nature/S3.jpg","51","3","Ns4,train","51","true","",""
"null","","html-keyboard-response","371","235501","0.0-132.0","","<img src=""img/nature/S3.jpg"" width=""540"" height = ""360"" style=""border:14px solid orange"">","null","","","","","",""
"null","","html-keyboard-response","372","235703","0.0-133.0","","","null","","","","","",""
"684.3999999761581","","image-keyboard-response","373","236390","0.0-134.0","","img/nature/S2.jpg","49","2","Ns4,train","50","false","",""
"null","","html-keyboard-response","374","236750","0.0-135.0","","<img src=""img/nature/S2.jpg"" width=""540"" height = ""360"">","null","","","","","",""
"null","","html-keyboard-response","375","236951","0.0-136.0","","","null","","","","","",""
"555.5","","image-keyboard-response","376","237509","0.0-137.0","","img/nature/S1.jpg","49","1","Ns4,train","49","true","",""
"null","","html-keyboard-response","377","237873","0.0-138.0","","<img src=""img/nature/S1.jpg"" width=""540"" height = ""360"" style=""border:14px solid orange"">","null","","","","","",""
"null","","html-keyboard-response","378","238077","0.0-139.0","","","null","","","","","",""
"640.0999999642372","","image-keyboard-response","379","238719","0.0-140.0","","img/nature/S3.jpg","51","3","Ns4,train","51","true","",""
"null","","html-keyboard-response","380","239082","0.0-141.0","","<img src=""img/nature/S3.jpg"" width=""540"" height = ""360"" style=""border:14px solid orange"">","null","","","","","",""
"null","","html-keyboard-response","381","239285","0.0-142.0","","","null","","","","","",""
"447.89999997615814","","image-keyboard-response","382","239739","0.0-143.0","","img/nature/S3.jpg","52","3","Ns4,train","51","false","",""
"null","","html-keyboard-response","383","240095","0.0-144.0","","<img src=""img/nature/S3.jpg"" width=""540"" height = ""360"">","null","","","","","",""
"null","","html-keyboard-response","384","240309","0.0-145.0","","","null","","","","","",""
"569.2000000476837","","image-keyboard-response","385","240880","0.0-146.0","","img/nature/S4.jpg","52","4","Ns4,train","52","true","",""
"null","","html-keyboard-response","386","241237","0.0-147.0","","<img src=""img/nature/S4.jpg"" width=""540"" height = ""360"" style=""border:14px solid orange"">","null","","","","","",""
"null","","html-keyboard-response","387","241455","0.0-148.0","","","null","","","","","",""
"945.1999999880791","","image-keyboard-response","388","242402","0.0-149.0","","img/nature/S2.jpg","50","2","Ns4,train","50","true","",""
"null","","html-keyboard-response","389","242761","0.0-150.0","","<img src=""img/nature/S2.jpg"" width=""540"" height = ""360"" style=""border:14px solid orange"">","null","","","","","",""
"null","","html-keyboard-response","390","242976","0.0-151.0","","","null","","","","","",""
"557.6999999880791","","image-keyboard-response","391","243535","0.0-152.0","","img/nature/S1.jpg","52","1","Ns4,train","49","false","",""
"null","","html-keyboard-response","392","243893","0.0-153.0","","<img src=""img/nature/S1.jpg"" width=""540"" height = ""360"">","null","","","","","",""
"null","","html-keyboard-response","393","244110","0.0-154.0","","","null","","","","","",""
"785.1000000238419","","image-keyboard-response","394","244897","0.0-155.0","","img/nature/S3.jpg","51","3","Ns4,train","51","true","",""
"null","","html-keyboard-response","395","245265","0.0-156.0","","<img src=""img/nature/S3.jpg"" width=""540"" height = ""360"" style=""border:14px solid orange"">","null","","","","","",""
"null","","html-keyboard-response","396","245471","0.0-157.0","","","null","","","","","",""
"578.5","","image-keyboard-response","397","246051","0.0-158.0","","img/nature/S4.jpg","52","4","Ns4,train","52","true","",""
"null","","html-keyboard-response","398","246408","0.0-159.0","","<img src=""img/nature/S4.jpg"" width=""540"" height = ""360"" style=""border:14px solid orange"">","null","","","","","",""
"null","","html-keyboard-response","399","246624","0.0-160.0","","","null","","","","","",""
"795.0999999642372","","image-keyboard-response","400","247421","0.0-161.0","","img/nature/S3.jpg","51","3","Ns4,train","51","true","",""
"null","","html-keyboard-response","401","247776","0.0-162.0","","<img src=""img/nature/S3.jpg"" width=""540"" height = ""360"" style=""border:14px solid orange"">","null","","","","","",""
"null","","html-keyboard-response","402","247995","0.0-163.0","","","null","","","","","",""
"449.30000001192093","","image-keyboard-response","403","248446","0.0-164.0","","img/nature/S3.jpg","51","3","Ns4,train","51","true","",""
"null","","html-keyboard-response","404","248808","0.0-165.0","","<img src=""img/nature/S3.jpg"" width=""540"" height = ""360"" style=""border:14px solid orange"">","null","","","","","",""
"null","","html-keyboard-response","405","249025","0.0-166.0","","","null","","","","","",""
"564.1000000238419","","image-keyboard-response","406","249590","0.0-167.0","","img/nature/S4.jpg","52","4","Ns4,train","52","true","",""
"null","","html-keyboard-response","407","249942","0.0-168.0","","<img src=""img/nature/S4.jpg"" width=""540"" height = ""360"" style=""border:14px solid orange"">","null","","","","","",""
"null","","html-keyboard-response","408","250158","0.0-169.0","","","null","","","","","",""
"539.1999999880791","","image-keyboard-response","409","250699","0.0-170.0","","img/nature/S4.jpg","52","4","Ns4,train","52","true","",""
"null","","html-keyboard-response","410","251052","0.0-171.0","","<img src=""img/nature/S4.jpg"" width=""540"" height = ""360"" style=""border:14px solid orange"">","null","","","","","",""
"null","","html-keyboard-response","411","251261","0.0-172.0","","","null","","","","","",""
"541.1000000238419","","image-keyboard-response","412","251804","0.0-173.0","","img/nature/S4.jpg","52","4","Ns4,train","52","true","",""
"null","","html-keyboard-response","413","252170","0.0-174.0","","<img src=""img/nature/S4.jpg"" width=""540"" height = ""360"" style=""border:14px solid orange"">","null","","","","","",""
"null","","html-keyboard-response","414","252374","0.0-175.0","","","null","","","","","",""
"350.4000000357628","","image-keyboard-response","415","252726","0.0-176.0","","img/nature/S4.jpg","52","4","Ns4,train","52","true","",""
"null","","html-keyboard-response","416","253092","0.0-177.0","","<img src=""img/nature/S4.jpg"" width=""540"" height = ""360"" style=""border:14px solid orange"">","null","","","","","",""
"null","","html-keyboard-response","417","253296","0.0-178.0","","","null","","","","","",""
"341.10000002384186","","image-keyboard-response","418","253639","0.0-179.0","","img/nature/S4.jpg","52","4","Ns4,train","52","true","",""
"null","","html-keyboard-response","419","254004","0.0-180.0","","<img src=""img/nature/S4.jpg"" width=""540"" height = ""360"" style=""border:14px solid orange"">","null","","","","","",""
"null","","html-keyboard-response","420","254209","0.0-181.0","","","null","","","","","",""
"771.5","","image-keyboard-response","421","254983","0.0-182.0","","img/nature/S3.jpg","51","3","Ns4,train","51","true","",""
"null","","html-keyboard-response","422","255352","0.0-183.0","","<img src=""img/nature/S3.jpg"" width=""540"" height = ""360"" style=""border:14px solid orange"">","null","","","","","",""
"null","","html-keyboard-response","423","255569","0.0-184.0","","","null","","","","","",""
"482.9000000357628","","image-keyboard-response","424","256054","0.0-185.0","","img/nature/S2.jpg","50","2","Ns4,train","50","true","",""
"null","","html-keyboard-response","425","256417","0.0-186.0","","<img src=""img/nature/S2.jpg"" width=""540"" height = ""360"" style=""border:14px solid orange"">","null","","","","","",""
"null","","html-keyboard-response","426","256620","0.0-187.0","","","null","","","","","",""
"780.5999999642372","","image-keyboard-response","427","257403","0.0-188.0","","img/nature/S1.jpg","49","1","Ns4,train","49","true","",""
"null","","html-keyboard-response","428","257771","0.0-189.0","","<img src=""img/nature/S1.jpg"" width=""540"" height = ""360"" style=""border:14px solid orange"">","null","","","","","",""
"null","","html-keyboard-response","429","257987","0.0-190.0","","","null","","","","","",""
"614.8999999761581","","image-keyboard-response","430","258604","0.0-191.0","","img/nature/S2.jpg","50","2","Ns4,train","50","true","",""
"null","","html-keyboard-response","431","258957","0.0-192.0","","<img src=""img/nature/S2.jpg"" width=""540"" height = ""360"" style=""border:14px solid orange"">","null","","","","","",""
"null","","html-keyboard-response","432","259173","0.0-193.0","","","null","","","","","",""
"856.8000000119209","","image-keyboard-response","433","260032","0.0-194.0","","img/nature/S1.jpg","50","1","Ns4,train","49","false","",""
"null","","html-keyboard-response","434","260389","0.0-195.0","","<img src=""img/nature/S1.jpg"" width=""540"" height = ""360"">","null","","","","","",""
"null","","html-keyboard-response","435","260605","0.0-196.0","","","null","","","","","",""
"627.3999999761581","","image-keyboard-response","436","261235","0.0-197.0","","img/nature/S2.jpg","50","2","Ns4,train","50","true","",""
"null","","html-keyboard-response","437","261593","0.0-198.0","","<img src=""img/nature/S2.jpg"" width=""540"" height = ""360"" style=""border:14px solid orange"">","null","","","","","",""
"null","","html-keyboard-response","438","261810","0.0-199.0","","","null","","","","","",""
"472.89999997615814","","image-keyboard-response","439","262284","0.0-200.0","","img/nature/S1.jpg","49","1","Ns4,train","49","true","",""
"null","","html-keyboard-response","440","262642","0.0-201.0","","<img src=""img/nature/S1.jpg"" width=""540"" height = ""360"" style=""border:14px solid orange"">","null","","","","","",""
"null","","html-keyboard-response","441","262851","0.0-202.0","","","null","","","","","",""
"576.3000000119209","","image-keyboard-response","442","263430","0.0-203.0","","img/nature/S2.jpg","50","2","Ns4,train","50","true","",""
"null","","html-keyboard-response","443","263803","0.0-204.0","","<img src=""img/nature/S2.jpg"" width=""540"" height = ""360"" style=""border:14px solid orange"">","null","","","","","",""
"null","","html-keyboard-response","444","264005","0.0-205.0","","","null","","","","","",""
"973.6000000238419","","image-keyboard-response","445","264981","0.0-206.0","","img/nature/S1.jpg","49","1","Ns4,train","49","true","",""
"null","","html-keyboard-response","446","265336","0.0-207.0","","<img src=""img/nature/S1.jpg"" width=""540"" height = ""360"" style=""border:14px solid orange"">","null","","","","","",""
"null","","html-keyboard-response","447","265553","0.0-208.0","","","null","","","","","",""
"535.5999999642372","","image-keyboard-response","448","266090","0.0-209.0","","img/nature/S2.jpg","50","2","Ns4,train","50","true","",""
"null","","html-keyboard-response","449","266454","0.0-210.0","","<img src=""img/nature/S2.jpg"" width=""540"" height = ""360"" style=""border:14px solid orange"">","null","","","","","",""
"null","","html-keyboard-response","450","266659","0.0-211.0","","","null","","","","","",""
"613.6000000238419","","image-keyboard-response","451","267275","0.0-212.0","","img/nature/S1.jpg","49","1","Ns4,train","49","true","",""
"null","","html-keyboard-response","452","267642","0.0-213.0","","<img src=""img/nature/S1.jpg"" width=""540"" height = ""360"" style=""border:14px solid orange"">","null","","","","","",""
"null","","html-keyboard-response","453","267858","0.0-214.0","","","null","","","","","",""
"605","","image-keyboard-response","454","268465","0.0-215.0","","img/nature/S3.jpg","52","3","Ns4,train","51","false","",""
"null","","html-keyboard-response","455","268829","0.0-216.0","","<img src=""img/nature/S3.jpg"" width=""540"" height = ""360"">","null","","","","","",""
"null","","html-keyboard-response","456","269045","0.0-217.0","","","null","","","","","",""
"934.1999999880791","","image-keyboard-response","457","269980","0.0-218.0","","img/nature/S2.jpg","50","2","Ns4,train","50","true","",""
"null","","html-keyboard-response","458","270338","0.0-219.0","","<img src=""img/nature/S2.jpg"" width=""540"" height = ""360"" style=""border:14px solid orange"">","null","","","","","",""
"null","","html-keyboard-response","459","270554","0.0-220.0","","","null","","","","","",""
"800.8000000119209","","image-keyboard-response","460","271356","0.0-221.0","","img/nature/S1.jpg","49","1","Ns4,train","49","true","",""
"null","","html-keyboard-response","461","271718","0.0-222.0","","<img src=""img/nature/S1.jpg"" width=""540"" height = ""360"" style=""border:14px solid orange"">","null","","","","","",""
"null","","html-keyboard-response","462","271920","0.0-223.0","","","null","","","","","",""
"783.5","","image-keyboard-response","463","272705","0.0-224.0","","img/nature/S3.jpg","51","3","Ns4,train","51","true","",""
"null","","html-keyboard-response","464","273063","0.0-225.0","","<img src=""img/nature/S3.jpg"" width=""540"" height = ""360"" style=""border:14px solid orange"">","null","","","","","",""
"null","","html-keyboard-response","465","273280","0.0-226.0","","","null","","","","","",""
"680","","image-keyboard-response","466","273962","0.0-227.0","","img/nature/S2.jpg","50","2","Ns4,train","50","true","",""
"null","","html-keyboard-response","467","274328","0.0-228.0","","<img src=""img/nature/S2.jpg"" width=""540"" height = ""360"" style=""border:14px solid orange"">","null","","","","","",""
"null","","html-keyboard-response","468","274532","0.0-229.0","","","null","","","","","",""
"771","","image-keyboard-response","469","275305","0.0-230.0","","img/nature/S1.jpg","49","1","Ns4,train","49","true","",""
"null","","html-keyboard-response","470","275670","0.0-231.0","","<img src=""img/nature/S1.jpg"" width=""540"" height = ""360"" style=""border:14px solid orange"">","null","","","","","",""
"null","","html-keyboard-response","471","275886","0.0-232.0","","","null","","","","","",""
"762.1999999880791","","image-keyboard-response","472","276650","0.0-233.0","","img/nature/S2.jpg","50","2","Ns4,train","50","true","",""
"null","","html-keyboard-response","473","277003","0.0-234.0","","<img src=""img/nature/S2.jpg"" width=""540"" height = ""360"" style=""border:14px solid orange"">","null","","","","","",""
"null","","html-keyboard-response","474","277220","0.0-235.0","","","null","","","","","",""
"619","","image-keyboard-response","475","277841","0.0-236.0","","img/nature/S1.jpg","49","1","Ns4,train","49","true","",""
"null","","html-keyboard-response","476","278202","0.0-237.0","","<img src=""img/nature/S1.jpg"" width=""540"" height = ""360"" style=""border:14px solid orange"">","null","","","","","",""
"null","","html-keyboard-response","477","278418","0.0-238.0","","","null","","","","","",""
"915.2000000476837","","image-keyboard-response","478","279335","0.0-239.0","","img/nature/S2.jpg","50","2","Ns4,train","50","true","",""
"null","","html-keyboard-response","479","279690","0.0-240.0","","<img src=""img/nature/S2.jpg"" width=""540"" height = ""360"" style=""border:14px solid orange"">","null","","","","","",""
"null","","html-keyboard-response","480","279905","0.0-241.0","","","null","","","","","",""
"659.1999999880791","","image-keyboard-response","481","280566","0.0-242.0","","img/nature/S1.jpg","49","1","Ns4,train","49","true","",""
"null","","html-keyboard-response","482","280922","0.0-243.0","","<img src=""img/nature/S1.jpg"" width=""540"" height = ""360"" style=""border:14px solid orange"">","null","","","","","",""
"null","","html-keyboard-response","483","281139","0.0-244.0","","","null","","","","","",""
"3584.199999988079","","html-keyboard-response","484","284725","0.0-245.0","","<p class=""center-content"">You have completed a block! </p><p class=""center-content"">Press any key on the keyboard to continue to the next block,</p><p class=""center-content"">or wait for the automatic progression to the next block after one minute.</p>","32","","","","","",""
"741.8000000119209","","image-keyboard-response","485","285469","0.0-246.0","","img/nature/S2.jpg","50","2","Ns4,perform","50","true","",""
"null","","html-keyboard-response","486","285834","0.0-247.0","","<img src=""img/nature/S2.jpg"" width=""540"" height = ""360"" style=""border:14px solid orange"">","null","","","","","",""
"null","","html-keyboard-response","487","286050","0.0-248.0","","","null","","","","","",""
"643.6999999880791","","image-keyboard-response","488","286695","0.0-249.0","","img/nature/S1.jpg","49","1","Ns4,perform","49","true","",""
"null","","html-keyboard-response","489","287052","0.0-250.0","","<img src=""img/nature/S1.jpg"" width=""540"" height = ""360"" style=""border:14px solid orange"">","null","","","","","",""
"null","","html-keyboard-response","490","287258","0.0-251.0","","","null","","","","","",""
"718.8999999761581","","image-keyboard-response","491","287979","0.0-252.0","","img/nature/S2.jpg","50","2","Ns4,perform","50","true","",""
"null","","html-keyboard-response","492","288336","0.0-253.0","","<img src=""img/nature/S2.jpg"" width=""540"" height = ""360"" style=""border:14px solid orange"">","null","","","","","",""
"null","","html-keyboard-response","493","288552","0.0-254.0","","","null","","","","","",""
"732.2999999523163","","image-keyboard-response","494","289286","0.0-255.0","","img/nature/S1.jpg","49","1","Ns4,perform","49","true","",""
"null","","html-keyboard-response","495","289645","0.0-256.0","","<img src=""img/nature/S1.jpg"" width=""540"" height = ""360"" style=""border:14px solid orange"">","null","","","","","",""
"null","","html-keyboard-response","496","289861","0.0-257.0","","","null","","","","","",""
"602.8999999761581","","image-keyboard-response","497","290466","0.0-258.0","","img/nature/S4.jpg","52","4","Ns4,perform","52","true","",""
"null","","html-keyboard-response","498","290818","0.0-259.0","","<img src=""img/nature/S4.jpg"" width=""540"" height = ""360"" style=""border:14px solid orange"">","null","","","","","",""
"null","","html-keyboard-response","499","291020","0.0-260.0","","","null","","","","","",""
"486.60000002384186","","image-keyboard-response","500","291508","0.0-261.0","","img/nature/S4.jpg","52","4","Ns4,perform","52","true","",""
"null","","html-keyboard-response","501","291870","0.0-262.0","","<img src=""img/nature/S4.jpg"" width=""540"" height = ""360"" style=""border:14px solid orange"">","null","","","","","",""
"null","","html-keyboard-response","502","292086","0.0-263.0","","","null","","","","","",""
"412.30000001192093","","image-keyboard-response","503","292500","0.0-264.0","","img/nature/S4.jpg","52","4","Ns4,perform","52","true","",""
"null","","html-keyboard-response","504","292856","0.0-265.0","","<img src=""img/nature/S4.jpg"" width=""540"" height = ""360"" style=""border:14px solid orange"">","null","","","","","",""
"null","","html-keyboard-response","505","293072","0.0-266.0","","","null","","","","","",""
"727.5999999642372","","image-keyboard-response","506","293802","0.0-267.0","","img/nature/S3.jpg","51","3","Ns4,perform","51","true","",""
"null","","html-keyboard-response","507","294159","0.0-268.0","","<img src=""img/nature/S3.jpg"" width=""540"" height = ""360"" style=""border:14px solid orange"">","null","","","","","",""
"null","","html-keyboard-response","508","294375","0.0-269.0","","","null","","","","","",""
"545","","image-keyboard-response","509","294922","0.0-270.0","","img/nature/S4.jpg","52","4","Ns4,perform","52","true","",""
"null","","html-keyboard-response","510","295281","0.0-271.0","","<img src=""img/nature/S4.jpg"" width=""540"" height = ""360"" style=""border:14px solid orange"">","null","","","","","",""
"null","","html-keyboard-response","511","295497","0.0-272.0","","","null","","","","","",""
"739.1000000238419","","image-keyboard-response","512","296238","0.0-273.0","","img/nature/S2.jpg","50","2","Ns4,perform","50","true","",""
"null","","html-keyboard-response","513","296599","0.0-274.0","","<img src=""img/nature/S2.jpg"" width=""540"" height = ""360"" style=""border:14px solid orange"">","null","","","","","",""
"null","","html-keyboard-response","514","296815","0.0-275.0","","","null","","","","","",""
"676.3000000119209","","image-keyboard-response","515","297493","0.0-276.0","","img/nature/S1.jpg","49","1","Ns4,perform","49","true","",""
"null","","html-keyboard-response","516","297848","0.0-277.0","","<img src=""img/nature/S1.jpg"" width=""540"" height = ""360"" style=""border:14px solid orange"">","null","","","","","",""
"null","","html-keyboard-response","517","298054","0.0-278.0","","","null","","","","","",""
"571.5","","image-keyboard-response","518","298628","0.0-279.0","","img/nature/S4.jpg","52","4","Ns4,perform","52","true","",""
"null","","html-keyboard-response","519","298995","0.0-280.0","","<img src=""img/nature/S4.jpg"" width=""540"" height = ""360"" style=""border:14px solid orange"">","null","","","","","",""
"null","","html-keyboard-response","520","299217","0.0-281.0","","","null","","","","","",""
"607.1000000238419","","image-keyboard-response","521","299826","0.0-282.0","","img/nature/S2.jpg","50","2","Ns4,perform","50","true","",""
"null","","html-keyboard-response","522","300181","0.0-283.0","","<img src=""img/nature/S2.jpg"" width=""540"" height = ""360"" style=""border:14px solid orange"">","null","","","","","",""
"null","","html-keyboard-response","523","300385","0.0-284.0","","","null","","","","","",""
"728.8000000119209","","image-keyboard-response","524","301115","0.0-285.0","","img/nature/S1.jpg","49","1","Ns4,perform","49","true","",""
"null","","html-keyboard-response","525","301467","0.0-286.0","","<img src=""img/nature/S1.jpg"" width=""540"" height = ""360"" style=""border:14px solid orange"">","null","","","","","",""
"null","","html-keyboard-response","526","301670","0.0-287.0","","","null","","","","","",""
"736","","image-keyboard-response","527","302408","0.0-288.0","","img/nature/S3.jpg","51","3","Ns4,perform","51","true","",""
"null","","html-keyboard-response","528","302769","0.0-289.0","","<img src=""img/nature/S3.jpg"" width=""540"" height = ""360"" style=""border:14px solid orange"">","null","","","","","",""
"null","","html-keyboard-response","529","302986","0.0-290.0","","","null","","","","","",""
"447","","image-keyboard-response","530","303435","0.0-291.0","","img/nature/S3.jpg","51","3","Ns4,perform","51","true","",""
"null","","html-keyboard-response","531","303790","0.0-292.0","","<img src=""img/nature/S3.jpg"" width=""540"" height = ""360"" style=""border:14px solid orange"">","null","","","","","",""
"null","","html-keyboard-response","532","303992","0.0-293.0","","","null","","","","","",""
"551","","image-keyboard-response","533","304546","0.0-294.0","","img/nature/S2.jpg","50","2","Ns4,perform","50","true","",""
"null","","html-keyboard-response","534","304914","0.0-295.0","","<img src=""img/nature/S2.jpg"" width=""540"" height = ""360"" style=""border:14px solid orange"">","null","","","","","",""
"null","","html-keyboard-response","535","305118","0.0-296.0","","","null","","","","","",""
"856.2000000476837","","image-keyboard-response","536","305976","0.0-297.0","","img/nature/S1.jpg","49","1","Ns4,perform","49","true","",""
"null","","html-keyboard-response","537","306340","0.0-298.0","","<img src=""img/nature/S1.jpg"" width=""540"" height = ""360"" style=""border:14px solid orange"">","null","","","","","",""
"null","","html-keyboard-response","538","306562","0.0-299.0","","","null","","","","","",""
"540.7999999523163","","image-keyboard-response","539","307105","0.0-300.0","","img/nature/S4.jpg","52","4","Ns4,perform","52","true","",""
"null","","html-keyboard-response","540","307472","0.0-301.0","","<img src=""img/nature/S4.jpg"" width=""540"" height = ""360"" style=""border:14px solid orange"">","null","","","","","",""
"null","","html-keyboard-response","541","307688","0.0-302.0","","","null","","","","","",""
"724.3000000119209","","image-keyboard-response","542","308414","0.0-303.0","","img/nature/S2.jpg","50","2","Ns4,perform","50","true","",""
"null","","html-keyboard-response","543","308790","0.0-304.0","","<img src=""img/nature/S2.jpg"" width=""540"" height = ""360"" style=""border:14px solid orange"">","null","","","","","",""
"null","","html-keyboard-response","544","309006","0.0-305.0","","","null","","","","","",""
"936.6000000238419","","image-keyboard-response","545","309945","0.0-306.0","","img/nature/S1.jpg","51","1","Ns4,perform","49","false","",""
"null","","html-keyboard-response","546","310311","0.0-307.0","","<img src=""img/nature/S1.jpg"" width=""540"" height = ""360"">","null","","","","","",""
"null","","html-keyboard-response","547","310527","0.0-308.0","","","null","","","","","",""
"725.6999999880791","","image-keyboard-response","548","311255","0.0-309.0","","img/nature/S2.jpg","50","2","Ns4,perform","50","true","",""
"null","","html-keyboard-response","549","311620","0.0-310.0","","<img src=""img/nature/S2.jpg"" width=""540"" height = ""360"" style=""border:14px solid orange"">","null","","","","","",""
"null","","html-keyboard-response","550","311836","0.0-311.0","","","null","","","","","",""
"757.5","","image-keyboard-response","551","312595","0.0-312.0","","img/nature/S1.jpg","49","1","Ns4,perform","49","true","",""
"null","","html-keyboard-response","552","312953","0.0-313.0","","<img src=""img/nature/S1.jpg"" width=""540"" height = ""360"" style=""border:14px solid orange"">","null","","","","","",""
"null","","html-keyboard-response","553","313170","0.0-314.0","","","null","","","","","",""
"605","","image-keyboard-response","554","313777","0.0-315.0","","img/nature/S2.jpg","50","2","Ns4,perform","50","true","",""
"null","","html-keyboard-response","555","314136","0.0-316.0","","<img src=""img/nature/S2.jpg"" width=""540"" height = ""360"" style=""border:14px solid orange"">","null","","","","","",""
"null","","html-keyboard-response","556","314352","0.0-317.0","","","null","","","","","",""
"936.7999999523163","","image-keyboard-response","557","315291","0.0-318.0","","img/nature/S1.jpg","49","1","Ns4,perform","49","true","",""
"null","","html-keyboard-response","558","315657","0.0-319.0","","<img src=""img/nature/S1.jpg"" width=""540"" height = ""360"" style=""border:14px solid orange"">","null","","","","","",""
"null","","html-keyboard-response","559","315873","0.0-320.0","","","null","","","","","",""
"605","","image-keyboard-response","560","316480","0.0-321.0","","img/nature/S2.jpg","51","2","Ns4,perform","50","false","",""
"null","","html-keyboard-response","561","316832","0.0-322.0","","<img src=""img/nature/S2.jpg"" width=""540"" height = ""360"">","null","","","","","",""
"null","","html-keyboard-response","562","317049","0.0-323.0","","","null","","","","","",""
"709.6000000238419","","image-keyboard-response","563","317760","0.0-324.0","","img/nature/S1.jpg","49","1","Ns4,perform","49","true","",""
"null","","html-keyboard-response","564","318126","0.0-325.0","","<img src=""img/nature/S1.jpg"" width=""540"" height = ""360"" style=""border:14px solid orange"">","null","","","","","",""
"null","","html-keyboard-response","565","318330","0.0-326.0","","","null","","","","","",""
"679.2000000476837","","image-keyboard-response","566","319012","0.0-327.0","","img/nature/S3.jpg","51","3","Ns4,perform","51","true","",""
"null","","html-keyboard-response","567","319379","0.0-328.0","","<img src=""img/nature/S3.jpg"" width=""540"" height = ""360"" style=""border:14px solid orange"">","null","","","","","",""
"null","","html-keyboard-response","568","319588","0.0-329.0","","","null","","","","","",""
"495.4000000357628","","image-keyboard-response","569","320085","0.0-330.0","","img/nature/S3.jpg","51","3","Ns4,perform","51","true","",""
"null","","html-keyboard-response","570","320451","0.0-331.0","","<img src=""img/nature/S3.jpg"" width=""540"" height = ""360"" style=""border:14px solid orange"">","null","","","","","",""
"null","","html-keyboard-response","571","320656","0.0-332.0","","","null","","","","","",""
"648.1999999880791","","image-keyboard-response","572","321306","0.0-333.0","","img/nature/S2.jpg","50","2","Ns4,perform","50","true","",""
"null","","html-keyboard-response","573","321660","0.0-334.0","","<img src=""img/nature/S2.jpg"" width=""540"" height = ""360"" style=""border:14px solid orange"">","null","","","","","",""
"null","","html-keyboard-response","574","321873","0.0-335.0","","","null","","","","","",""
"864.7000000476837","","image-keyboard-response","575","322739","0.0-336.0","","img/nature/S1.jpg","49","1","Ns4,perform","49","true","",""
"null","","html-keyboard-response","576","323106","0.0-337.0","","<img src=""img/nature/S1.jpg"" width=""540"" height = ""360"" style=""border:14px solid orange"">","null","","","","","",""
"null","","html-keyboard-response","577","323322","0.0-338.0","","","null","","","","","",""
"698.6999999880791","","image-keyboard-response","578","324022","0.0-339.0","","img/nature/S3.jpg","51","3","Ns4,perform","51","true","",""
"null","","html-keyboard-response","579","324386","0.0-340.0","","<img src=""img/nature/S3.jpg"" width=""540"" height = ""360"" style=""border:14px solid orange"">","null","","","","","",""
"null","","html-keyboard-response","580","324610","0.0-341.0","","","null","","","","","",""
"650.9000000357628","","image-keyboard-response","581","325263","0.0-342.0","","img/nature/S4.jpg","52","4","Ns4,perform","52","true","",""
"null","","html-keyboard-response","582","325629","0.0-343.0","","<img src=""img/nature/S4.jpg"" width=""540"" height = ""360"" style=""border:14px solid orange"">","null","","","","","",""
"null","","html-keyboard-response","583","325845","0.0-344.0","","","null","","","","","",""
"606.6999999880791","","image-keyboard-response","584","326453","0.0-345.0","","img/nature/S3.jpg","51","3","Ns4,perform","51","true","",""
"null","","html-keyboard-response","585","326826","0.0-346.0","","<img src=""img/nature/S3.jpg"" width=""540"" height = ""360"" style=""border:14px solid orange"">","null","","","","","",""
"null","","html-keyboard-response","586","327043","0.0-347.0","","","null","","","","","",""
"550.3000000119209","","image-keyboard-response","587","327595","0.0-348.0","","img/nature/S4.jpg","52","4","Ns4,perform","52","true","",""
"null","","html-keyboard-response","588","327952","0.0-349.0","","<img src=""img/nature/S4.jpg"" width=""540"" height = ""360"" style=""border:14px solid orange"">","null","","","","","",""
"null","","html-keyboard-response","589","328155","0.0-350.0","","","null","","","","","",""
"539.3999999761581","","image-keyboard-response","590","328696","0.0-351.0","","img/nature/S3.jpg","51","3","Ns4,perform","51","true","",""
"null","","html-keyboard-response","591","329062","0.0-352.0","","<img src=""img/nature/S3.jpg"" width=""540"" height = ""360"" style=""border:14px solid orange"">","null","","","","","",""
"null","","html-keyboard-response","592","329275","0.0-353.0","","","null","","","","","",""
"634.3000000119209","","image-keyboard-response","593","329912","0.0-354.0","","img/nature/S4.jpg","52","4","Ns4,perform","52","true","",""
"null","","html-keyboard-response","594","330269","0.0-355.0","","<img src=""img/nature/S4.jpg"" width=""540"" height = ""360"" style=""border:14px solid orange"">","null","","","","","",""
"null","","html-keyboard-response","595","330485","0.0-356.0","","","null","","","","","",""
"422.89999997615814","","image-keyboard-response","596","330909","0.0-357.0","","img/nature/S4.jpg","52","4","Ns4,perform","52","true","",""
"null","","html-keyboard-response","597","331276","0.0-358.0","","<img src=""img/nature/S4.jpg"" width=""540"" height = ""360"" style=""border:14px solid orange"">","null","","","","","",""
"null","","html-keyboard-response","598","331492","0.0-359.0","","","null","","","","","",""
"394.80000001192093","","image-keyboard-response","599","331888","0.0-360.0","","img/nature/S4.jpg","52","4","Ns4,perform","52","true","",""
"null","","html-keyboard-response","600","332242","0.0-361.0","","<img src=""img/nature/S4.jpg"" width=""540"" height = ""360"" style=""border:14px solid orange"">","null","","","","","",""
"null","","html-keyboard-response","601","332465","0.0-362.0","","","null","","","","","",""
"605.0999999642372","","image-keyboard-response","602","333073","0.0-363.0","","img/nature/S3.jpg","51","3","Ns4,perform","51","true","",""
"null","","html-keyboard-response","603","333430","0.0-364.0","","<img src=""img/nature/S3.jpg"" width=""540"" height = ""360"" style=""border:14px solid orange"">","null","","","","","",""
"null","","html-keyboard-response","604","333634","0.0-365.0","","","null","","","","","",""
"508.80000001192093","","image-keyboard-response","605","334144","0.0-366.0","","img/nature/S4.jpg","52","4","Ns4,perform","52","true","",""
"null","","html-keyboard-response","606","334511","0.0-367.0","","<img src=""img/nature/S4.jpg"" width=""540"" height = ""360"" style=""border:14px solid orange"">","null","","","","","",""
"null","","html-keyboard-response","607","334727","0.0-368.0","","","null","","","","","",""
"584.1000000238419","","image-keyboard-response","608","335313","0.0-369.0","","img/nature/S3.jpg","51","3","Ns4,perform","51","true","",""
"null","","html-keyboard-response","609","335676","0.0-370.0","","<img src=""img/nature/S3.jpg"" width=""540"" height = ""360"" style=""border:14px solid orange"">","null","","","","","",""
"null","","html-keyboard-response","610","335890","0.0-371.0","","","null","","","","","",""
"626","","image-keyboard-response","611","336517","0.0-372.0","","img/nature/S2.jpg","50","2","Ns4,perform","50","true","",""
"null","","html-keyboard-response","612","336878","0.0-373.0","","<img src=""img/nature/S2.jpg"" width=""540"" height = ""360"" style=""border:14px solid orange"">","null","","","","","",""
"null","","html-keyboard-response","613","337091","0.0-374.0","","","null","","","","","",""
"735.6999999880791","","image-keyboard-response","614","337828","0.0-375.0","","img/nature/S1.jpg","49","1","Ns4,perform","49","true","",""
"null","","html-keyboard-response","615","338189","0.0-376.0","","<img src=""img/nature/S1.jpg"" width=""540"" height = ""360"" style=""border:14px solid orange"">","null","","","","","",""
"null","","html-keyboard-response","616","338393","0.0-377.0","","","null","","","","","",""
"683.8000000119209","","image-keyboard-response","617","339080","0.0-378.0","","img/nature/S3.jpg","51","3","Ns4,perform","51","true","",""
"null","","html-keyboard-response","618","339448","0.0-379.0","","<img src=""img/nature/S3.jpg"" width=""540"" height = ""360"" style=""border:14px solid orange"">","null","","","","","",""
"null","","html-keyboard-response","619","339668","0.0-380.0","","","null","","","","","",""
"567.8999999761581","","image-keyboard-response","620","340238","0.0-381.0","","img/nature/S4.jpg","52","4","Ns4,perform","52","true","",""
"null","","html-keyboard-response","621","340598","0.0-382.0","","<img src=""img/nature/S4.jpg"" width=""540"" height = ""360"" style=""border:14px solid orange"">","null","","","","","",""
"null","","html-keyboard-response","622","340809","0.0-383.0","","","null","","","","","",""
"655.5","","image-keyboard-response","623","341468","0.0-384.0","","img/nature/S2.jpg","50","2","Ns4,perform","50","true","",""
"null","","html-keyboard-response","624","341833","0.0-385.0","","<img src=""img/nature/S2.jpg"" width=""540"" height = ""360"" style=""border:14px solid orange"">","null","","","","","",""
"null","","html-keyboard-response","625","342049","0.0-386.0","","","null","","","","","",""
"767.5999999642372","","image-keyboard-response","626","342819","0.0-387.0","","img/nature/S1.jpg","49","1","Ns4,perform","49","true","",""
"null","","html-keyboard-response","627","343189","0.0-388.0","","<img src=""img/nature/S1.jpg"" width=""540"" height = ""360"" style=""border:14px solid orange"">","null","","","","","",""
"null","","html-keyboard-response","628","343408","0.0-389.0","","","null","","","","","",""
"611.5999999642372","","image-keyboard-response","629","344021","0.0-390.0","","img/nature/S4.jpg","52","4","Ns4,perform","52","true","",""
"null","","html-keyboard-response","630","344388","0.0-391.0","","<img src=""img/nature/S4.jpg"" width=""540"" height = ""360"" style=""border:14px solid orange"">","null","","","","","",""
"null","","html-keyboard-response","631","344611","0.0-392.0","","","null","","","","","",""
"666.5999999642372","","image-keyboard-response","632","345279","0.0-393.0","","img/nature/S3.jpg","51","3","Ns4,perform","51","true","",""
"null","","html-keyboard-response","633","345648","0.0-394.0","","<img src=""img/nature/S3.jpg"" width=""540"" height = ""360"" style=""border:14px solid orange"">","null","","","","","",""
"null","","html-keyboard-response","634","345868","0.0-395.0","","","null","","","","","",""
"615.5999999642372","","image-keyboard-response","635","346485","0.0-396.0","","img/nature/S4.jpg","52","4","Ns4,perform","52","true","",""
"null","","html-keyboard-response","636","346849","0.0-397.0","","<img src=""img/nature/S4.jpg"" width=""540"" height = ""360"" style=""border:14px solid orange"">","null","","","","","",""
"null","","html-keyboard-response","637","347068","0.0-398.0","","","null","","","","","",""
"565.3000000119209","","image-keyboard-response","638","347636","0.0-399.0","","img/nature/S2.jpg","50","2","Ns4,perform","50","true","",""
"null","","html-keyboard-response","639","348008","0.0-400.0","","<img src=""img/nature/S2.jpg"" width=""540"" height = ""360"" style=""border:14px solid orange"">","null","","","","","",""
"null","","html-keyboard-response","640","348228","0.0-401.0","","","null","","","","","",""
"761","","image-keyboard-response","641","348991","0.0-402.0","","img/nature/S1.jpg","49","1","Ns4,perform","49","true","",""
"null","","html-keyboard-response","642","349348","0.0-403.0","","<img src=""img/nature/S1.jpg"" width=""540"" height = ""360"" style=""border:14px solid orange"">","null","","","","","",""
"null","","html-keyboard-response","643","349568","0.0-404.0","","","null","","","","","",""
"723.3000000119209","","image-keyboard-response","644","350294","0.0-405.0","","img/nature/S3.jpg","52","3","Ns4,perform","51","false","",""
"null","","html-keyboard-response","645","350662","0.0-406.0","","<img src=""img/nature/S3.jpg"" width=""540"" height = ""360"">","null","","","","","",""
"null","","html-keyboard-response","646","350866","0.0-407.0","","","null","","","","","",""
"552.3000000119209","","image-keyboard-response","647","351420","0.0-408.0","","img/nature/S2.jpg","50","2","Ns4,perform","50","true","",""
"null","","html-keyboard-response","648","351774","0.0-409.0","","<img src=""img/nature/S2.jpg"" width=""540"" height = ""360"" style=""border:14px solid orange"">","null","","","","","",""
"null","","html-keyboard-response","649","351977","0.0-410.0","","","null","","","","","",""
"950.1999999880791","","image-keyboard-response","650","352929","0.0-411.0","","img/nature/S1.jpg","49","1","Ns4,perform","49","true","",""
"null","","html-keyboard-response","651","353284","0.0-412.0","","<img src=""img/nature/S1.jpg"" width=""540"" height = ""360"" style=""border:14px solid orange"">","null","","","","","",""
"null","","html-keyboard-response","652","353511","0.0-413.0","","","null","","","","","",""
"941.6999999880791","","image-keyboard-response","653","354454","0.0-414.0","","img/nature/S2.jpg","50","2","Ns4,perform","50","true","",""
"null","","html-keyboard-response","654","354807","0.0-415.0","","<img src=""img/nature/S2.jpg"" width=""540"" height = ""360"" style=""border:14px solid orange"">","null","","","","","",""
"null","","html-keyboard-response","655","355010","0.0-416.0","","","null","","","","","",""
"933.6999999880791","","image-keyboard-response","656","355945","0.0-417.0","","img/nature/S1.jpg","49","1","Ns4,perform","49","true","",""
"null","","html-keyboard-response","657","356299","0.0-418.0","","<img src=""img/nature/S1.jpg"" width=""540"" height = ""360"" style=""border:14px solid orange"">","null","","","","","",""
"null","","html-keyboard-response","658","356503","0.0-419.0","","","null","","","","","",""
"1467.8999999761581","","image-keyboard-response","659","357973","0.0-420.0","","img/nature/S3.jpg","51","3","Ns4,perform","51","true","",""
"null","","html-keyboard-response","660","358334","0.0-421.0","","<img src=""img/nature/S3.jpg"" width=""540"" height = ""360"" style=""border:14px solid orange"">","null","","","","","",""
"null","","html-keyboard-response","661","358542","0.0-422.0","","","null","","","","","",""
"440.39999997615814","","image-keyboard-response","662","358984","0.0-423.0","","img/nature/S3.jpg","51","3","Ns4,perform","51","true","",""
"null","","html-keyboard-response","663","359341","0.0-424.0","","<img src=""img/nature/S3.jpg"" width=""540"" height = ""360"" style=""border:14px solid orange"">","null","","","","","",""
"null","","html-keyboard-response","664","359553","0.0-425.0","","","null","","","","","",""
"6868.900000035763","","html-keyboard-response","665","366423","0.0-426.0","","<p class=""center-content"">You have completed a block! </p><p class=""center-content"">Press any key on the keyboard to continue to the next block,</p><p class=""center-content"">or wait for the automatic progression to the next block after one minute.</p>","32","","","","","",""
"732.1999999880791","","image-keyboard-response","666","367158","0.0-427.0","","img/nature/S2.jpg","50","2","Ns4,test","50","true","",""
"null","","html-keyboard-response","667","367523","0.0-428.0","","<img src=""img/nature/S2.jpg"" width=""540"" height = ""360"" style=""border:14px solid orange"">","null","","","","","",""
"null","","html-keyboard-response","668","367746","0.0-429.0","","","null","","","","","",""
"419.30000001192093","","image-keyboard-response","669","368167","0.0-430.0","","img/nature/S2.jpg","50","2","Ns4,test","50","true","",""
"null","","html-keyboard-response","670","368529","0.0-431.0","","<img src=""img/nature/S2.jpg"" width=""540"" height = ""360"" style=""border:14px solid orange"">","null","","","","","",""
"null","","html-keyboard-response","671","368748","0.0-432.0","","","null","","","","","",""
"583.8000000119209","","image-keyboard-response","672","369334","0.0-433.0","","img/nature/S4.jpg","52","4","Ns4,test","52","true","",""
"null","","html-keyboard-response","673","369686","0.0-434.0","","<img src=""img/nature/S4.jpg"" width=""540"" height = ""360"" style=""border:14px solid orange"">","null","","","","","",""
"null","","html-keyboard-response","674","369891","0.0-435.0","","","null","","","","","",""
"570.4000000357628","","image-keyboard-response","675","370464","0.0-436.0","","img/nature/S1.jpg","49","1","Ns4,test","49","true","",""
"null","","html-keyboard-response","676","370826","0.0-437.0","","<img src=""img/nature/S1.jpg"" width=""540"" height = ""360"" style=""border:14px solid orange"">","null","","","","","",""
"null","","html-keyboard-response","677","371041","0.0-438.0","","","null","","","","","",""
"526.5","","image-keyboard-response","678","371570","0.0-439.0","","img/nature/S1.jpg","49","1","Ns4,test","49","true","",""
"null","","html-keyboard-response","679","371935","0.0-440.0","","<img src=""img/nature/S1.jpg"" width=""540"" height = ""360"" style=""border:14px solid orange"">","null","","","","","",""
"null","","html-keyboard-response","680","372140","0.0-441.0","","","null","","","","","",""
"602.1000000238419","","image-keyboard-response","681","372744","0.0-442.0","","img/nature/S4.jpg","52","4","Ns4,test","52","true","",""
"null","","html-keyboard-response","682","373103","0.0-443.0","","<img src=""img/nature/S4.jpg"" width=""540"" height = ""360"" style=""border:14px solid orange"">","null","","","","","",""
"null","","html-keyboard-response","683","373317","0.0-444.0","","","null","","","","","",""
"432.60000002384186","","image-keyboard-response","684","373751","0.0-445.0","","img/nature/S4.jpg","52","4","Ns4,test","52","true","",""
"null","","html-keyboard-response","685","374109","0.0-446.0","","<img src=""img/nature/S4.jpg"" width=""540"" height = ""360"" style=""border:14px solid orange"">","null","","","","","",""
"null","","html-keyboard-response","686","374325","0.0-447.0","","","null","","","","","",""
"701.5999999642372","","image-keyboard-response","687","375030","0.0-448.0","","img/nature/S1.jpg","49","1","Ns4,test","49","true","",""
"null","","html-keyboard-response","688","375390","0.0-449.0","","<img src=""img/nature/S1.jpg"" width=""540"" height = ""360"" style=""border:14px solid orange"">","null","","","","","",""
"null","","html-keyboard-response","689","375593","0.0-450.0","","","null","","","","","",""
"457.2999999523163","","image-keyboard-response","690","376052","0.0-451.0","","img/nature/S1.jpg","49","1","Ns4,test","49","true","",""
"null","","html-keyboard-response","691","376418","0.0-452.0","","<img src=""img/nature/S1.jpg"" width=""540"" height = ""360"" style=""border:14px solid orange"">","null","","","","","",""
"null","","html-keyboard-response","692","376624","0.0-453.0","","","null","","","","","",""
"613.8999999761581","","image-keyboard-response","693","377240","0.0-454.0","","img/nature/S4.jpg","52","4","Ns4,test","52","true","",""
"null","","html-keyboard-response","694","377605","0.0-455.0","","<img src=""img/nature/S4.jpg"" width=""540"" height = ""360"" style=""border:14px solid orange"">","null","","","","","",""
"null","","html-keyboard-response","695","377809","0.0-456.0","","","null","","","","","",""
"735","","image-keyboard-response","696","378546","0.0-457.0","","img/nature/S3.jpg","51","3","Ns4,test","51","true","",""
"null","","html-keyboard-response","697","378901","0.0-458.0","","<img src=""img/nature/S3.jpg"" width=""540"" height = ""360"" style=""border:14px solid orange"">","null","","","","","",""
"null","","html-keyboard-response","698","379118","0.0-459.0","","","null","","","","","",""
"560.5","","image-keyboard-response","699","379680","0.0-460.0","","img/nature/S4.jpg","52","4","Ns4,test","52","true","",""
"null","","html-keyboard-response","700","380038","0.0-461.0","","<img src=""img/nature/S4.jpg"" width=""540"" height = ""360"" style=""border:14px solid orange"">","null","","","","","",""
