"rt","url","trial_type","trial_index","time_elapsed","internal_node_id","view_history","stimulus","key_press","state","test_part","correct_response","correct","bonus","responses"
"16231","consent.html","external-html","0","16389","0.0-0.0","","","","","","","","",""
"34016","","instructions","1","50409","0.0-1.0","[{""page_index"":0,""viewing_time"":4738.600000023842},{""page_index"":1,""viewing_time"":1358.199999988079},{""page_index"":2,""viewing_time"":3988.300000011921},{""page_index"":3,""viewing_time"":11155.899999976158},{""page_index"":4,""viewing_time"":2275.600000023842},{""page_index"":5,""viewing_time"":3917.800000011921},{""page_index"":6,""viewing_time"":2539.399999976158},{""page_index"":7,""viewing_time"":4041.199999988079}]","","","","","","","",""
"1190","","image-keyboard-response","2","51603","0.0-2.0","","img/animals/S3.jpg","49","3","Ns6,train","51","false","",""
"null","","html-keyboard-response","3","51957","0.0-3.0","","<img src=""img/animals/S3.jpg"" width=""540"" height = ""360"">","null","","","","","",""
"null","","html-keyboard-response","4","52160","0.0-4.0","","","null","","","","","",""
"879.6000000238419","","image-keyboard-response","5","53042","0.0-5.0","","img/animals/S3.jpg","50","3","Ns6,train","51","false","",""
"null","","html-keyboard-response","6","53395","0.0-6.0","","<img src=""img/animals/S3.jpg"" width=""540"" height = ""360"">","null","","","","","",""
"null","","html-keyboard-response","7","53597","0.0-7.0","","","null","","","","","",""
"1211.2999999523163","","image-keyboard-response","8","54811","0.0-8.0","","img/animals/S2.jpg","49","2","Ns6,train","50","false","",""
"null","","html-keyboard-response","9","55164","0.0-9.0","","<img src=""img/animals/S2.jpg"" width=""540"" height = ""360"">","null","","","","","",""
"null","","html-keyboard-response","10","55367","0.0-10.0","","","null","","","","","",""
"631.3999999761581","","image-keyboard-response","11","56001","0.0-11.0","","img/animals/S6.jpg","51","6","Ns6,train","54","false","",""
"null","","html-keyboard-response","12","56353","0.0-12.0","","<img src=""img/animals/S6.jpg"" width=""540"" height = ""360"">","null","","","","","",""
"null","","html-keyboard-response","13","56554","0.0-13.0","","","null","","","","","",""
"470.9000000357628","","image-keyboard-response","14","57027","0.0-14.0","","img/animals/S6.jpg","53","6","Ns6,train","54","false","",""
"null","","html-keyboard-response","15","57379","0.0-15.0","","<img src=""img/animals/S6.jpg"" width=""540"" height = ""360"">","null","","","","","",""
"null","","html-keyboard-response","16","57581","0.0-16.0","","","null","","","","","",""
"1326.9000000357628","","image-keyboard-response","17","58910","0.0-17.0","","img/animals/S2.jpg","50","2","Ns6,train","50","true","",""
"null","","html-keyboard-response","18","59262","0.0-18.0","","<img src=""img/animals/S2.jpg"" width=""540"" height = ""360"" style=""border:14px solid orange"">","null","","","","","",""
"null","","html-keyboard-response","19","59464","0.0-19.0","","","null","","","","","",""
"454.30000001192093","","image-keyboard-response","20","59920","0.0-20.0","","img/animals/S2.jpg","50","2","Ns6,train","50","true","",""
"null","","html-keyboard-response","21","60272","0.0-21.0","","<img src=""img/animals/S2.jpg"" width=""540"" height = ""360"" style=""border:14px solid orange"">","null","","","","","",""
"null","","html-keyboard-response","22","60473","0.0-22.0","","","null","","","","","",""
"924.6999999880791","","image-keyboard-response","23","61400","0.0-23.0","","img/animals/S1.jpg","49","1","Ns6,train","49","true","",""
"null","","html-keyboard-response","24","61752","0.0-24.0","","<img src=""img/animals/S1.jpg"" width=""540"" height = ""360"" style=""border:14px solid orange"">","null","","","","","",""
"null","","html-keyboard-response","25","61953","0.0-25.0","","","null","","","","","",""
"421","","image-keyboard-response","26","62376","0.0-26.0","","img/animals/S1.jpg","50","1","Ns6,train","49","false","",""
"null","","html-keyboard-response","27","62728","0.0-27.0","","<img src=""img/animals/S1.jpg"" width=""540"" height = ""360"">","null","","","","","",""
"null","","html-keyboard-response","28","62929","0.0-28.0","","","null","","","","","",""
"489.19999998807907","","image-keyboard-response","29","63421","0.0-29.0","","img/animals/S1.jpg","49","1","Ns6,train","49","true","",""
"null","","html-keyboard-response","30","63773","0.0-30.0","","<img src=""img/animals/S1.jpg"" width=""540"" height = ""360"" style=""border:14px solid orange"">","null","","","","","",""
"null","","html-keyboard-response","31","63974","0.0-31.0","","","null","","","","","",""
"594","","image-keyboard-response","32","64570","0.0-32.0","","img/animals/S6.jpg","54","6","Ns6,train","54","true","",""
"null","","html-keyboard-response","33","64922","0.0-33.0","","<img src=""img/animals/S6.jpg"" width=""540"" height = ""360"" style=""border:14px solid orange"">","null","","","","","",""
"null","","html-keyboard-response","34","65124","0.0-34.0","","","null","","","","","",""
"575.1000000238419","","image-keyboard-response","35","65700","0.0-35.0","","img/animals/S1.jpg","49","1","Ns6,train","49","true","",""
"null","","html-keyboard-response","36","66053","0.0-36.0","","<img src=""img/animals/S1.jpg"" width=""540"" height = ""360"" style=""border:14px solid orange"">","null","","","","","",""
"null","","html-keyboard-response","37","66254","0.0-37.0","","","null","","","","","",""
"532.6999999880791","","image-keyboard-response","38","66789","0.0-38.0","","img/animals/S2.jpg","50","2","Ns6,train","50","true","",""
"null","","html-keyboard-response","39","67141","0.0-39.0","","<img src=""img/animals/S2.jpg"" width=""540"" height = ""360"" style=""border:14px solid orange"">","null","","","","","",""
"null","","html-keyboard-response","40","67342","0.0-40.0","","","null","","","","","",""
"629.5","","image-keyboard-response","41","67974","0.0-41.0","","img/animals/S3.jpg","51","3","Ns6,train","51","true","",""
"null","","html-keyboard-response","42","68326","0.0-42.0","","<img src=""img/animals/S3.jpg"" width=""540"" height = ""360"" style=""border:14px solid orange"">","null","","","","","",""
"null","","html-keyboard-response","43","68528","0.0-43.0","","","null","","","","","",""
"933.1999999880791","","image-keyboard-response","44","69463","0.0-44.0","","img/animals/S5.jpg","52","5","Ns6,train","53","false","",""
"null","","html-keyboard-response","45","69816","0.0-45.0","","<img src=""img/animals/S5.jpg"" width=""540"" height = ""360"">","null","","","","","",""
"null","","html-keyboard-response","46","70017","0.0-46.0","","","null","","","","","",""
"1147.1000000238419","","image-keyboard-response","47","71166","0.0-47.0","","img/animals/S4.jpg","52","4","Ns6,train","52","true","",""
"null","","html-keyboard-response","48","71518","0.0-48.0","","<img src=""img/animals/S4.jpg"" width=""540"" height = ""360"" style=""border:14px solid orange"">","null","","","","","",""
"null","","html-keyboard-response","49","71719","0.0-49.0","","","null","","","","","",""
"633.1999999880791","","image-keyboard-response","50","72354","0.0-50.0","","img/animals/S6.jpg","54","6","Ns6,train","54","true","",""
"null","","html-keyboard-response","51","72707","0.0-51.0","","<img src=""img/animals/S6.jpg"" width=""540"" height = ""360"" style=""border:14px solid orange"">","null","","","","","",""
"null","","html-keyboard-response","52","72909","0.0-52.0","","","null","","","","","",""
"419.69999998807907","","image-keyboard-response","53","73330","0.0-53.0","","img/animals/S6.jpg","54","6","Ns6,train","54","true","",""
"null","","html-keyboard-response","54","73682","0.0-54.0","","<img src=""img/animals/S6.jpg"" width=""540"" height = ""360"" style=""border:14px solid orange"">","null","","","","","",""
"null","","html-keyboard-response","55","73884","0.0-55.0","","","null","","","","","",""
"651.6999999880791","","image-keyboard-response","56","74537","0.0-56.0","","img/animals/S2.jpg","50","2","Ns6,train","50","true","",""
"null","","html-keyboard-response","57","74889","0.0-57.0","","<img src=""img/animals/S2.jpg"" width=""540"" height = ""360"" style=""border:14px solid orange"">","null","","","","","",""
"null","","html-keyboard-response","58","75090","0.0-58.0","","","null","","","","","",""
"651.3000000119209","","image-keyboard-response","59","75743","0.0-59.0","","img/animals/S6.jpg","54","6","Ns6,train","54","true","",""
"null","","html-keyboard-response","60","76096","0.0-60.0","","<img src=""img/animals/S6.jpg"" width=""540"" height = ""360"" style=""border:14px solid orange"">","null","","","","","",""
"null","","html-keyboard-response","61","76297","0.0-61.0","","","null","","","","","",""
"564.8000000119209","","image-keyboard-response","62","76863","0.0-62.0","","img/animals/S2.jpg","50","2","Ns6,train","50","true","",""
"null","","html-keyboard-response","63","77216","0.0-63.0","","<img src=""img/animals/S2.jpg"" width=""540"" height = ""360"" style=""border:14px solid orange"">","null","","","","","",""
"null","","html-keyboard-response","64","77417","0.0-64.0","","","null","","","","","",""
"1041.800000011921","","image-keyboard-response","65","78461","0.0-65.0","","img/animals/S3.jpg","49","3","Ns6,train","51","false","",""
"null","","html-keyboard-response","66","78813","0.0-66.0","","<img src=""img/animals/S3.jpg"" width=""540"" height = ""360"">","null","","","","","",""
"null","","html-keyboard-response","67","79015","0.0-67.0","","","null","","","","","",""
"929.3999999761581","","image-keyboard-response","68","79946","0.0-68.0","","img/animals/S5.jpg","52","5","Ns6,train","53","false","",""
"null","","html-keyboard-response","69","80298","0.0-69.0","","<img src=""img/animals/S5.jpg"" width=""540"" height = ""360"">","null","","","","","",""
"null","","html-keyboard-response","70","80502","0.0-70.0","","","null","","","","","",""
"597.8000000119209","","image-keyboard-response","71","81102","0.0-71.0","","img/animals/S4.jpg","51","4","Ns6,train","52","false","",""
"null","","html-keyboard-response","72","81454","0.0-72.0","","<img src=""img/animals/S4.jpg"" width=""540"" height = ""360"">","null","","","","","",""
"null","","html-keyboard-response","73","81655","0.0-73.0","","","null","","","","","",""
"700.6999999880791","","image-keyboard-response","74","82357","0.0-74.0","","img/animals/S1.jpg","49","1","Ns6,train","49","true","",""
"null","","html-keyboard-response","75","82711","0.0-75.0","","<img src=""img/animals/S1.jpg"" width=""540"" height = ""360"" style=""border:14px solid orange"">","null","","","","","",""
"null","","html-keyboard-response","76","82912","0.0-76.0","","","null","","","","","",""
"791.5999999642372","","image-keyboard-response","77","83707","0.0-77.0","","img/animals/S3.jpg","50","3","Ns6,train","51","false","",""
"null","","html-keyboard-response","78","84059","0.0-78.0","","<img src=""img/animals/S3.jpg"" width=""540"" height = ""360"">","null","","","","","",""
"null","","html-keyboard-response","79","84261","0.0-79.0","","","null","","","","","",""
"1096.9000000357628","","image-keyboard-response","80","85359","0.0-80.0","","img/animals/S5.jpg","51","5","Ns6,train","53","false","",""
"null","","html-keyboard-response","81","85712","0.0-81.0","","<img src=""img/animals/S5.jpg"" width=""540"" height = ""360"">","null","","","","","",""
"null","","html-keyboard-response","82","85913","0.0-82.0","","","null","","","","","",""
"1180.5","","image-keyboard-response","83","87095","0.0-83.0","","img/animals/S4.jpg","52","4","Ns6,train","52","true","",""
"null","","html-keyboard-response","84","87448","0.0-84.0","","<img src=""img/animals/S4.jpg"" width=""540"" height = ""360"" style=""border:14px solid orange"">","null","","","","","",""
"null","","html-keyboard-response","85","87649","0.0-85.0","","","null","","","","","",""
"1071.699999988079","","image-keyboard-response","86","88722","0.0-86.0","","img/animals/S5.jpg","50","5","Ns6,train","53","false","",""
"null","","html-keyboard-response","87","89075","0.0-87.0","","<img src=""img/animals/S5.jpg"" width=""540"" height = ""360"">","null","","","","","",""
"null","","html-keyboard-response","88","89276","0.0-88.0","","","null","","","","","",""
"1101.699999988079","","image-keyboard-response","89","90380","0.0-89.0","","img/animals/S4.jpg","52","4","Ns6,train","52","true","",""
"null","","html-keyboard-response","90","90733","0.0-90.0","","<img src=""img/animals/S4.jpg"" width=""540"" height = ""360"" style=""border:14px solid orange"">","null","","","","","",""
"null","","html-keyboard-response","91","90935","0.0-91.0","","","null","","","","","",""
"1443.1000000238419","","image-keyboard-response","92","92380","0.0-92.0","","img/animals/S1.jpg","54","1","Ns6,train","49","false","",""
"null","","html-keyboard-response","93","92732","0.0-93.0","","<img src=""img/animals/S1.jpg"" width=""540"" height = ""360"">","null","","","","","",""
"null","","html-keyboard-response","94","92933","0.0-94.0","","","null","","","","","",""
"455","","image-keyboard-response","95","93390","0.0-95.0","","img/animals/S1.jpg","49","1","Ns6,train","49","true","",""
"null","","html-keyboard-response","96","93743","0.0-96.0","","<img src=""img/animals/S1.jpg"" width=""540"" height = ""360"" style=""border:14px solid orange"">","null","","","","","",""
"null","","html-keyboard-response","97","93944","0.0-97.0","","","null","","","","","",""
"874.6999999880791","","image-keyboard-response","98","94821","0.0-98.0","","img/animals/S5.jpg","51","5","Ns6,train","53","false","",""
"null","","html-keyboard-response","99","95173","0.0-99.0","","<img src=""img/animals/S5.jpg"" width=""540"" height = ""360"">","null","","","","","",""
"null","","html-keyboard-response","100","95375","0.0-100.0","","","null","","","","","",""
"1288.6000000238419","","image-keyboard-response","101","96665","0.0-101.0","","img/animals/S4.jpg","52","4","Ns6,train","52","true","",""
"null","","html-keyboard-response","102","97017","0.0-102.0","","<img src=""img/animals/S4.jpg"" width=""540"" height = ""360"" style=""border:14px solid orange"">","null","","","","","",""
"null","","html-keyboard-response","103","97219","0.0-103.0","","","null","","","","","",""
"739.8999999761581","","image-keyboard-response","104","97961","0.0-104.0","","img/animals/S1.jpg","49","1","Ns6,train","49","true","",""
"null","","html-keyboard-response","105","98314","0.0-105.0","","<img src=""img/animals/S1.jpg"" width=""540"" height = ""360"" style=""border:14px solid orange"">","null","","","","","",""
"null","","html-keyboard-response","106","98515","0.0-106.0","","","null","","","","","",""
"557.1999999880791","","image-keyboard-response","107","99074","0.0-107.0","","img/animals/S2.jpg","50","2","Ns6,train","50","true","",""
"null","","html-keyboard-response","108","99428","0.0-108.0","","<img src=""img/animals/S2.jpg"" width=""540"" height = ""360"" style=""border:14px solid orange"">","null","","","","","",""
"null","","html-keyboard-response","109","99630","0.0-109.0","","","null","","","","","",""
"985.0999999642372","","image-keyboard-response","110","100616","0.0-110.0","","img/animals/S1.jpg","49","1","Ns6,train","49","true","",""
"null","","html-keyboard-response","111","100969","0.0-111.0","","<img src=""img/animals/S1.jpg"" width=""540"" height = ""360"" style=""border:14px solid orange"">","null","","","","","",""
"null","","html-keyboard-response","112","101171","0.0-112.0","","","null","","","","","",""
"472.30000001192093","","image-keyboard-response","113","101645","0.0-113.0","","img/animals/S2.jpg","50","2","Ns6,train","50","true","",""
"null","","html-keyboard-response","114","101997","0.0-114.0","","<img src=""img/animals/S2.jpg"" width=""540"" height = ""360"" style=""border:14px solid orange"">","null","","","","","",""
"null","","html-keyboard-response","115","102198","0.0-115.0","","","null","","","","","",""
"512.1999999880791","","image-keyboard-response","116","102712","0.0-116.0","","img/animals/S2.jpg","50","2","Ns6,train","50","true","",""
"null","","html-keyboard-response","117","103064","0.0-117.0","","<img src=""img/animals/S2.jpg"" width=""540"" height = ""360"" style=""border:14px solid orange"">","null","","","","","",""
"null","","html-keyboard-response","118","103266","0.0-118.0","","","null","","","","","",""
"902","","image-keyboard-response","119","104170","0.0-119.0","","img/animals/S5.jpg","51","5","Ns6,train","53","false","",""
"null","","html-keyboard-response","120","104522","0.0-120.0","","<img src=""img/animals/S5.jpg"" width=""540"" height = ""360"">","null","","","","","",""
"null","","html-keyboard-response","121","104723","0.0-121.0","","","null","","","","","",""
"932.0999999642372","","image-keyboard-response","122","105658","0.0-122.0","","img/animals/S4.jpg","51","4","Ns6,train","52","false","",""
"null","","html-keyboard-response","123","106010","0.0-123.0","","<img src=""img/animals/S4.jpg"" width=""540"" height = ""360"">","null","","","","","",""
"null","","html-keyboard-response","124","106212","0.0-124.0","","","null","","","","","",""
"663.3999999761581","","image-keyboard-response","125","106877","0.0-125.0","","img/animals/S1.jpg","49","1","Ns6,train","49","true","",""
"null","","html-keyboard-response","126","107229","0.0-126.0","","<img src=""img/animals/S1.jpg"" width=""540"" height = ""360"" style=""border:14px solid orange"">","null","","","","","",""
"null","","html-keyboard-response","127","107430","0.0-127.0","","","null","","","","","",""
"666.1000000238419","","image-keyboard-response","128","108098","0.0-128.0","","img/animals/S6.jpg","54","6","Ns6,train","54","true","",""
"null","","html-keyboard-response","129","108451","0.0-129.0","","<img src=""img/animals/S6.jpg"" width=""540"" height = ""360"" style=""border:14px solid orange"">","null","","","","","",""
"null","","html-keyboard-response","130","108652","0.0-130.0","","","null","","","","","",""
"862.6000000238419","","image-keyboard-response","131","109517","0.0-131.0","","img/animals/S5.jpg","53","5","Ns6,train","53","true","",""
"null","","html-keyboard-response","132","109869","0.0-132.0","","<img src=""img/animals/S5.jpg"" width=""540"" height = ""360"" style=""border:14px solid orange"">","null","","","","","",""
"null","","html-keyboard-response","133","110070","0.0-133.0","","","null","","","","","",""
"1116.699999988079","","image-keyboard-response","134","111189","0.0-134.0","","img/animals/S4.jpg","52","4","Ns6,train","52","true","",""
"null","","html-keyboard-response","135","111542","0.0-135.0","","<img src=""img/animals/S4.jpg"" width=""540"" height = ""360"" style=""border:14px solid orange"">","null","","","","","",""
"null","","html-keyboard-response","136","111744","0.0-136.0","","","null","","","","","",""
"801.6999999880791","","image-keyboard-response","137","112547","0.0-137.0","","img/animals/S5.jpg","53","5","Ns6,train","53","true","",""
"null","","html-keyboard-response","138","112900","0.0-138.0","","<img src=""img/animals/S5.jpg"" width=""540"" height = ""360"" style=""border:14px solid orange"">","null","","","","","",""
"null","","html-keyboard-response","139","113101","0.0-139.0","","","null","","","","","",""
"433.10000002384186","","image-keyboard-response","140","113536","0.0-140.0","","img/animals/S4.jpg","52","4","Ns6,train","52","true","",""
"null","","html-keyboard-response","141","113888","0.0-141.0","","<img src=""img/animals/S4.jpg"" width=""540"" height = ""360"" style=""border:14px solid orange"">","null","","","","","",""
"null","","html-keyboard-response","142","114090","0.0-142.0","","","null","","","","","",""
"673.1000000238419","","image-keyboard-response","143","114765","0.0-143.0","","img/animals/S1.jpg","49","1","Ns6,train","49","true","",""
"null","","html-keyboard-response","144","115117","0.0-144.0","","<img src=""img/animals/S1.jpg"" width=""540"" height = ""360"" style=""border:14px solid orange"">","null","","","","","",""
"null","","html-keyboard-response","145","115319","0.0-145.0","","","null","","","","","",""
"1177.9000000357628","","image-keyboard-response","146","116499","0.0-146.0","","img/animals/S3.jpg","51","3","Ns6,train","51","true","",""
"null","","html-keyboard-response","147","116851","0.0-147.0","","<img src=""img/animals/S3.jpg"" width=""540"" height = ""360"" style=""border:14px solid orange"">","null","","","","","",""
"null","","html-keyboard-response","148","117053","0.0-148.0","","","null","","","","","",""
"673.8999999761581","","image-keyboard-response","149","117729","0.0-149.0","","img/animals/S1.jpg","49","1","Ns6,train","49","true","",""
"null","","html-keyboard-response","150","118081","0.0-150.0","","<img src=""img/animals/S1.jpg"" width=""540"" height = ""360"" style=""border:14px solid orange"">","null","","","","","",""
"null","","html-keyboard-response","151","118283","0.0-151.0","","","null","","","","","",""
"459.80000001192093","","image-keyboard-response","152","118745","0.0-152.0","","img/animals/S3.jpg","51","3","Ns6,train","51","true","",""
"null","","html-keyboard-response","153","119100","0.0-153.0","","<img src=""img/animals/S3.jpg"" width=""540"" height = ""360"" style=""border:14px solid orange"">","null","","","","","",""
"null","","html-keyboard-response","154","119302","0.0-154.0","","","null","","","","","",""
"420.80000001192093","","image-keyboard-response","155","119725","0.0-155.0","","img/animals/S5.jpg","49","5","Ns6,train","53","false","",""
"null","","html-keyboard-response","156","120077","0.0-156.0","","<img src=""img/animals/S5.jpg"" width=""540"" height = ""360"">","null","","","","","",""
"null","","html-keyboard-response","157","120278","0.0-157.0","","","null","","","","","",""
"1183","","image-keyboard-response","158","121463","0.0-158.0","","img/animals/S4.jpg","52","4","Ns6,train","52","true","",""
"null","","html-keyboard-response","159","121816","0.0-159.0","","<img src=""img/animals/S4.jpg"" width=""540"" height = ""360"" style=""border:14px solid orange"">","null","","","","","",""
"null","","html-keyboard-response","160","122017","0.0-160.0","","","null","","","","","",""
"981.5","","image-keyboard-response","161","123001","0.0-161.0","","img/animals/S5.jpg","53","5","Ns6,train","53","true","",""
"null","","html-keyboard-response","162","123353","0.0-162.0","","<img src=""img/animals/S5.jpg"" width=""540"" height = ""360"" style=""border:14px solid orange"">","null","","","","","",""
"null","","html-keyboard-response","163","123555","0.0-163.0","","","null","","","","","",""
"836.3000000119209","","image-keyboard-response","164","124393","0.0-164.0","","img/animals/S4.jpg","52","4","Ns6,train","52","true","",""
"null","","html-keyboard-response","165","124745","0.0-165.0","","<img src=""img/animals/S4.jpg"" width=""540"" height = ""360"" style=""border:14px solid orange"">","null","","","","","",""
"null","","html-keyboard-response","166","124946","0.0-166.0","","","null","","","","","",""
"734.3999999761581","","image-keyboard-response","167","125683","0.0-167.0","","img/animals/S3.jpg","51","3","Ns6,train","51","true","",""
"null","","html-keyboard-response","168","126035","0.0-168.0","","<img src=""img/animals/S3.jpg"" width=""540"" height = ""360"" style=""border:14px solid orange"">","null","","","","","",""
"null","","html-keyboard-response","169","126239","0.0-169.0","","","null","","","","","",""
"610.1000000238419","","image-keyboard-response","170","126852","0.0-170.0","","img/animals/S6.jpg","54","6","Ns6,train","54","true","",""
"null","","html-keyboard-response","171","127205","0.0-171.0","","<img src=""img/animals/S6.jpg"" width=""540"" height = ""360"" style=""border:14px solid orange"">","null","","","","","",""
"null","","html-keyboard-response","172","127406","0.0-172.0","","","null","","","","","",""
"708.3999999761581","","image-keyboard-response","173","128116","0.0-173.0","","img/animals/S1.jpg","49","1","Ns6,train","49","true","",""
"null","","html-keyboard-response","174","128468","0.0-174.0","","<img src=""img/animals/S1.jpg"" width=""540"" height = ""360"" style=""border:14px solid orange"">","null","","","","","",""
"null","","html-keyboard-response","175","128670","0.0-175.0","","","null","","","","","",""
"832.8000000119209","","image-keyboard-response","176","129504","0.0-176.0","","img/animals/S3.jpg","51","3","Ns6,train","51","true","",""
"null","","html-keyboard-response","177","129857","0.0-177.0","","<img src=""img/animals/S3.jpg"" width=""540"" height = ""360"" style=""border:14px solid orange"">","null","","","","","",""
"null","","html-keyboard-response","178","130058","0.0-178.0","","","null","","","","","",""
"547.5","","image-keyboard-response","179","130608","0.0-179.0","","img/animals/S6.jpg","54","6","Ns6,train","54","true","",""
"null","","html-keyboard-response","180","130960","0.0-180.0","","<img src=""img/animals/S6.jpg"" width=""540"" height = ""360"" style=""border:14px solid orange"">","null","","","","","",""
"null","","html-keyboard-response","181","131162","0.0-181.0","","","null","","","","","",""
"553.4000000357628","","image-keyboard-response","182","131717","0.0-182.0","","img/animals/S1.jpg","49","1","Ns6,train","49","true","",""
"null","","html-keyboard-response","183","132069","0.0-183.0","","<img src=""img/animals/S1.jpg"" width=""540"" height = ""360"" style=""border:14px solid orange"">","null","","","","","",""
"null","","html-keyboard-response","184","132271","0.0-184.0","","","null","","","","","",""
"594.8000000119209","","image-keyboard-response","185","132868","0.0-185.0","","img/animals/S2.jpg","50","2","Ns6,train","50","true","",""
"null","","html-keyboard-response","186","133220","0.0-186.0","","<img src=""img/animals/S2.jpg"" width=""540"" height = ""360"" style=""border:14px solid orange"">","null","","","","","",""
"null","","html-keyboard-response","187","133422","0.0-187.0","","","null","","","","","",""
"507.5","","image-keyboard-response","188","133931","0.0-188.0","","img/animals/S6.jpg","54","6","Ns6,train","54","true","",""
"null","","html-keyboard-response","189","134284","0.0-189.0","","<img src=""img/animals/S6.jpg"" width=""540"" height = ""360"" style=""border:14px solid orange"">","null","","","","","",""
"null","","html-keyboard-response","190","134486","0.0-190.0","","","null","","","","","",""
"754.5","","image-keyboard-response","191","135242","0.0-191.0","","img/animals/S5.jpg","53","5","Ns6,train","53","true","",""
"null","","html-keyboard-response","192","135594","0.0-192.0","","<img src=""img/animals/S5.jpg"" width=""540"" height = ""360"" style=""border:14px solid orange"">","null","","","","","",""
"null","","html-keyboard-response","193","135796","0.0-193.0","","","null","","","","","",""
"684.0999999642372","","image-keyboard-response","194","136482","0.0-194.0","","img/animals/S4.jpg","52","4","Ns6,train","52","true","",""
"null","","html-keyboard-response","195","136835","0.0-195.0","","<img src=""img/animals/S4.jpg"" width=""540"" height = ""360"" style=""border:14px solid orange"">","null","","","","","",""
"null","","html-keyboard-response","196","137036","0.0-196.0","","","null","","","","","",""
"548.3999999761581","","image-keyboard-response","197","137587","0.0-197.0","","img/animals/S2.jpg","51","2","Ns6,train","50","false","",""
"null","","html-keyboard-response","198","137939","0.0-198.0","","<img src=""img/animals/S2.jpg"" width=""540"" height = ""360"">","null","","","","","",""
"null","","html-keyboard-response","199","138143","0.0-199.0","","","null","","","","","",""
"798.3999999761581","","image-keyboard-response","200","138943","0.0-200.0","","img/animals/S5.jpg","52","5","Ns6,train","53","false","",""
"null","","html-keyboard-response","201","139295","0.0-201.0","","<img src=""img/animals/S5.jpg"" width=""540"" height = ""360"">","null","","","","","",""
"null","","html-keyboard-response","202","139497","0.0-202.0","","","null","","","","","",""
"807.9000000357628","","image-keyboard-response","203","140307","0.0-203.0","","img/animals/S4.jpg","53","4","Ns6,train","52","false","",""
"null","","html-keyboard-response","204","140659","0.0-204.0","","<img src=""img/animals/S4.jpg"" width=""540"" height = ""360"">","null","","","","","",""
"null","","html-keyboard-response","205","140860","0.0-205.0","","","null","","","","","",""
"588.3000000119209","","image-keyboard-response","206","141451","0.0-206.0","","img/animals/S1.jpg","49","1","Ns6,train","49","true","",""
"null","","html-keyboard-response","207","141804","0.0-207.0","","<img src=""img/animals/S1.jpg"" width=""540"" height = ""360"" style=""border:14px solid orange"">","null","","","","","",""
"null","","html-keyboard-response","208","142005","0.0-208.0","","","null","","","","","",""
"552.3000000119209","","image-keyboard-response","209","142559","0.0-209.0","","img/animals/S6.jpg","54","6","Ns6,train","54","true","",""
"null","","html-keyboard-response","210","142913","0.0-210.0","","<img src=""img/animals/S6.jpg"" width=""540"" height = ""360"" style=""border:14px solid orange"">","null","","","","","",""
"null","","html-keyboard-response","211","143114","0.0-211.0","","","null","","","","","",""
"423.10000002384186","","image-keyboard-response","212","143539","0.0-212.0","","img/animals/S6.jpg","54","6","Ns6,train","54","true","",""
"null","","html-keyboard-response","213","143892","0.0-213.0","","<img src=""img/animals/S6.jpg"" width=""540"" height = ""360"" style=""border:14px solid orange"">","null","","","","","",""
"null","","html-keyboard-response","214","144094","0.0-214.0","","","null","","","","","",""
"655.6000000238419","","image-keyboard-response","215","144752","0.0-215.0","","img/animals/S2.jpg","50","2","Ns6,train","50","true","",""
"null","","html-keyboard-response","216","145105","0.0-216.0","","<img src=""img/animals/S2.jpg"" width=""540"" height = ""360"" style=""border:14px solid orange"">","null","","","","","",""
"null","","html-keyboard-response","217","145306","0.0-217.0","","","null","","","","","",""
"1039.300000011921","","image-keyboard-response","218","146347","0.0-218.0","","img/animals/S1.jpg","51","1","Ns6,train","49","false","",""
"null","","html-keyboard-response","219","146700","0.0-219.0","","<img src=""img/animals/S1.jpg"" width=""540"" height = ""360"">","null","","","","","",""
"null","","html-keyboard-response","220","146902","0.0-220.0","","","null","","","","","",""
"567.2999999523163","","image-keyboard-response","221","147471","0.0-221.0","","img/animals/S2.jpg","50","2","Ns6,train","50","true","",""
"null","","html-keyboard-response","222","147823","0.0-222.0","","<img src=""img/animals/S2.jpg"" width=""540"" height = ""360"" style=""border:14px solid orange"">","null","","","","","",""
"null","","html-keyboard-response","223","148025","0.0-223.0","","","null","","","","","",""
"1036.2000000476837","","image-keyboard-response","224","149063","0.0-224.0","","img/animals/S5.jpg","52","5","Ns6,train","53","false","",""
"null","","html-keyboard-response","225","149416","0.0-225.0","","<img src=""img/animals/S5.jpg"" width=""540"" height = ""360"">","null","","","","","",""
"null","","html-keyboard-response","226","149618","0.0-226.0","","","null","","","","","",""
"841.9000000357628","","image-keyboard-response","227","150461","0.0-227.0","","img/animals/S4.jpg","51","4","Ns6,train","52","false","",""
"null","","html-keyboard-response","228","150813","0.0-228.0","","<img src=""img/animals/S4.jpg"" width=""540"" height = ""360"">","null","","","","","",""
"null","","html-keyboard-response","229","151016","0.0-229.0","","","null","","","","","",""
"539.3999999761581","","image-keyboard-response","230","151557","0.0-230.0","","img/animals/S1.jpg","49","1","Ns6,train","49","true","",""
"null","","html-keyboard-response","231","151910","0.0-231.0","","<img src=""img/animals/S1.jpg"" width=""540"" height = ""360"" style=""border:14px solid orange"">","null","","","","","",""
"null","","html-keyboard-response","232","152111","0.0-232.0","","","null","","","","","",""
"828.5","","image-keyboard-response","233","152942","0.0-233.0","","img/animals/S3.jpg","51","3","Ns6,train","51","true","",""
"null","","html-keyboard-response","234","153294","0.0-234.0","","<img src=""img/animals/S3.jpg"" width=""540"" height = ""360"" style=""border:14px solid orange"">","null","","","","","",""
"null","","html-keyboard-response","235","153496","0.0-235.0","","","null","","","","","",""
"449.0999999642372","","image-keyboard-response","236","153947","0.0-236.0","","img/animals/S3.jpg","51","3","Ns6,train","51","true","",""
"null","","html-keyboard-response","237","154299","0.0-237.0","","<img src=""img/animals/S3.jpg"" width=""540"" height = ""360"" style=""border:14px solid orange"">","null","","","","","",""
"null","","html-keyboard-response","238","154500","0.0-238.0","","","null","","","","","",""
"550.4000000357628","","image-keyboard-response","239","155052","0.0-239.0","","img/animals/S2.jpg","50","2","Ns6,train","50","true","",""
"null","","html-keyboard-response","240","155405","0.0-240.0","","<img src=""img/animals/S2.jpg"" width=""540"" height = ""360"" style=""border:14px solid orange"">","null","","","","","",""
"null","","html-keyboard-response","241","155606","0.0-241.0","","","null","","","","","",""
"547.8999999761581","","image-keyboard-response","242","156156","0.0-242.0","","img/animals/S6.jpg","54","6","Ns6,train","54","true","",""
"null","","html-keyboard-response","243","156508","0.0-243.0","","<img src=""img/animals/S6.jpg"" width=""540"" height = ""360"" style=""border:14px solid orange"">","null","","","","","",""
"null","","html-keyboard-response","244","156710","0.0-244.0","","","null","","","","","",""
"718","","image-keyboard-response","245","157430","0.0-245.0","","img/animals/S2.jpg","50","2","Ns6,train","50","true","",""
"null","","html-keyboard-response","246","157782","0.0-246.0","","<img src=""img/animals/S2.jpg"" width=""540"" height = ""360"" style=""border:14px solid orange"">","null","","","","","",""
"null","","html-keyboard-response","247","157987","0.0-247.0","","","null","","","","","",""
"971.7000000476837","","image-keyboard-response","248","158960","0.0-248.0","","img/animals/S3.jpg","53","3","Ns6,train","51","false","",""
"null","","html-keyboard-response","249","159312","0.0-249.0","","<img src=""img/animals/S3.jpg"" width=""540"" height = ""360"">","null","","","","","",""
"null","","html-keyboard-response","250","159514","0.0-250.0","","","null","","","","","",""
"894.4000000357628","","image-keyboard-response","251","160410","0.0-251.0","","img/animals/S3.jpg","51","3","Ns6,train","51","true","",""
"null","","html-keyboard-response","252","160762","0.0-252.0","","<img src=""img/animals/S3.jpg"" width=""540"" height = ""360"" style=""border:14px solid orange"">","null","","","","","",""
"null","","html-keyboard-response","253","160964","0.0-253.0","","","null","","","","","",""
"599.0999999642372","","image-keyboard-response","254","161565","0.0-254.0","","img/animals/S6.jpg","54","6","Ns6,train","54","true","",""
"null","","html-keyboard-response","255","161917","0.0-255.0","","<img src=""img/animals/S6.jpg"" width=""540"" height = ""360"" style=""border:14px solid orange"">","null","","","","","",""
"null","","html-keyboard-response","256","162119","0.0-256.0","","","null","","","","","",""
"621.1999999880791","","image-keyboard-response","257","162742","0.0-257.0","","img/animals/S2.jpg","50","2","Ns6,train","50","true","",""
"null","","html-keyboard-response","258","163094","0.0-258.0","","<img src=""img/animals/S2.jpg"" width=""540"" height = ""360"" style=""border:14px solid orange"">","null","","","","","",""
"null","","html-keyboard-response","259","163296","0.0-259.0","","","null","","","","","",""
"568.7999999523163","","image-keyboard-response","260","163866","0.0-260.0","","img/animals/S2.jpg","50","2","Ns6,train","50","true","",""
"null","","html-keyboard-response","261","164219","0.0-261.0","","<img src=""img/animals/S2.jpg"" width=""540"" height = ""360"" style=""border:14px solid orange"">","null","","","","","",""
"null","","html-keyboard-response","262","164423","0.0-262.0","","","null","","","","","",""
"571.3000000119209","","image-keyboard-response","263","164996","0.0-263.0","","img/animals/S6.jpg","54","6","Ns6,train","54","true","",""
"null","","html-keyboard-response","264","165348","0.0-264.0","","<img src=""img/animals/S6.jpg"" width=""540"" height = ""360"" style=""border:14px solid orange"">","null","","","","","",""
"null","","html-keyboard-response","265","165550","0.0-265.0","","","null","","","","","",""
"751.1000000238419","","image-keyboard-response","266","166303","0.0-266.0","","img/animals/S2.jpg","50","2","Ns6,train","50","true","",""
"null","","html-keyboard-response","267","166656","0.0-267.0","","<img src=""img/animals/S2.jpg"" width=""540"" height = ""360"" style=""border:14px solid orange"">","null","","","","","",""
"null","","html-keyboard-response","268","166858","0.0-268.0","","","null","","","","","",""
"826.1000000238419","","image-keyboard-response","269","167686","0.0-269.0","","img/animals/S3.jpg","51","3","Ns6,train","51","true","",""
"null","","html-keyboard-response","270","168038","0.0-270.0","","<img src=""img/animals/S3.jpg"" width=""540"" height = ""360"" style=""border:14px solid orange"">","null","","","","","",""
"null","","html-keyboard-response","271","168240","0.0-271.0","","","null","","","","","",""
"648","","image-keyboard-response","272","168890","0.0-272.0","","img/animals/S2.jpg","50","2","Ns6,train","50","true","",""
"null","","html-keyboard-response","273","169245","0.0-273.0","","<img src=""img/animals/S2.jpg"" width=""540"" height = ""360"" style=""border:14px solid orange"">","null","","","","","",""
"null","","html-keyboard-response","274","169447","0.0-274.0","","","null","","","","","",""
"1417.8999999761581","","image-keyboard-response","275","170866","0.0-275.0","","img/animals/S3.jpg","51","3","Ns6,train","51","true","",""
"null","","html-keyboard-response","276","171219","0.0-276.0","","<img src=""img/animals/S3.jpg"" width=""540"" height = ""360"" style=""border:14px solid orange"">","null","","","","","",""
"null","","html-keyboard-response","277","171421","0.0-277.0","","","null","","","","","",""
"597","","image-keyboard-response","278","172020","0.0-278.0","","img/animals/S6.jpg","54","6","Ns6,train","54","true","",""
"null","","html-keyboard-response","279","172372","0.0-279.0","","<img src=""img/animals/S6.jpg"" width=""540"" height = ""360"" style=""border:14px solid orange"">","null","","","","","",""
"null","","html-keyboard-response","280","172574","0.0-280.0","","","null","","","","","",""
"599.3000000119209","","image-keyboard-response","281","173175","0.0-281.0","","img/animals/S3.jpg","51","3","Ns6,train","51","true","",""
"null","","html-keyboard-response","282","173528","0.0-282.0","","<img src=""img/animals/S3.jpg"" width=""540"" height = ""360"" style=""border:14px solid orange"">","null","","","","","",""
"null","","html-keyboard-response","283","173730","0.0-283.0","","","null","","","","","",""
"789.1000000238419","","image-keyboard-response","284","174521","0.0-284.0","","img/animals/S6.jpg","54","6","Ns6,train","54","true","",""
"null","","html-keyboard-response","285","174873","0.0-285.0","","<img src=""img/animals/S6.jpg"" width=""540"" height = ""360"" style=""border:14px solid orange"">","null","","","","","",""
"null","","html-keyboard-response","286","175074","0.0-286.0","","","null","","","","","",""
"990.6999999880791","","image-keyboard-response","287","176067","0.0-287.0","","img/animals/S5.jpg","53","5","Ns6,train","53","true","",""
"null","","html-keyboard-response","288","176419","0.0-288.0","","<img src=""img/animals/S5.jpg"" width=""540"" height = ""360"" style=""border:14px solid orange"">","null","","","","","",""
"null","","html-keyboard-response","289","176622","0.0-289.0","","","null","","","","","",""
"742.8000000119209","","image-keyboard-response","290","177368","0.0-290.0","","img/animals/S4.jpg","52","4","Ns6,train","52","true","",""
"null","","html-keyboard-response","291","177720","0.0-291.0","","<img src=""img/animals/S4.jpg"" width=""540"" height = ""360"" style=""border:14px solid orange"">","null","","","","","",""
"null","","html-keyboard-response","292","177921","0.0-292.0","","","null","","","","","",""
"713.3000000119209","","image-keyboard-response","293","178636","0.0-293.0","","img/animals/S5.jpg","53","5","Ns6,train","53","true","",""
"null","","html-keyboard-response","294","178989","0.0-294.0","","<img src=""img/animals/S5.jpg"" width=""540"" height = ""360"" style=""border:14px solid orange"">","null","","","","","",""
"null","","html-keyboard-response","295","179191","0.0-295.0","","","null","","","","","",""
"419.5","","image-keyboard-response","296","179613","0.0-296.0","","img/animals/S4.jpg","52","4","Ns6,train","52","true","",""
"null","","html-keyboard-response","297","179965","0.0-297.0","","<img src=""img/animals/S4.jpg"" width=""540"" height = ""360"" style=""border:14px solid orange"">","null","","","","","",""
"null","","html-keyboard-response","298","180167","0.0-298.0","","","null","","","","","",""
"866.2000000476837","","image-keyboard-response","299","181036","0.0-299.0","","img/animals/S3.jpg","51","3","Ns6,train","51","true","",""
"null","","html-keyboard-response","300","181388","0.0-300.0","","<img src=""img/animals/S3.jpg"" width=""540"" height = ""360"" style=""border:14px solid orange"">","null","","","","","",""
"null","","html-keyboard-response","301","181589","0.0-301.0","","","null","","","","","",""
"1229.199999988079","","image-keyboard-response","302","182820","0.0-302.0","","img/animals/S5.jpg","52","5","Ns6,train","53","false","",""
"null","","html-keyboard-response","303","183172","0.0-303.0","","<img src=""img/animals/S5.jpg"" width=""540"" height = ""360"">","null","","","","","",""
"null","","html-keyboard-response","304","183374","0.0-304.0","","","null","","","","","",""
"872.9000000357628","","image-keyboard-response","305","184249","0.0-305.0","","img/animals/S4.jpg","52","4","Ns6,train","52","true","",""
"null","","html-keyboard-response","306","184602","0.0-306.0","","<img src=""img/animals/S4.jpg"" width=""540"" height = ""360"" style=""border:14px solid orange"">","null","","","","","",""
"null","","html-keyboard-response","307","184803","0.0-307.0","","","null","","","","","",""
"740.3999999761581","","image-keyboard-response","308","185546","0.0-308.0","","img/animals/S3.jpg","51","3","Ns6,train","51","true","",""
"null","","html-keyboard-response","309","185898","0.0-309.0","","<img src=""img/animals/S3.jpg"" width=""540"" height = ""360"" style=""border:14px solid orange"">","null","","","","","",""
"null","","html-keyboard-response","310","186100","0.0-310.0","","","null","","","","","",""
"749.3999999761581","","image-keyboard-response","311","186851","0.0-311.0","","img/animals/S1.jpg","49","1","Ns6,train","49","true","",""
"null","","html-keyboard-response","312","187204","0.0-312.0","","<img src=""img/animals/S1.jpg"" width=""540"" height = ""360"" style=""border:14px solid orange"">","null","","","","","",""
"null","","html-keyboard-response","313","187406","0.0-313.0","","","null","","","","","",""
"559.8000000119209","","image-keyboard-response","314","187968","0.0-314.0","","img/animals/S6.jpg","54","6","Ns6,train","54","true","",""
"null","","html-keyboard-response","315","188320","0.0-315.0","","<img src=""img/animals/S6.jpg"" width=""540"" height = ""360"" style=""border:14px solid orange"">","null","","","","","",""
"null","","html-keyboard-response","316","188522","0.0-316.0","","","null","","","","","",""
"598.3000000119209","","image-keyboard-response","317","189122","0.0-317.0","","img/animals/S2.jpg","50","2","Ns6,train","50","true","",""
"null","","html-keyboard-response","318","189474","0.0-318.0","","<img src=""img/animals/S2.jpg"" width=""540"" height = ""360"" style=""border:14px solid orange"">","null","","","","","",""
"null","","html-keyboard-response","319","189676","0.0-319.0","","","null","","","","","",""
"720.6000000238419","","image-keyboard-response","320","190399","0.0-320.0","","img/animals/S5.jpg","52","5","Ns6,train","53","false","",""
"null","","html-keyboard-response","321","190751","0.0-321.0","","<img src=""img/animals/S5.jpg"" width=""540"" height = ""360"">","null","","","","","",""
"null","","html-keyboard-response","322","190953","0.0-322.0","","","null","","","","","",""
"672.8999999761581","","image-keyboard-response","323","191628","0.0-323.0","","img/animals/S4.jpg","52","4","Ns6,train","52","true","",""
"null","","html-keyboard-response","324","191981","0.0-324.0","","<img src=""img/animals/S4.jpg"" width=""540"" height = ""360"" style=""border:14px solid orange"">","null","","","","","",""
"null","","html-keyboard-response","325","192182","0.0-325.0","","","null","","","","","",""
"1393.199999988079","","image-keyboard-response","326","193577","0.0-326.0","","img/animals/S6.jpg","54","6","Ns6,train","54","true","",""
"null","","html-keyboard-response","327","193930","0.0-327.0","","<img src=""img/animals/S6.jpg"" width=""540"" height = ""360"" style=""border:14px solid orange"">","null","","","","","",""
"null","","html-keyboard-response","328","194132","0.0-328.0","","","null","","","","","",""
"640.8999999761581","","image-keyboard-response","329","194775","0.0-329.0","","img/animals/S5.jpg","53","5","Ns6,train","53","true","",""
"null","","html-keyboard-response","330","195127","0.0-330.0","","<img src=""img/animals/S5.jpg"" width=""540"" height = ""360"" style=""border:14px solid orange"">","null","","","","","",""
"null","","html-keyboard-response","331","195329","0.0-331.0","","","null","","","","","",""
"426.4000000357628","","image-keyboard-response","332","195757","0.0-332.0","","img/animals/S4.jpg","52","4","Ns6,train","52","true","",""
"null","","html-keyboard-response","333","196110","0.0-333.0","","<img src=""img/animals/S4.jpg"" width=""540"" height = ""360"" style=""border:14px solid orange"">","null","","","","","",""
"null","","html-keyboard-response","334","196312","0.0-334.0","","","null","","","","","",""
"684.2999999523163","","image-keyboard-response","335","196998","0.0-335.0","","img/animals/S1.jpg","49","1","Ns6,train","49","true","",""
"null","","html-keyboard-response","336","197351","0.0-336.0","","<img src=""img/animals/S1.jpg"" width=""540"" height = ""360"" style=""border:14px solid orange"">","null","","","","","",""
"null","","html-keyboard-response","337","197552","0.0-337.0","","","null","","","","","",""
"830.3000000119209","","image-keyboard-response","338","198385","0.0-338.0","","img/animals/S3.jpg","51","3","Ns6,train","51","true","",""
"null","","html-keyboard-response","339","198737","0.0-339.0","","<img src=""img/animals/S3.jpg"" width=""540"" height = ""360"" style=""border:14px solid orange"">","null","","","","","",""
"null","","html-keyboard-response","340","198939","0.0-340.0","","","null","","","","","",""
"658","","image-keyboard-response","341","199600","0.0-341.0","","img/animals/S5.jpg","53","5","Ns6,train","53","true","",""
"null","","html-keyboard-response","342","199952","0.0-342.0","","<img src=""img/animals/S5.jpg"" width=""540"" height = ""360"" style=""border:14px solid orange"">","null","","","","","",""
"null","","html-keyboard-response","343","200154","0.0-343.0","","","null","","","","","",""
"537.8000000119209","","image-keyboard-response","344","200694","0.0-344.0","","img/animals/S4.jpg","52","4","Ns6,train","52","true","",""
"null","","html-keyboard-response","345","201046","0.0-345.0","","<img src=""img/animals/S4.jpg"" width=""540"" height = ""360"" style=""border:14px solid orange"">","null","","","","","",""
"null","","html-keyboard-response","346","201248","0.0-346.0","","","null","","","","","",""
"591.6000000238419","","image-keyboard-response","347","201842","0.0-347.0","","img/animals/S6.jpg","54","6","Ns6,train","54","true","",""
"null","","html-keyboard-response","348","202195","0.0-348.0","","<img src=""img/animals/S6.jpg"" width=""540"" height = ""360"" style=""border:14px solid orange"">","null","","","","","",""
"null","","html-keyboard-response","349","202397","0.0-349.0","","","null","","","","","",""
"596.5","","image-keyboard-response","350","202995","0.0-350.0","","img/animals/S3.jpg","50","3","Ns6,train","51","false","",""
"null","","html-keyboard-response","351","203347","0.0-351.0","","<img src=""img/animals/S3.jpg"" width=""540"" height = ""360"">","null","","","","","",""
"null","","html-keyboard-response","352","203549","0.0-352.0","","","null","","","","","",""
"768.7000000476837","","image-keyboard-response","353","204320","0.0-353.0","","img/animals/S5.jpg","53","5","Ns6,train","53","true","",""
"null","","html-keyboard-response","354","204672","0.0-354.0","","<img src=""img/animals/S5.jpg"" width=""540"" height = ""360"" style=""border:14px solid orange"">","null","","","","","",""
"null","","html-keyboard-response","355","204874","0.0-355.0","","","null","","","","","",""
"422.5","","image-keyboard-response","356","205298","0.0-356.0","","img/animals/S4.jpg","52","4","Ns6,train","52","true","",""
"null","","html-keyboard-response","357","205651","0.0-357.0","","<img src=""img/animals/S4.jpg"" width=""540"" height = ""360"" style=""border:14px solid orange"">","null","","","","","",""
"null","","html-keyboard-response","358","205852","0.0-358.0","","","null","","","","","",""
"670.6999999880791","","image-keyboard-response","359","206525","0.0-359.0","","img/animals/S1.jpg","49","1","Ns6,train","49","true","",""
"null","","html-keyboard-response","360","206878","0.0-360.0","","<img src=""img/animals/S1.jpg"" width=""540"" height = ""360"" style=""border:14px solid orange"">","null","","","","","",""
"null","","html-keyboard-response","361","207079","0.0-361.0","","","null","","","","","",""
"1415.5999999642372","","html-keyboard-response","362","208497","0.0-362.0","","<p class=""center-content"">You have completed a block! </p><p class=""center-content"">Press any key on the keyboard to continue to the next block,</p><p class=""center-content"">or wait for the automatic progression to the next block after one minute.</p>","32","","","","","",""
"1370.699999988079","","image-keyboard-response","363","209869","0.0-363.0","","img/animals/S3.jpg","51","3","Ns6,perform","51","true","",""
"null","","html-keyboard-response","364","210223","0.0-364.0","","<img src=""img/animals/S3.jpg"" width=""540"" height = ""360"" style=""border:14px solid orange"">","null","","","","","",""
"null","","html-keyboard-response","365","210425","0.0-365.0","","","null","","","","","",""
"566.8999999761581","","image-keyboard-response","366","210994","0.0-366.0","","img/animals/S6.jpg","54","6","Ns6,perform","54","true","",""
"null","","html-keyboard-response","367","211346","0.0-367.0","","<img src=""img/animals/S6.jpg"" width=""540"" height = ""360"" style=""border:14px solid orange"">","null","","","","","",""
"null","","html-keyboard-response","368","211548","0.0-368.0","","","null","","","","","",""
"389.39999997615814","","image-keyboard-response","369","211939","0.0-369.0","","img/animals/S6.jpg","54","6","Ns6,perform","54","true","",""
"null","","html-keyboard-response","370","212291","0.0-370.0","","<img src=""img/animals/S6.jpg"" width=""540"" height = ""360"" style=""border:14px solid orange"">","null","","","","","",""
"null","","html-keyboard-response","371","212493","0.0-371.0","","","null","","","","","",""
"375.19999998807907","","image-keyboard-response","372","212870","0.0-372.0","","img/animals/S6.jpg","54","6","Ns6,perform","54","true","",""
"null","","html-keyboard-response","373","213223","0.0-373.0","","<img src=""img/animals/S6.jpg"" width=""540"" height = ""360"" style=""border:14px solid orange"">","null","","","","","",""
"null","","html-keyboard-response","374","213425","0.0-374.0","","","null","","","","","",""
"578","","image-keyboard-response","375","214005","0.0-375.0","","img/animals/S2.jpg","50","2","Ns6,perform","50","true","",""
"null","","html-keyboard-response","376","214358","0.0-376.0","","<img src=""img/animals/S2.jpg"" width=""540"" height = ""360"" style=""border:14px solid orange"">","null","","","","","",""
"null","","html-keyboard-response","377","214560","0.0-377.0","","","null","","","","","",""
"538.6000000238419","","image-keyboard-response","378","215101","0.0-378.0","","img/animals/S6.jpg","54","6","Ns6,perform","54","true","",""
"null","","html-keyboard-response","379","215453","0.0-379.0","","<img src=""img/animals/S6.jpg"" width=""540"" height = ""360"" style=""border:14px solid orange"">","null","","","","","",""
"null","","html-keyboard-response","380","215654","0.0-380.0","","","null","","","","","",""
"428.39999997615814","","image-keyboard-response","381","216085","0.0-381.0","","img/animals/S6.jpg","54","6","Ns6,perform","54","true","",""
"null","","html-keyboard-response","382","216438","0.0-382.0","","<img src=""img/animals/S6.jpg"" width=""540"" height = ""360"" style=""border:14px solid orange"">","null","","","","","",""
"null","","html-keyboard-response","383","216640","0.0-383.0","","","null","","","","","",""
"728.1999999880791","","image-keyboard-response","384","217370","0.0-384.0","","img/animals/S3.jpg","51","3","Ns6,perform","51","true","",""
"null","","html-keyboard-response","385","217723","0.0-385.0","","<img src=""img/animals/S3.jpg"" width=""540"" height = ""360"" style=""border:14px solid orange"">","null","","","","","",""
"null","","html-keyboard-response","386","217925","0.0-386.0","","","null","","","","","",""
"606.5","","image-keyboard-response","387","218533","0.0-387.0","","img/animals/S6.jpg","54","6","Ns6,perform","54","true","",""
"null","","html-keyboard-response","388","218885","0.0-388.0","","<img src=""img/animals/S6.jpg"" width=""540"" height = ""360"" style=""border:14px solid orange"">","null","","","","","",""
"null","","html-keyboard-response","389","219087","0.0-389.0","","","null","","","","","",""
"898.8999999761581","","image-keyboard-response","390","219990","0.0-390.0","","img/animals/S5.jpg","53","5","Ns6,perform","53","true","",""
"null","","html-keyboard-response","391","220342","0.0-391.0","","<img src=""img/animals/S5.jpg"" width=""540"" height = ""360"" style=""border:14px solid orange"">","null","","","","","",""
"null","","html-keyboard-response","392","220544","0.0-392.0","","","null","","","","","",""
"527.6999999880791","","image-keyboard-response","393","221074","0.0-393.0","","img/animals/S4.jpg","52","4","Ns6,perform","52","true","",""
"null","","html-keyboard-response","394","221426","0.0-394.0","","<img src=""img/animals/S4.jpg"" width=""540"" height = ""360"" style=""border:14px solid orange"">","null","","","","","",""
"null","","html-keyboard-response","395","221628","0.0-395.0","","","null","","","","","",""
"485.10000002384186","","image-keyboard-response","396","222115","0.0-396.0","","img/animals/S5.jpg","52","5","Ns6,perform","53","false","",""
"null","","html-keyboard-response","397","222468","0.0-397.0","","<img src=""img/animals/S5.jpg"" width=""540"" height = ""360"">","null","","","","","",""
"null","","html-keyboard-response","398","222670","0.0-398.0","","","null","","","","","",""
"455.0999999642372","","image-keyboard-response","399","223127","0.0-399.0","","img/animals/S4.jpg","53","4","Ns6,perform","52","false","",""
"null","","html-keyboard-response","400","223480","0.0-400.0","","<img src=""img/animals/S4.jpg"" width=""540"" height = ""360"">","null","","","","","",""
"null","","html-keyboard-response","401","223681","0.0-401.0","","","null","","","","","",""
"610.6999999880791","","image-keyboard-response","402","224294","0.0-402.0","","img/animals/S2.jpg","50","2","Ns6,perform","50","true","",""
"null","","html-keyboard-response","403","224646","0.0-403.0","","<img src=""img/animals/S2.jpg"" width=""540"" height = ""360"" style=""border:14px solid orange"">","null","","","","","",""
"null","","html-keyboard-response","404","224848","0.0-404.0","","","null","","","","","",""
"471.30000001192093","","image-keyboard-response","405","225321","0.0-405.0","","img/animals/S2.jpg","50","2","Ns6,perform","50","true","",""
"null","","html-keyboard-response","406","225674","0.0-406.0","","<img src=""img/animals/S2.jpg"" width=""540"" height = ""360"" style=""border:14px solid orange"">","null","","","","","",""
"null","","html-keyboard-response","407","225876","0.0-407.0","","","null","","","","","",""
"597.6999999880791","","image-keyboard-response","408","226475","0.0-408.0","","img/animals/S1.jpg","49","1","Ns6,perform","49","true","",""
"null","","html-keyboard-response","409","226828","0.0-409.0","","<img src=""img/animals/S1.jpg"" width=""540"" height = ""360"" style=""border:14px solid orange"">","null","","","","","",""
"null","","html-keyboard-response","410","227030","0.0-410.0","","","null","","","","","",""
"714.0999999642372","","image-keyboard-response","411","227746","0.0-411.0","","img/animals/S5.jpg","52","5","Ns6,perform","53","false","",""
"null","","html-keyboard-response","412","228099","0.0-412.0","","<img src=""img/animals/S5.jpg"" width=""540"" height = ""360"">","null","","","","","",""
"null","","html-keyboard-response","413","228301","0.0-413.0","","","null","","","","","",""
"617.3000000119209","","image-keyboard-response","414","228920","0.0-414.0","","img/animals/S4.jpg","52","4","Ns6,perform","52","true","",""
"null","","html-keyboard-response","415","229272","0.0-415.0","","<img src=""img/animals/S4.jpg"" width=""540"" height = ""360"" style=""border:14px solid orange"">","null","","","","","",""
"null","","html-keyboard-response","416","229474","0.0-416.0","","","null","","","","","",""
"386.0999999642372","","image-keyboard-response","417","229862","0.0-417.0","","img/animals/S5.jpg","53","5","Ns6,perform","53","true","",""
"null","","html-keyboard-response","418","230215","0.0-418.0","","<img src=""img/animals/S5.jpg"" width=""540"" height = ""360"" style=""border:14px solid orange"">","null","","","","","",""
"null","","html-keyboard-response","419","230419","0.0-419.0","","","null","","","","","",""
"467.5","","image-keyboard-response","420","230889","0.0-420.0","","img/animals/S4.jpg","52","4","Ns6,perform","52","true","",""
"null","","html-keyboard-response","421","231243","0.0-421.0","","<img src=""img/animals/S4.jpg"" width=""540"" height = ""360"" style=""border:14px solid orange"">","null","","","","","",""
"null","","html-keyboard-response","422","231444","0.0-422.0","","","null","","","","","",""
"385.5999999642372","","image-keyboard-response","423","231832","0.0-423.0","","img/animals/S5.jpg","53","5","Ns6,perform","53","true","",""
"null","","html-keyboard-response","424","232184","0.0-424.0","","<img src=""img/animals/S5.jpg"" width=""540"" height = ""360"" style=""border:14px solid orange"">","null","","","","","",""
"null","","html-keyboard-response","425","232386","0.0-425.0","","","null","","","","","",""
"642.8000000119209","","image-keyboard-response","426","233031","0.0-426.0","","img/animals/S4.jpg","52","4","Ns6,perform","52","true","",""
"null","","html-keyboard-response","427","233384","0.0-427.0","","<img src=""img/animals/S4.jpg"" width=""540"" height = ""360"" style=""border:14px solid orange"">","null","","","","","",""
"null","","html-keyboard-response","428","233586","0.0-428.0","","","null","","","","","",""
"705.3999999761581","","image-keyboard-response","429","234293","0.0-429.0","","img/animals/S1.jpg","49","1","Ns6,perform","49","true","",""
"null","","html-keyboard-response","430","234645","0.0-430.0","","<img src=""img/animals/S1.jpg"" width=""540"" height = ""360"" style=""border:14px solid orange"">","null","","","","","",""
"null","","html-keyboard-response","431","234847","0.0-431.0","","","null","","","","","",""
"773.5","","image-keyboard-response","432","235623","0.0-432.0","","img/animals/S3.jpg","51","3","Ns6,perform","51","true","",""
"null","","html-keyboard-response","433","235975","0.0-433.0","","<img src=""img/animals/S3.jpg"" width=""540"" height = ""360"" style=""border:14px solid orange"">","null","","","","","",""
"null","","html-keyboard-response","434","236177","0.0-434.0","","","null","","","","","",""
"646.5","","image-keyboard-response","435","236826","0.0-435.0","","img/animals/S1.jpg","49","1","Ns6,perform","49","true","",""
"null","","html-keyboard-response","436","237178","0.0-436.0","","<img src=""img/animals/S1.jpg"" width=""540"" height = ""360"" style=""border:14px solid orange"">","null","","","","","",""
"null","","html-keyboard-response","437","237380","0.0-437.0","","","null","","","","","",""
"753.6000000238419","","image-keyboard-response","438","238136","0.0-438.0","","img/animals/S3.jpg","51","3","Ns6,perform","51","true","",""
"null","","html-keyboard-response","439","238488","0.0-439.0","","<img src=""img/animals/S3.jpg"" width=""540"" height = ""360"" style=""border:14px solid orange"">","null","","","","","",""
"null","","html-keyboard-response","440","238690","0.0-440.0","","","null","","","","","",""
"600.7999999523163","","image-keyboard-response","441","239293","0.0-441.0","","img/animals/S2.jpg","50","2","Ns6,perform","50","true","",""
"null","","html-keyboard-response","442","239646","0.0-442.0","","<img src=""img/animals/S2.jpg"" width=""540"" height = ""360"" style=""border:14px solid orange"">","null","","","","","",""
"null","","html-keyboard-response","443","239848","0.0-443.0","","","null","","","","","",""
"749.5","","image-keyboard-response","444","240599","0.0-444.0","","img/animals/S3.jpg","51","3","Ns6,perform","51","true","",""
"null","","html-keyboard-response","445","240952","0.0-445.0","","<img src=""img/animals/S3.jpg"" width=""540"" height = ""360"" style=""border:14px solid orange"">","null","","","","","",""
"null","","html-keyboard-response","446","241154","0.0-446.0","","","null","","","","","",""
"438.0999999642372","","image-keyboard-response","447","241594","0.0-447.0","","img/animals/S3.jpg","51","3","Ns6,perform","51","true","",""
"null","","html-keyboard-response","448","241947","0.0-448.0","","<img src=""img/animals/S3.jpg"" width=""540"" height = ""360"" style=""border:14px solid orange"">","null","","","","","",""
"null","","html-keyboard-response","449","242148","0.0-449.0","","","null","","","","","",""
"697.7000000476837","","image-keyboard-response","450","242848","0.0-450.0","","img/animals/S1.jpg","49","1","Ns6,perform","49","true","",""
"null","","html-keyboard-response","451","243200","0.0-451.0","","<img src=""img/animals/S1.jpg"" width=""540"" height = ""360"" style=""border:14px solid orange"">","null","","","","","",""
"null","","html-keyboard-response","452","243402","0.0-452.0","","","null","","","","","",""
"759.1000000238419","","image-keyboard-response","453","244163","0.0-453.0","","img/animals/S5.jpg","52","5","Ns6,perform","53","false","",""
"null","","html-keyboard-response","454","244515","0.0-454.0","","<img src=""img/animals/S5.jpg"" width=""540"" height = ""360"">","null","","","","","",""
"null","","html-keyboard-response","455","244717","0.0-455.0","","","null","","","","","",""
"710.5999999642372","","image-keyboard-response","456","245430","0.0-456.0","","img/animals/S4.jpg","52","4","Ns6,perform","52","true","",""
"null","","html-keyboard-response","457","245782","0.0-457.0","","<img src=""img/animals/S4.jpg"" width=""540"" height = ""360"" style=""border:14px solid orange"">","null","","","","","",""
"null","","html-keyboard-response","458","245984","0.0-458.0","","","null","","","","","",""
"622.1999999880791","","image-keyboard-response","459","246609","0.0-459.0","","img/animals/S3.jpg","51","3","Ns6,perform","51","true","",""
"null","","html-keyboard-response","460","246962","0.0-460.0","","<img src=""img/animals/S3.jpg"" width=""540"" height = ""360"" style=""border:14px solid orange"">","null","","","","","",""
"null","","html-keyboard-response","461","247163","0.0-461.0","","","null","","","","","",""
"481.5","","image-keyboard-response","462","247647","0.0-462.0","","img/animals/S5.jpg","53","5","Ns6,perform","53","true","",""
"null","","html-keyboard-response","463","247999","0.0-463.0","","<img src=""img/animals/S5.jpg"" width=""540"" height = ""360"" style=""border:14px solid orange"">","null","","","","","",""
"null","","html-keyboard-response","464","248201","0.0-464.0","","","null","","","","","",""
"459","","image-keyboard-response","465","248662","0.0-465.0","","img/animals/S4.jpg","52","4","Ns6,perform","52","true","",""
"null","","html-keyboard-response","466","249015","0.0-466.0","","<img src=""img/animals/S4.jpg"" width=""540"" height = ""360"" style=""border:14px solid orange"">","null","","","","","",""
"null","","html-keyboard-response","467","249216","0.0-467.0","","","null","","","","","",""
"640.1999999880791","","image-keyboard-response","468","249858","0.0-468.0","","img/animals/S2.jpg","50","2","Ns6,perform","50","true","",""
"null","","html-keyboard-response","469","250210","0.0-469.0","","<img src=""img/animals/S2.jpg"" width=""540"" height = ""360"" style=""border:14px solid orange"">","null","","","","","",""
"null","","html-keyboard-response","470","250412","0.0-470.0","","","null","","","","","",""
"740.5","","image-keyboard-response","471","251155","0.0-471.0","","img/animals/S5.jpg","52","5","Ns6,perform","53","false","",""
"null","","html-keyboard-response","472","251508","0.0-472.0","","<img src=""img/animals/S5.jpg"" width=""540"" height = ""360"">","null","","","","","",""
"null","","html-keyboard-response","473","251709","0.0-473.0","","","null","","","","","",""
"643.8000000119209","","image-keyboard-response","474","252355","0.0-474.0","","img/animals/S4.jpg","52","4","Ns6,perform","52","true","",""
"null","","html-keyboard-response","475","252707","0.0-475.0","","<img src=""img/animals/S4.jpg"" width=""540"" height = ""360"" style=""border:14px solid orange"">","null","","","","","",""
"null","","html-keyboard-response","476","252909","0.0-476.0","","","null","","","","","",""
"385","","image-keyboard-response","477","253296","0.0-477.0","","img/animals/S2.jpg","53","2","Ns6,perform","50","false","",""
"null","","html-keyboard-response","478","253649","0.0-478.0","","<img src=""img/animals/S2.jpg"" width=""540"" height = ""360"">","null","","","","","",""
"null","","html-keyboard-response","479","253851","0.0-479.0","","","null","","","","","",""
"634.2999999523163","","image-keyboard-response","480","254487","0.0-480.0","","img/animals/S1.jpg","49","1","Ns6,perform","49","true","",""
"null","","html-keyboard-response","481","254840","0.0-481.0","","<img src=""img/animals/S1.jpg"" width=""540"" height = ""360"" style=""border:14px solid orange"">","null","","","","","",""
"null","","html-keyboard-response","482","255042","0.0-482.0","","","null","","","","","",""
"690.5999999642372","","image-keyboard-response","483","255734","0.0-483.0","","img/animals/S3.jpg","51","3","Ns6,perform","51","true","",""
"null","","html-keyboard-response","484","256087","0.0-484.0","","<img src=""img/animals/S3.jpg"" width=""540"" height = ""360"" style=""border:14px solid orange"">","null","","","","","",""
"null","","html-keyboard-response","485","256289","0.0-485.0","","","null","","","","","",""
"543.5999999642372","","image-keyboard-response","486","256834","0.0-486.0","","img/animals/S6.jpg","54","6","Ns6,perform","54","true","",""
"null","","html-keyboard-response","487","257187","0.0-487.0","","<img src=""img/animals/S6.jpg"" width=""540"" height = ""360"" style=""border:14px solid orange"">","null","","","","","",""
"null","","html-keyboard-response","488","257389","0.0-488.0","","","null","","","","","",""
"419.39999997615814","","image-keyboard-response","489","257811","0.0-489.0","","img/animals/S6.jpg","54","6","Ns6,perform","54","true","",""
"null","","html-keyboard-response","490","258163","0.0-490.0","","<img src=""img/animals/S6.jpg"" width=""540"" height = ""360"" style=""border:14px solid orange"">","null","","","","","",""
"null","","html-keyboard-response","491","258365","0.0-491.0","","","null","","","","","",""
"933.6999999880791","","image-keyboard-response","492","259301","0.0-492.0","","img/animals/S5.jpg","51","5","Ns6,perform","53","false","",""
"null","","html-keyboard-response","493","259653","0.0-493.0","","<img src=""img/animals/S5.jpg"" width=""540"" height = ""360"">","null","","","","","",""
"null","","html-keyboard-response","494","259855","0.0-494.0","","","null","","","","","",""
"684.1000000238419","","image-keyboard-response","495","260542","0.0-495.0","","img/animals/S4.jpg","52","4","Ns6,perform","52","true","",""
"null","","html-keyboard-response","496","260894","0.0-496.0","","<img src=""img/animals/S4.jpg"" width=""540"" height = ""360"" style=""border:14px solid orange"">","null","","","","","",""
"null","","html-keyboard-response","497","261096","0.0-497.0","","","null","","","","","",""
"616.9000000357628","","image-keyboard-response","498","261715","0.0-498.0","","img/animals/S1.jpg","49","1","Ns6,perform","49","true","",""
"null","","html-keyboard-response","499","262067","0.0-499.0","","<img src=""img/animals/S1.jpg"" width=""540"" height = ""360"" style=""border:14px solid orange"">","null","","","","","",""
"null","","html-keyboard-response","500","262269","0.0-500.0","","","null","","","","","",""
"509.80000001192093","","image-keyboard-response","501","262781","0.0-501.0","","img/animals/S1.jpg","49","1","Ns6,perform","49","true","",""
"null","","html-keyboard-response","502","263134","0.0-502.0","","<img src=""img/animals/S1.jpg"" width=""540"" height = ""360"" style=""border:14px solid orange"">","null","","","","","",""
"null","","html-keyboard-response","503","263335","0.0-503.0","","","null","","","","","",""
"746.5999999642372","","image-keyboard-response","504","264084","0.0-504.0","","img/animals/S5.jpg","52","5","Ns6,perform","53","false","",""
"null","","html-keyboard-response","505","264436","0.0-505.0","","<img src=""img/animals/S5.jpg"" width=""540"" height = ""360"">","null","","","","","",""
"null","","html-keyboard-response","506","264639","0.0-506.0","","","null","","","","","",""
"745.5","","image-keyboard-response","507","265386","0.0-507.0","","img/animals/S4.jpg","51","4","Ns6,perform","52","false","",""
"null","","html-keyboard-response","508","265738","0.0-508.0","","<img src=""img/animals/S4.jpg"" width=""540"" height = ""360"">","null","","","","","",""
"null","","html-keyboard-response","509","265940","0.0-509.0","","","null","","","","","",""
"563.8000000119209","","image-keyboard-response","510","266509","0.0-510.0","","img/animals/S2.jpg","50","2","Ns6,perform","50","true","",""
"null","","html-keyboard-response","511","266861","0.0-511.0","","<img src=""img/animals/S2.jpg"" width=""540"" height = ""360"" style=""border:14px solid orange"">","null","","","","","",""
"null","","html-keyboard-response","512","267063","0.0-512.0","","","null","","","","","",""
"682.3000000119209","","image-keyboard-response","513","267748","0.0-513.0","","img/animals/S1.jpg","49","1","Ns6,perform","49","true","",""
"null","","html-keyboard-response","514","268100","0.0-514.0","","<img src=""img/animals/S1.jpg"" width=""540"" height = ""360"" style=""border:14px solid orange"">","null","","","","","",""
"null","","html-keyboard-response","515","268302","0.0-515.0","","","null","","","","","",""
"834.9000000357628","","image-keyboard-response","516","269139","0.0-516.0","","img/animals/S5.jpg","52","5","Ns6,perform","53","false","",""
"null","","html-keyboard-response","517","269491","0.0-517.0","","<img src=""img/animals/S5.jpg"" width=""540"" height = ""360"">","null","","","","","",""
"null","","html-keyboard-response","518","269693","0.0-518.0","","","null","","","","","",""
"724.5","","image-keyboard-response","519","270420","0.0-519.0","","img/animals/S4.jpg","52","4","Ns6,perform","52","true","",""
"null","","html-keyboard-response","520","270772","0.0-520.0","","<img src=""img/animals/S4.jpg"" width=""540"" height = ""360"" style=""border:14px solid orange"">","null","","","","","",""
"null","","html-keyboard-response","521","270974","0.0-521.0","","","null","","","","","",""
"570.5","","image-keyboard-response","522","271547","0.0-522.0","","img/animals/S6.jpg","54","6","Ns6,perform","54","true","",""
"null","","html-keyboard-response","523","271899","0.0-523.0","","<img src=""img/animals/S6.jpg"" width=""540"" height = ""360"" style=""border:14px solid orange"">","null","","","","","",""
"null","","html-keyboard-response","524","272101","0.0-524.0","","","null","","","","","",""
"776.3000000119209","","image-keyboard-response","525","272880","0.0-525.0","","img/animals/S1.jpg","49","1","Ns6,perform","49","true","",""
"null","","html-keyboard-response","526","273232","0.0-526.0","","<img src=""img/animals/S1.jpg"" width=""540"" height = ""360"" style=""border:14px solid orange"">","null","","","","","",""
"null","","html-keyboard-response","527","273434","0.0-527.0","","","null","","","","","",""
"818","","image-keyboard-response","528","274254","0.0-528.0","","img/animals/S3.jpg","53","3","Ns6,perform","51","false","",""
"null","","html-keyboard-response","529","274607","0.0-529.0","","<img src=""img/animals/S3.jpg"" width=""540"" height = ""360"">","null","","","","","",""
"null","","html-keyboard-response","530","274808","0.0-530.0","","","null","","","","","",""
"563.2000000476837","","image-keyboard-response","531","275374","0.0-531.0","","img/animals/S6.jpg","54","6","Ns6,perform","54","true","",""
"null","","html-keyboard-response","532","275726","0.0-532.0","","<img src=""img/animals/S6.jpg"" width=""540"" height = ""360"" style=""border:14px solid orange"">","null","","","","","",""
"null","","html-keyboard-response","533","275928","0.0-533.0","","","null","","","","","",""
"1033.699999988079","","image-keyboard-response","534","276964","0.0-534.0","","img/animals/S1.jpg","49","1","Ns6,perform","49","true","",""
"null","","html-keyboard-response","535","277317","0.0-535.0","","<img src=""img/animals/S1.jpg"" width=""540"" height = ""360"" style=""border:14px solid orange"">","null","","","","","",""
"null","","html-keyboard-response","536","277519","0.0-536.0","","","null","","","","","",""
"509.4000000357628","","image-keyboard-response","537","278031","0.0-537.0","","img/animals/S1.jpg","49","1","Ns6,perform","49","true","",""
"null","","html-keyboard-response","538","278384","0.0-538.0","","<img src=""img/animals/S1.jpg"" width=""540"" height = ""360"" style=""border:14px solid orange"">","null","","","","","",""
"null","","html-keyboard-response","539","278585","0.0-539.0","","","null","","","","","",""
"668.8999999761581","","image-keyboard-response","540","279257","0.0-540.0","","img/animals/S2.jpg","50","2","Ns6,perform","50","true","",""
"null","","html-keyboard-response","541","279609","0.0-541.0","","<img src=""img/animals/S2.jpg"" width=""540"" height = ""360"" style=""border:14px solid orange"">","null","","","","","",""
"null","","html-keyboard-response","542","279810","0.0-542.0","","","null","","","","","",""
"768.5","","image-keyboard-response","543","280581","0.0-543.0","","img/animals/S3.jpg","53","3","Ns6,perform","51","false","",""
"null","","html-keyboard-response","544","280934","0.0-544.0","","<img src=""img/animals/S3.jpg"" width=""540"" height = ""360"">","null","","","","","",""
"null","","html-keyboard-response","545","281137","0.0-545.0","","","null","","","","","",""
"1000.3999999761581","","image-keyboard-response","546","282139","0.0-546.0","","img/animals/S2.jpg","50","2","Ns6,perform","50","true","",""
"null","","html-keyboard-response","547","282491","0.0-547.0","","<img src=""img/animals/S2.jpg"" width=""540"" height = ""360"" style=""border:14px solid orange"">","null","","","","","",""
"null","","html-keyboard-response","548","282693","0.0-548.0","","","null","","","","","",""
"712.9000000357628","","image-keyboard-response","549","283408","0.0-549.0","","img/animals/S1.jpg","49","1","Ns6,perform","49","true","",""
"null","","html-keyboard-response","550","283761","0.0-550.0","","<img src=""img/animals/S1.jpg"" width=""540"" height = ""360"" style=""border:14px solid orange"">","null","","","","","",""
"null","","html-keyboard-response","551","283963","0.0-551.0","","","null","","","","","",""
"645.7999999523163","","image-keyboard-response","552","284611","0.0-552.0","","img/animals/S2.jpg","50","2","Ns6,perform","50","true","",""
"null","","html-keyboard-response","553","284964","0.0-553.0","","<img src=""img/animals/S2.jpg"" width=""540"" height = ""360"" style=""border:14px solid orange"">","null","","","","","",""
"null","","html-keyboard-response","554","285166","0.0-554.0","","","null","","","","","",""
"485.60000002384186","","image-keyboard-response","555","285654","0.0-555.0","","img/animals/S2.jpg","50","2","Ns6,perform","50","true","",""
"null","","html-keyboard-response","556","286006","0.0-556.0","","<img src=""img/animals/S2.jpg"" width=""540"" height = ""360"" style=""border:14px solid orange"">","null","","","","","",""
"null","","html-keyboard-response","557","286208","0.0-557.0","","","null","","","","","",""
"593.6000000238419","","image-keyboard-response","558","286804","0.0-558.0","","img/animals/S6.jpg","54","6","Ns6,perform","54","true","",""
"null","","html-keyboard-response","559","287156","0.0-559.0","","<img src=""img/animals/S6.jpg"" width=""540"" height = ""360"" style=""border:14px solid orange"">","null","","","","","",""
"null","","html-keyboard-response","560","287358","0.0-560.0","","","null","","","","","",""
"945.5","","image-keyboard-response","561","288305","0.0-561.0","","img/animals/S2.jpg","50","2","Ns6,perform","50","true","",""
"null","","html-keyboard-response","562","288658","0.0-562.0","","<img src=""img/animals/S2.jpg"" width=""540"" height = ""360"" style=""border:14px solid orange"">","null","","","","","",""
"null","","html-keyboard-response","563","288860","0.0-563.0","","","null","","","","","",""
"758.8999999761581","","image-keyboard-response","564","289621","0.0-564.0","","img/animals/S3.jpg","51","3","Ns6,perform","51","true","",""
"null","","html-keyboard-response","565","289974","0.0-565.0","","<img src=""img/animals/S3.jpg"" width=""540"" height = ""360"" style=""border:14px solid orange"">","null","","","","","",""
"null","","html-keyboard-response","566","290176","0.0-566.0","","","null","","","","","",""
"810.3999999761581","","image-keyboard-response","567","290989","0.0-567.0","","img/animals/S2.jpg","50","2","Ns6,perform","50","true","",""
"null","","html-keyboard-response","568","291342","0.0-568.0","","<img src=""img/animals/S2.jpg"" width=""540"" height = ""360"" style=""border:14px solid orange"">","null","","","","","",""
"null","","html-keyboard-response","569","291543","0.0-569.0","","","null","","","","","",""
"810.8999999761581","","image-keyboard-response","570","292357","0.0-570.0","","img/animals/S5.jpg","52","5","Ns6,perform","53","false","",""
"null","","html-keyboard-response","571","292709","0.0-571.0","","<img src=""img/animals/S5.jpg"" width=""540"" height = ""360"">","null","","","","","",""
"null","","html-keyboard-response","572","292912","0.0-572.0","","","null","","","","","",""
"1026.199999988079","","image-keyboard-response","573","293941","0.0-573.0","","img/animals/S4.jpg","52","4","Ns6,perform","52","true","",""
"null","","html-keyboard-response","574","294294","0.0-574.0","","<img src=""img/animals/S4.jpg"" width=""540"" height = ""360"" style=""border:14px solid orange"">","null","","","","","",""
"null","","html-keyboard-response","575","294496","0.0-575.0","","","null","","","","","",""
"952.7999999523163","","image-keyboard-response","576","295450","0.0-576.0","","img/animals/S6.jpg","54","6","Ns6,perform","54","true","",""
"null","","html-keyboard-response","577","295803","0.0-577.0","","<img src=""img/animals/S6.jpg"" width=""540"" height = ""360"" style=""border:14px solid orange"">","null","","","","","",""
"null","","html-keyboard-response","578","296004","0.0-578.0","","","null","","","","","",""
"880.5","","image-keyboard-response","579","296887","0.0-579.0","","img/animals/S5.jpg","54","5","Ns6,perform","53","false","",""
"null","","html-keyboard-response","580","297239","0.0-580.0","","<img src=""img/animals/S5.jpg"" width=""540"" height = ""360"">","null","","","","","",""
"null","","html-keyboard-response","581","297441","0.0-581.0","","","null","","","","","",""
"586.3000000119209","","image-keyboard-response","582","298030","0.0-582.0","","img/animals/S4.jpg","52","4","Ns6,perform","52","true","",""
"null","","html-keyboard-response","583","298383","0.0-583.0","","<img src=""img/animals/S4.jpg"" width=""540"" height = ""360"" style=""border:14px solid orange"">","null","","","","","",""
"null","","html-keyboard-response","584","298585","0.0-584.0","","","null","","","","","",""
"848.5","","image-keyboard-response","585","299436","0.0-585.0","","img/animals/S3.jpg","51","3","Ns6,perform","51","true","",""
"null","","html-keyboard-response","586","299789","0.0-586.0","","<img src=""img/animals/S3.jpg"" width=""540"" height = ""360"" style=""border:14px solid orange"">","null","","","","","",""
"null","","html-keyboard-response","587","299990","0.0-587.0","","","null","","","","","",""
"408.89999997615814","","image-keyboard-response","588","300401","0.0-588.0","","img/animals/S3.jpg","51","3","Ns6,perform","51","true","",""
"null","","html-keyboard-response","589","300754","0.0-589.0","","<img src=""img/animals/S3.jpg"" width=""540"" height = ""360"" style=""border:14px solid orange"">","null","","","","","",""
"null","","html-keyboard-response","590","300956","0.0-590.0","","","null","","","","","",""
"556.8000000119209","","image-keyboard-response","591","301514","0.0-591.0","","img/animals/S6.jpg","54","6","Ns6,perform","54","true","",""
"null","","html-keyboard-response","592","301867","0.0-592.0","","<img src=""img/animals/S6.jpg"" width=""540"" height = ""360"" style=""border:14px solid orange"">","null","","","","","",""
"null","","html-keyboard-response","593","302069","0.0-593.0","","","null","","","","","",""
"574.0999999642372","","image-keyboard-response","594","302645","0.0-594.0","","img/animals/S5.jpg","52","5","Ns6,perform","53","false","",""
"null","","html-keyboard-response","595","302998","0.0-595.0","","<img src=""img/animals/S5.jpg"" width=""540"" height = ""360"">","null","","","","","",""
"null","","html-keyboard-response","596","303200","0.0-596.0","","","null","","","","","",""
"673.1999999880791","","image-keyboard-response","597","303875","0.0-597.0","","img/animals/S4.jpg","52","4","Ns6,perform","52","true","",""
"null","","html-keyboard-response","598","304228","0.0-598.0","","<img src=""img/animals/S4.jpg"" width=""540"" height = ""360"" style=""border:14px solid orange"">","null","","","","","",""
"null","","html-keyboard-response","599","304430","0.0-599.0","","","null","","","","","",""
"688.5","","image-keyboard-response","600","305121","0.0-600.0","","img/animals/S1.jpg","49","1","Ns6,perform","49","true","",""
"null","","html-keyboard-response","601","305474","0.0-601.0","","<img src=""img/animals/S1.jpg"" width=""540"" height = ""360"" style=""border:14px solid orange"">","null","","","","","",""
"null","","html-keyboard-response","602","305675","0.0-602.0","","","null","","","","","",""
"633.8000000119209","","image-keyboard-response","603","306311","0.0-603.0","","img/animals/S6.jpg","54","6","Ns6,perform","54","true","",""
"null","","html-keyboard-response","604","306665","0.0-604.0","","<img src=""img/animals/S6.jpg"" width=""540"" height = ""360"" style=""border:14px solid orange"">","null","","","","","",""
"null","","html-keyboard-response","605","306867","0.0-605.0","","","null","","","","","",""
"645.1999999880791","","image-keyboard-response","606","307514","0.0-606.0","","img/animals/S3.jpg","51","3","Ns6,perform","51","true","",""
"null","","html-keyboard-response","607","307867","0.0-607.0","","<img src=""img/animals/S3.jpg"" width=""540"" height = ""360"" style=""border:14px solid orange"">","null","","","","","",""
"null","","html-keyboard-response","608","308069","0.0-608.0","","","null","","","","","",""
"611.4000000357628","","image-keyboard-response","609","308683","0.0-609.0","","img/animals/S2.jpg","50","2","Ns6,perform","50","true","",""
"null","","html-keyboard-response","610","309036","0.0-610.0","","<img src=""img/animals/S2.jpg"" width=""540"" height = ""360"" style=""border:14px solid orange"">","null","","","","","",""
"null","","html-keyboard-response","611","309238","0.0-611.0","","","null","","","","","",""
"607.9000000357628","","image-keyboard-response","612","309848","0.0-612.0","","img/animals/S6.jpg","54","6","Ns6,perform","54","true","",""
"null","","html-keyboard-response","613","310200","0.0-613.0","","<img src=""img/animals/S6.jpg"" width=""540"" height = ""360"" style=""border:14px solid orange"">","null","","","","","",""
"null","","html-keyboard-response","614","310402","0.0-614.0","","","null","","","","","",""
"688.5","","image-keyboard-response","615","311093","0.0-615.0","","img/animals/S3.jpg","51","3","Ns6,perform","51","true","",""
"null","","html-keyboard-response","616","311445","0.0-616.0","","<img src=""img/animals/S3.jpg"" width=""540"" height = ""360"" style=""border:14px solid orange"">","null","","","","","",""
"null","","html-keyboard-response","617","311648","0.0-617.0","","","null","","","","","",""
"613","","image-keyboard-response","618","312263","0.0-618.0","","img/animals/S5.jpg","53","5","Ns6,perform","53","true","",""
"null","","html-keyboard-response","619","312615","0.0-619.0","","<img src=""img/animals/S5.jpg"" width=""540"" height = ""360"" style=""border:14px solid orange"">","null","","","","","",""
"null","","html-keyboard-response","620","312818","0.0-620.0","","","null","","","","","",""
"333.9000000357628","","image-keyboard-response","621","313154","0.0-621.0","","img/animals/S4.jpg","52","4","Ns6,perform","52","true","",""
"null","","html-keyboard-response","622","313506","0.0-622.0","","<img src=""img/animals/S4.jpg"" width=""540"" height = ""360"" style=""border:14px solid orange"">","null","","","","","",""
"null","","html-keyboard-response","623","313708","0.0-623.0","","","null","","","","","",""
"580.1999999880791","","image-keyboard-response","624","314290","0.0-624.0","","img/animals/S1.jpg","49","1","Ns6,perform","49","true","",""
"null","","html-keyboard-response","625","314643","0.0-625.0","","<img src=""img/animals/S1.jpg"" width=""540"" height = ""360"" style=""border:14px solid orange"">","null","","","","","",""
"null","","html-keyboard-response","626","314845","0.0-626.0","","","null","","","","","",""
"643.2999999523163","","image-keyboard-response","627","315490","0.0-627.0","","img/animals/S1.jpg","49","1","Ns6,perform","49","true","",""
"null","","html-keyboard-response","628","315842","0.0-628.0","","<img src=""img/animals/S1.jpg"" width=""540"" height = ""360"" style=""border:14px solid orange"">","null","","","","","",""
"null","","html-keyboard-response","629","316044","0.0-629.0","","","null","","","","","",""
"637.1999999880791","","image-keyboard-response","630","316683","0.0-630.0","","img/animals/S2.jpg","50","2","Ns6,perform","50","true","",""
"null","","html-keyboard-response","631","317036","0.0-631.0","","<img src=""img/animals/S2.jpg"" width=""540"" height = ""360"" style=""border:14px solid orange"">","null","","","","","",""
"null","","html-keyboard-response","632","317238","0.0-632.0","","","null","","","","","",""
"1472.699999988079","","html-keyboard-response","633","318713","0.0-633.0","","<p class=""center-content"">You have completed a block! </p><p class=""center-content"">Press any key on the keyboard to continue to the next block,</p><p class=""center-content"">or wait for the automatic progression to the next block after one minute.</p>","32","","","","","",""
"555.6000000238419","","image-keyboard-response","634","319271","0.0-634.0","","img/animals/S1.jpg","49","1","Ns6,test","49","true","",""
"null","","html-keyboard-response","635","319623","0.0-635.0","","<img src=""img/animals/S1.jpg"" width=""540"" height = ""360"" style=""border:14px solid orange"">","null","","","","","",""
"null","","html-keyboard-response","636","319826","0.0-636.0","","","null","","","","","",""
"514.3999999761581","","image-keyboard-response","637","320342","0.0-637.0","","img/animals/S6.jpg","54","6","Ns6,test","54","true","",""
"null","","html-keyboard-response","638","320697","0.0-638.0","","<img src=""img/animals/S6.jpg"" width=""540"" height = ""360"" style=""border:14px solid orange"">","null","","","","","",""
"null","","html-keyboard-response","639","320899","0.0-639.0","","","null","","","","","",""
"1321","","image-keyboard-response","640","322222","0.0-640.0","","img/animals/S4.jpg","52","4","Ns6,test","52","true","",""
"null","","html-keyboard-response","641","322574","0.0-641.0","","<img src=""img/animals/S4.jpg"" width=""540"" height = ""360"" style=""border:14px solid orange"">","null","","","","","",""
"null","","html-keyboard-response","642","322776","0.0-642.0","","","null","","","","","",""
"600.5999999642372","","image-keyboard-response","643","323379","0.0-643.0","","img/animals/S3.jpg","51","3","Ns6,test","51","true","",""
"null","","html-keyboard-response","644","323735","0.0-644.0","","<img src=""img/animals/S3.jpg"" width=""540"" height = ""360"" style=""border:14px solid orange"">","null","","","","","",""
"null","","html-keyboard-response","645","323937","0.0-645.0","","","null","","","","","",""
"505.60000002384186","","image-keyboard-response","646","324444","0.0-646.0","","img/animals/S5.jpg","53","5","Ns6,test","53","true","",""
"null","","html-keyboard-response","647","324797","0.0-647.0","","<img src=""img/animals/S5.jpg"" width=""540"" height = ""360"" style=""border:14px solid orange"">","null","","","","","",""
"null","","html-keyboard-response","648","324999","0.0-648.0","","","null","","","","","",""
"507.0999999642372","","image-keyboard-response","649","325508","0.0-649.0","","img/animals/S3.jpg","51","3","Ns6,test","51","true","",""
"null","","html-keyboard-response","650","325860","0.0-650.0","","<img src=""img/animals/S3.jpg"" width=""540"" height = ""360"" style=""border:14px solid orange"">","null","","","","","",""
"null","","html-keyboard-response","651","326063","0.0-651.0","","","null","","","","","",""
"578.3000000119209","","image-keyboard-response","652","326643","0.0-652.0","","img/animals/S5.jpg","53","5","Ns6,test","53","true","",""
"null","","html-keyboard-response","653","326996","0.0-653.0","","<img src=""img/animals/S5.jpg"" width=""540"" height = ""360"" style=""border:14px solid orange"">","null","","","","","",""
"null","","html-keyboard-response","654","327198","0.0-654.0","","","null","","","","","",""
"600.5999999642372","","image-keyboard-response","655","327801","0.0-655.0","","img/animals/S2.jpg","50","2","Ns6,test","50","true","",""
"null","","html-keyboard-response","656","328153","0.0-656.0","","<img src=""img/animals/S2.jpg"" width=""540"" height = ""360"" style=""border:14px solid orange"">","null","","","","","",""
"null","","html-keyboard-response","657","328355","0.0-657.0","","","null","","","","","",""
"739.1999999880791","","image-keyboard-response","658","329096","0.0-658.0","","img/animals/S3.jpg","51","3","Ns6,test","51","true","",""
"null","","html-keyboard-response","659","329450","0.0-659.0","","<img src=""img/animals/S3.jpg"" width=""540"" height = ""360"" style=""border:14px solid orange"">","null","","","","","",""
"null","","html-keyboard-response","660","329651","0.0-660.0","","","null","","","","","",""
"711.8000000119209","","image-keyboard-response","661","330365","0.0-661.0","","img/animals/S4.jpg","52","4","Ns6,test","52","true","",""
"null","","html-keyboard-response","662","330718","0.0-662.0","","<img src=""img/animals/S4.jpg"" width=""540"" height = ""360"" style=""border:14px solid orange"">","null","","","","","",""
"null","","html-keyboard-response","663","330920","0.0-663.0","","","null","","","","","",""
"608.1999999880791","","image-keyboard-response","664","331530","0.0-664.0","","img/animals/S1.jpg","49","1","Ns6,test","49","true","",""
"null","","html-keyboard-response","665","331882","0.0-665.0","","<img src=""img/animals/S1.jpg"" width=""540"" height = ""360"" style=""border:14px solid orange"">","null","","","","","",""
"null","","html-keyboard-response","666","332085","0.0-666.0","","","null","","","","","",""
"617.4000000357628","","image-keyboard-response","667","332704","0.0-667.0","","img/animals/S3.jpg","51","3","Ns6,test","51","true","",""
"null","","html-keyboard-response","668","333057","0.0-668.0","","<img src=""img/animals/S3.jpg"" width=""540"" height = ""360"" style=""border:14px solid orange"">","null","","","","","",""
"null","","html-keyboard-response","669","333258","0.0-669.0","","","null","","","","","",""
"896.8000000119209","","image-keyboard-response","670","334158","0.0-670.0","","img/animals/S5.jpg","53","5","Ns6,test","53","true","",""
"null","","html-keyboard-response","671","334510","0.0-671.0","","<img src=""img/animals/S5.jpg"" width=""540"" height = ""360"" style=""border:14px solid orange"">","null","","","","","",""
"null","","html-keyboard-response","672","334713","0.0-672.0","","","null","","","","","",""
"391.0999999642372","","image-keyboard-response","673","335106","0.0-673.0","","img/animals/S4.jpg","52","4","Ns6,test","52","true","",""
"null","","html-keyboard-response","674","335458","0.0-674.0","","<img src=""img/animals/S4.jpg"" width=""540"" height = ""360"" style=""border:14px solid orange"">","null","","","","","",""
"null","","html-keyboard-response","675","335660","0.0-675.0","","","null","","","","","",""
"591","","image-keyboard-response","676","336253","0.0-676.0","","img/animals/S6.jpg","54","6","Ns6,test","54","true","",""
"null","","html-keyboard-response","677","336606","0.0-677.0","","<img src=""img/animals/S6.jpg"" width=""540"" height = ""360"" style=""border:14px solid orange"">","null","","","","","",""
"null","","html-keyboard-response","678","336807","0.0-678.0","","","null","","","","","",""
"547.3999999761581","","image-keyboard-response","679","337357","0.0-679.0","","img/animals/S6.jpg","54","6","Ns6,test","54","true","",""
"null","","html-keyboard-response","680","337710","0.0-680.0","","<img src=""img/animals/S6.jpg"" width=""540"" height = ""360"" style=""border:14px solid orange"">","null","","","","","",""
"null","","html-keyboard-response","681","337912","0.0-681.0","","","null","","","","","",""
"550.3000000119209","","image-keyboard-response","682","338464","0.0-682.0","","img/animals/S4.jpg","53","4","Ns6,test","52","false","",""
"null","","html-keyboard-response","683","338817","0.0-683.0","","<img src=""img/animals/S4.jpg"" width=""540"" height = ""360"">","null","","","","","",""
"null","","html-keyboard-response","684","339019","0.0-684.0","","","null","","","","","",""
"613.1999999880791","","image-keyboard-response","685","339634","0.0-685.0","","img/animals/S1.jpg","49","1","Ns6,test","49","true","",""
"null","","html-keyboard-response","686","339989","0.0-686.0","","<img src=""img/animals/S1.jpg"" width=""540"" height = ""360"" style=""border:14px solid orange"">","null","","","","","",""
"null","","html-keyboard-response","687","340191","0.0-687.0","","","null","","","","","",""
"607.3999999761581","","image-keyboard-response","688","340800","0.0-688.0","","img/animals/S6.jpg","54","6","Ns6,test","54","true","",""
"null","","html-keyboard-response","689","341153","0.0-689.0","","<img src=""img/animals/S6.jpg"" width=""540"" height = ""360"" style=""border:14px solid orange"">","null","","","","","",""
"null","","html-keyboard-response","690","341356","0.0-690.0","","","null","","","","","",""
"408","","image-keyboard-response","691","341766","0.0-691.0","","img/animals/S6.jpg","54","6","Ns6,test","54","true","",""
"null","","html-keyboard-response","692","342119","0.0-692.0","","<img src=""img/animals/S6.jpg"" width=""540"" height = ""360"" style=""border:14px solid orange"">","null","","","","","",""
"null","","html-keyboard-response","693","342320","0.0-693.0","","","null","","","","","",""
"378.60000002384186","","image-keyboard-response","694","342701","0.0-694.0","","img/animals/S6.jpg","54","6","Ns6,test","54","true","",""
"null","","html-keyboard-response","695","343054","0.0-695.0","","<img src=""img/animals/S6.jpg"" width=""540"" height = ""360"" style=""border:14px solid orange"">","null","","","","","",""
"null","","html-keyboard-response","696","343256","0.0-696.0","","","null","","","","","",""
"604.4000000357628","","image-keyboard-response","697","343862","0.0-697.0","","img/animals/S3.jpg","51","3","Ns6,test","51","true","",""
"null","","html-keyboard-response","698","344215","0.0-698.0","","<img src=""img/animals/S3.jpg"" width=""540"" height = ""360"" style=""border:14px solid orange"">","null","","","","","",""
"null","","html-keyboard-response","699","344417","0.0-699.0","","","null","","","","","",""
"635.0999999642372","","image-keyboard-response","700","345054","0.0-700.0","","img/animals/S6.jpg","54","6","Ns6,test","54","true","",""
"null","","html-keyboard-response","701","345407","0.0-701.0","","<img src=""img/animals/S6.jpg"" width=""540"" height = ""360"" style=""border:14px solid orange"">","null","","","","","",""
"null","","html-keyboard-response","702","345609","0.0-702.0","","","null","","","","","",""
"430.60000002384186","","image-keyboard-response","703","346041","0.0-703.0","","img/animals/S6.jpg","54","6","Ns6,test","54","true","",""
"null","","html-keyboard-response","704","346394","0.0-704.0","","<img src=""img/animals/S6.jpg"" width=""540"" height = ""360"" style=""border:14px solid orange"">","null","","","","","",""
"null","","html-keyboard-response","705","346596","0.0-705.0","","","null","","","","","",""
"576.1000000238419","","image-keyboard-response","706","347175","0.0-706.0","","img/animals/S1.jpg","49","1","Ns6,test","49","true","",""
"null","","html-keyboard-response","707","347528","0.0-707.0","","<img src=""img/animals/S1.jpg"" width=""540"" height = ""360"" style=""border:14px solid orange"">","null","","","","","",""
"null","","html-keyboard-response","708","347730","0.0-708.0","","","null","","","","","",""
"673.6000000238419","","image-keyboard-response","709","348406","0.0-709.0","","img/animals/S2.jpg","50","2","Ns6,test","50","true","",""
"null","","html-keyboard-response","710","348759","0.0-710.0","","<img src=""img/animals/S2.jpg"" width=""540"" height = ""360"" style=""border:14px solid orange"">","null","","","","","",""
"null","","html-keyboard-response","711","348960","0.0-711.0","","","null","","","","","",""
"581.1999999880791","","image-keyboard-response","712","349544","0.0-712.0","","img/animals/S3.jpg","51","3","Ns6,test","51","true","",""
