"rt","url","trial_type","trial_index","time_elapsed","internal_node_id","view_history","stimulus","key_press","state","test_part","correct_response","correct","bonus","responses"
"25664.299999952316","consent.html","external-html","0","25858","0.0-0.0","","","","","","","","",""
"104161.29999995232","","instructions","1","130022","0.0-1.0","[{""page_index"":0,""viewing_time"":6731.100000143051},{""page_index"":1,""viewing_time"":9363.099999904633},{""page_index"":2,""viewing_time"":9310.099999904633},{""page_index"":3,""viewing_time"":17284.200000047684},{""page_index"":4,""viewing_time"":20820.799999952316},{""page_index"":5,""viewing_time"":12471.400000095367},{""page_index"":6,""viewing_time"":17878.799999952316},{""page_index"":7,""viewing_time"":10300.600000143051}]","","","","","","","",""
"null","","image-keyboard-response","2","132534","0.0-2.0","","img/nature/S4.jpg","null","4","Ns4,train","52","false","",""
"null","","html-keyboard-response","3","132904","0.0-3.0","","<img src=""img/nature/S4.jpg"" width=""540"" height = ""360"">","null","","","","","",""
"null","","html-keyboard-response","4","133119","0.0-4.0","","","null","","","","","",""
"966.7999999523163","","image-keyboard-response","5","134088","0.0-5.0","","img/nature/S2.jpg","52","2","Ns4,train","50","false","",""
"null","","html-keyboard-response","6","134443","0.0-6.0","","<img src=""img/nature/S2.jpg"" width=""540"" height = ""360"">","null","","","","","",""
"null","","html-keyboard-response","7","134649","0.0-7.0","","","null","","","","","",""
"2186.2999999523163","","image-keyboard-response","8","136843","0.0-8.0","","img/nature/S1.jpg","52","1","Ns4,train","49","false","",""
"null","","html-keyboard-response","9","137202","0.0-9.0","","<img src=""img/nature/S1.jpg"" width=""540"" height = ""360"">","null","","","","","",""
"null","","html-keyboard-response","10","137406","0.0-10.0","","","null","","","","","",""
"1395","","image-keyboard-response","11","138804","0.0-11.0","","img/nature/S3.jpg","51","3","Ns4,train","51","true","",""
"null","","html-keyboard-response","12","139172","0.0-12.0","","<img src=""img/nature/S3.jpg"" width=""540"" height = ""360"" style=""border:14px solid orange"">","null","","","","","",""
"null","","html-keyboard-response","13","139387","0.0-13.0","","","null","","","","","",""
"1932.3000001907349","","image-keyboard-response","14","141322","0.0-14.0","","img/nature/S4.jpg","50","4","Ns4,train","52","false","",""
"null","","html-keyboard-response","15","141677","0.0-15.0","","<img src=""img/nature/S4.jpg"" width=""540"" height = ""360"">","null","","","","","",""
"null","","html-keyboard-response","16","141896","0.0-16.0","","","null","","","","","",""
"839.0999999046326","","image-keyboard-response","17","142739","0.0-17.0","","img/nature/S3.jpg","51","3","Ns4,train","51","true","",""
"null","","html-keyboard-response","18","143100","0.0-18.0","","<img src=""img/nature/S3.jpg"" width=""540"" height = ""360"" style=""border:14px solid orange"">","null","","","","","",""
"null","","html-keyboard-response","19","143307","0.0-19.0","","","null","","","","","",""
"1500.5999999046326","","image-keyboard-response","20","144812","0.0-20.0","","img/nature/S2.jpg","49","2","Ns4,train","50","false","",""
"null","","html-keyboard-response","21","145169","0.0-21.0","","<img src=""img/nature/S2.jpg"" width=""540"" height = ""360"">","null","","","","","",""
"null","","html-keyboard-response","22","145384","0.0-22.0","","","null","","","","","",""
"1020.1999998092651","","image-keyboard-response","23","146408","0.0-23.0","","img/nature/S1.jpg","50","1","Ns4,train","49","false","",""
"null","","html-keyboard-response","24","146772","0.0-24.0","","<img src=""img/nature/S1.jpg"" width=""540"" height = ""360"">","null","","","","","",""
"null","","html-keyboard-response","25","146990","0.0-25.0","","","null","","","","","",""
"672.8999998569489","","image-keyboard-response","26","147666","0.0-26.0","","img/nature/S4.jpg","51","4","Ns4,train","52","false","",""
"null","","html-keyboard-response","27","148022","0.0-27.0","","<img src=""img/nature/S4.jpg"" width=""540"" height = ""360"">","null","","","","","",""
"null","","html-keyboard-response","28","148226","0.0-28.0","","","null","","","","","",""
"734.9000000953674","","image-keyboard-response","29","148964","0.0-29.0","","img/nature/S3.jpg","51","3","Ns4,train","51","true","",""
"null","","html-keyboard-response","30","149334","0.0-30.0","","<img src=""img/nature/S3.jpg"" width=""540"" height = ""360"" style=""border:14px solid orange"">","null","","","","","",""
"null","","html-keyboard-response","31","149549","0.0-31.0","","","null","","","","","",""
"1246.5","","image-keyboard-response","32","150798","0.0-32.0","","img/nature/S3.jpg","51","3","Ns4,train","51","true","",""
"null","","html-keyboard-response","33","151158","0.0-33.0","","<img src=""img/nature/S3.jpg"" width=""540"" height = ""360"" style=""border:14px solid orange"">","null","","","","","",""
"null","","html-keyboard-response","34","151360","0.0-34.0","","","null","","","","","",""
"696.0999999046326","","image-keyboard-response","35","152059","0.0-35.0","","img/nature/S3.jpg","51","3","Ns4,train","51","true","",""
"null","","html-keyboard-response","36","152414","0.0-36.0","","<img src=""img/nature/S3.jpg"" width=""540"" height = ""360"" style=""border:14px solid orange"">","null","","","","","",""
"null","","html-keyboard-response","37","152631","0.0-37.0","","","null","","","","","",""
"1714.4000000953674","","image-keyboard-response","38","154349","0.0-38.0","","img/nature/S4.jpg","50","4","Ns4,train","52","false","",""
"null","","html-keyboard-response","39","154716","0.0-39.0","","<img src=""img/nature/S4.jpg"" width=""540"" height = ""360"">","null","","","","","",""
"null","","html-keyboard-response","40","154933","0.0-40.0","","","null","","","","","",""
"1210.0999999046326","","image-keyboard-response","41","156147","0.0-41.0","","img/nature/S3.jpg","51","3","Ns4,train","51","true","",""
"null","","html-keyboard-response","42","156508","0.0-42.0","","<img src=""img/nature/S3.jpg"" width=""540"" height = ""360"" style=""border:14px solid orange"">","null","","","","","",""
"null","","html-keyboard-response","43","156725","0.0-43.0","","","null","","","","","",""
"939.0999999046326","","image-keyboard-response","44","157667","0.0-44.0","","img/nature/S2.jpg","52","2","Ns4,train","50","false","",""
"null","","html-keyboard-response","45","158029","0.0-45.0","","<img src=""img/nature/S2.jpg"" width=""540"" height = ""360"">","null","","","","","",""
"null","","html-keyboard-response","46","158244","0.0-46.0","","","null","","","","","",""
"1529.2000000476837","","image-keyboard-response","47","159777","0.0-47.0","","img/nature/S1.jpg","49","1","Ns4,train","49","true","",""
"null","","html-keyboard-response","48","160142","0.0-48.0","","<img src=""img/nature/S1.jpg"" width=""540"" height = ""360"" style=""border:14px solid orange"">","null","","","","","",""
"null","","html-keyboard-response","49","160360","0.0-49.0","","","null","","","","","",""
"1803.3999998569489","","image-keyboard-response","50","162167","0.0-50.0","","img/nature/S2.jpg","52","2","Ns4,train","50","false","",""
"null","","html-keyboard-response","51","162532","0.0-51.0","","<img src=""img/nature/S2.jpg"" width=""540"" height = ""360"">","null","","","","","",""
"null","","html-keyboard-response","52","162735","0.0-52.0","","","null","","","","","",""
"1284.8999998569489","","image-keyboard-response","53","164024","0.0-53.0","","img/nature/S1.jpg","49","1","Ns4,train","49","true","",""
"null","","html-keyboard-response","54","164378","0.0-54.0","","<img src=""img/nature/S1.jpg"" width=""540"" height = ""360"" style=""border:14px solid orange"">","null","","","","","",""
"null","","html-keyboard-response","55","164594","0.0-55.0","","","null","","","","","",""
"1469.7000000476837","","image-keyboard-response","56","166068","0.0-56.0","","img/nature/S2.jpg","50","2","Ns4,train","50","true","",""
"null","","html-keyboard-response","57","166428","0.0-57.0","","<img src=""img/nature/S2.jpg"" width=""540"" height = ""360"" style=""border:14px solid orange"">","null","","","","","",""
"null","","html-keyboard-response","58","166645","0.0-58.0","","","null","","","","","",""
"1185.9000000953674","","image-keyboard-response","59","167833","0.0-59.0","","img/nature/S1.jpg","49","1","Ns4,train","49","true","",""
"null","","html-keyboard-response","60","168196","0.0-60.0","","<img src=""img/nature/S1.jpg"" width=""540"" height = ""360"" style=""border:14px solid orange"">","null","","","","","",""
"null","","html-keyboard-response","61","168406","0.0-61.0","","","null","","","","","",""
"1030.2999999523163","","image-keyboard-response","62","169440","0.0-62.0","","img/nature/S2.jpg","50","2","Ns4,train","50","true","",""
"null","","html-keyboard-response","63","169794","0.0-63.0","","<img src=""img/nature/S2.jpg"" width=""540"" height = ""360"" style=""border:14px solid orange"">","null","","","","","",""
"null","","html-keyboard-response","64","170002","0.0-64.0","","","null","","","","","",""
"1104","","image-keyboard-response","65","171109","0.0-65.0","","img/nature/S1.jpg","49","1","Ns4,train","49","true","",""
"null","","html-keyboard-response","66","171474","0.0-66.0","","<img src=""img/nature/S1.jpg"" width=""540"" height = ""360"" style=""border:14px solid orange"">","null","","","","","",""
"null","","html-keyboard-response","67","171691","0.0-67.0","","","null","","","","","",""
"595.7999999523163","","image-keyboard-response","68","172290","0.0-68.0","","img/nature/S2.jpg","50","2","Ns4,train","50","true","",""
"null","","html-keyboard-response","69","172649","0.0-69.0","","<img src=""img/nature/S2.jpg"" width=""540"" height = ""360"" style=""border:14px solid orange"">","null","","","","","",""
"null","","html-keyboard-response","70","172867","0.0-70.0","","","null","","","","","",""
"1123.5999999046326","","image-keyboard-response","71","173994","0.0-71.0","","img/nature/S1.jpg","49","1","Ns4,train","49","true","",""
"null","","html-keyboard-response","72","174349","0.0-72.0","","<img src=""img/nature/S1.jpg"" width=""540"" height = ""360"" style=""border:14px solid orange"">","null","","","","","",""
"null","","html-keyboard-response","73","174566","0.0-73.0","","","null","","","","","",""
"867.7999999523163","","image-keyboard-response","74","175437","0.0-74.0","","img/nature/S3.jpg","51","3","Ns4,train","51","true","",""
"null","","html-keyboard-response","75","175799","0.0-75.0","","<img src=""img/nature/S3.jpg"" width=""540"" height = ""360"" style=""border:14px solid orange"">","null","","","","","",""
"null","","html-keyboard-response","76","176014","0.0-76.0","","","null","","","","","",""
"898.0999999046326","","image-keyboard-response","77","176915","0.0-77.0","","img/nature/S4.jpg","52","4","Ns4,train","52","true","",""
"null","","html-keyboard-response","78","177275","0.0-78.0","","<img src=""img/nature/S4.jpg"" width=""540"" height = ""360"" style=""border:14px solid orange"">","null","","","","","",""
"null","","html-keyboard-response","79","177482","0.0-79.0","","","null","","","","","",""
"596.5999999046326","","image-keyboard-response","80","178082","0.0-80.0","","img/nature/S4.jpg","52","4","Ns4,train","52","true","",""
"null","","html-keyboard-response","81","178450","0.0-81.0","","<img src=""img/nature/S4.jpg"" width=""540"" height = ""360"" style=""border:14px solid orange"">","null","","","","","",""
"null","","html-keyboard-response","82","178653","0.0-82.0","","","null","","","","","",""
"474.39999985694885","","image-keyboard-response","83","179131","0.0-83.0","","img/nature/S4.jpg","52","4","Ns4,train","52","true","",""
"null","","html-keyboard-response","84","179484","0.0-84.0","","<img src=""img/nature/S4.jpg"" width=""540"" height = ""360"" style=""border:14px solid orange"">","null","","","","","",""
"null","","html-keyboard-response","85","179700","0.0-85.0","","","null","","","","","",""
"1214.2999999523163","","image-keyboard-response","86","180918","0.0-86.0","","img/nature/S3.jpg","51","3","Ns4,train","51","true","",""
"null","","html-keyboard-response","87","181281","0.0-87.0","","<img src=""img/nature/S3.jpg"" width=""540"" height = ""360"" style=""border:14px solid orange"">","null","","","","","",""
"null","","html-keyboard-response","88","181496","0.0-88.0","","","null","","","","","",""
"802.2999999523163","","image-keyboard-response","89","182301","0.0-89.0","","img/nature/S4.jpg","52","4","Ns4,train","52","true","",""
"null","","html-keyboard-response","90","182655","0.0-90.0","","<img src=""img/nature/S4.jpg"" width=""540"" height = ""360"" style=""border:14px solid orange"">","null","","","","","",""
"null","","html-keyboard-response","91","182871","0.0-91.0","","","null","","","","","",""
"970.2999999523163","","image-keyboard-response","92","183844","0.0-92.0","","img/nature/S2.jpg","50","2","Ns4,train","50","true","",""
"null","","html-keyboard-response","93","184198","0.0-93.0","","<img src=""img/nature/S2.jpg"" width=""540"" height = ""360"" style=""border:14px solid orange"">","null","","","","","",""
"null","","html-keyboard-response","94","184402","0.0-94.0","","","null","","","","","",""
"510.39999985694885","","image-keyboard-response","95","184916","0.0-95.0","","img/nature/S1.jpg","49","1","Ns4,train","49","true","",""
"null","","html-keyboard-response","96","185284","0.0-96.0","","<img src=""img/nature/S1.jpg"" width=""540"" height = ""360"" style=""border:14px solid orange"">","null","","","","","",""
"null","","html-keyboard-response","97","185503","0.0-97.0","","","null","","","","","",""
"848.1999998092651","","image-keyboard-response","98","186354","0.0-98.0","","img/nature/S4.jpg","52","4","Ns4,train","52","true","",""
"null","","html-keyboard-response","99","186718","0.0-99.0","","<img src=""img/nature/S4.jpg"" width=""540"" height = ""360"" style=""border:14px solid orange"">","null","","","","","",""
"null","","html-keyboard-response","100","186935","0.0-100.0","","","null","","","","","",""
"642.6000001430511","","image-keyboard-response","101","187581","0.0-101.0","","img/nature/S3.jpg","51","3","Ns4,train","51","true","",""
"null","","html-keyboard-response","102","187940","0.0-102.0","","<img src=""img/nature/S3.jpg"" width=""540"" height = ""360"" style=""border:14px solid orange"">","null","","","","","",""
"null","","html-keyboard-response","103","188159","0.0-103.0","","","null","","","","","",""
"723.9000000953674","","image-keyboard-response","104","188887","0.0-104.0","","img/nature/S4.jpg","52","4","Ns4,train","52","true","",""
"null","","html-keyboard-response","105","189247","0.0-105.0","","<img src=""img/nature/S4.jpg"" width=""540"" height = ""360"" style=""border:14px solid orange"">","null","","","","","",""
"null","","html-keyboard-response","106","189456","0.0-106.0","","","null","","","","","",""
"864.6999998092651","","image-keyboard-response","107","190325","0.0-107.0","","img/nature/S2.jpg","50","2","Ns4,train","50","true","",""
"null","","html-keyboard-response","108","190682","0.0-108.0","","<img src=""img/nature/S2.jpg"" width=""540"" height = ""360"" style=""border:14px solid orange"">","null","","","","","",""
"null","","html-keyboard-response","109","190899","0.0-109.0","","","null","","","","","",""
"614.5","","image-keyboard-response","110","191517","0.0-110.0","","img/nature/S1.jpg","49","1","Ns4,train","49","true","",""
"null","","html-keyboard-response","111","191880","0.0-111.0","","<img src=""img/nature/S1.jpg"" width=""540"" height = ""360"" style=""border:14px solid orange"">","null","","","","","",""
"null","","html-keyboard-response","112","192095","0.0-112.0","","","null","","","","","",""
"861.4000000953674","","image-keyboard-response","113","192960","0.0-113.0","","img/nature/S4.jpg","52","4","Ns4,train","52","true","",""
"null","","html-keyboard-response","114","193327","0.0-114.0","","<img src=""img/nature/S4.jpg"" width=""540"" height = ""360"" style=""border:14px solid orange"">","null","","","","","",""
"null","","html-keyboard-response","115","193530","0.0-115.0","","","null","","","","","",""
"567.5","","image-keyboard-response","116","194101","0.0-116.0","","img/nature/S4.jpg","52","4","Ns4,train","52","true","",""
"null","","html-keyboard-response","117","194467","0.0-117.0","","<img src=""img/nature/S4.jpg"" width=""540"" height = ""360"" style=""border:14px solid orange"">","null","","","","","",""
"null","","html-keyboard-response","118","194678","0.0-118.0","","","null","","","","","",""
"785.2000000476837","","image-keyboard-response","119","195467","0.0-119.0","","img/nature/S2.jpg","50","2","Ns4,train","50","true","",""
"null","","html-keyboard-response","120","195829","0.0-120.0","","<img src=""img/nature/S2.jpg"" width=""540"" height = ""360"" style=""border:14px solid orange"">","null","","","","","",""
"null","","html-keyboard-response","121","196046","0.0-121.0","","","null","","","","","",""
"670.7999999523163","","image-keyboard-response","122","196719","0.0-122.0","","img/nature/S1.jpg","49","1","Ns4,train","49","true","",""
"null","","html-keyboard-response","123","197080","0.0-123.0","","<img src=""img/nature/S1.jpg"" width=""540"" height = ""360"" style=""border:14px solid orange"">","null","","","","","",""
"null","","html-keyboard-response","124","197293","0.0-124.0","","","null","","","","","",""
"467.2000000476837","","image-keyboard-response","125","197762","0.0-125.0","","img/nature/S3.jpg","51","3","Ns4,train","51","true","",""
"null","","html-keyboard-response","126","198124","0.0-126.0","","<img src=""img/nature/S3.jpg"" width=""540"" height = ""360"" style=""border:14px solid orange"">","null","","","","","",""
"null","","html-keyboard-response","127","198327","0.0-127.0","","","null","","","","","",""
"462.5","","image-keyboard-response","128","198791","0.0-128.0","","img/nature/S3.jpg","51","3","Ns4,train","51","true","",""
"null","","html-keyboard-response","129","199150","0.0-129.0","","<img src=""img/nature/S3.jpg"" width=""540"" height = ""360"" style=""border:14px solid orange"">","null","","","","","",""
"null","","html-keyboard-response","130","199367","0.0-130.0","","","null","","","","","",""
"976.3999998569489","","image-keyboard-response","131","200346","0.0-131.0","","img/nature/S2.jpg","50","2","Ns4,train","50","true","",""
"null","","html-keyboard-response","132","200703","0.0-132.0","","<img src=""img/nature/S2.jpg"" width=""540"" height = ""360"" style=""border:14px solid orange"">","null","","","","","",""
"null","","html-keyboard-response","133","200919","0.0-133.0","","","null","","","","","",""
"696.7000000476837","","image-keyboard-response","134","201619","0.0-134.0","","img/nature/S1.jpg","49","1","Ns4,train","49","true","",""
"null","","html-keyboard-response","135","201974","0.0-135.0","","<img src=""img/nature/S1.jpg"" width=""540"" height = ""360"" style=""border:14px solid orange"">","null","","","","","",""
"null","","html-keyboard-response","136","202183","0.0-136.0","","","null","","","","","",""
"646.5","","image-keyboard-response","137","202833","0.0-137.0","","img/nature/S3.jpg","52","3","Ns4,train","51","false","",""
"null","","html-keyboard-response","138","203191","0.0-138.0","","<img src=""img/nature/S3.jpg"" width=""540"" height = ""360"">","null","","","","","",""
"null","","html-keyboard-response","139","203408","0.0-139.0","","","null","","","","","",""
"773","","image-keyboard-response","140","204183","0.0-140.0","","img/nature/S4.jpg","52","4","Ns4,train","52","true","",""
"null","","html-keyboard-response","141","204539","0.0-141.0","","<img src=""img/nature/S4.jpg"" width=""540"" height = ""360"" style=""border:14px solid orange"">","null","","","","","",""
"null","","html-keyboard-response","142","204755","0.0-142.0","","","null","","","","","",""
"652.2000000476837","","image-keyboard-response","143","205409","0.0-143.0","","img/nature/S4.jpg","52","4","Ns4,train","52","true","",""
"null","","html-keyboard-response","144","205771","0.0-144.0","","<img src=""img/nature/S4.jpg"" width=""540"" height = ""360"" style=""border:14px solid orange"">","null","","","","","",""
"null","","html-keyboard-response","145","205981","0.0-145.0","","","null","","","","","",""
"830.0999999046326","","image-keyboard-response","146","206814","0.0-146.0","","img/nature/S2.jpg","50","2","Ns4,train","50","true","",""
"null","","html-keyboard-response","147","207176","0.0-147.0","","<img src=""img/nature/S2.jpg"" width=""540"" height = ""360"" style=""border:14px solid orange"">","null","","","","","",""
"null","","html-keyboard-response","148","207390","0.0-148.0","","","null","","","","","",""
"553.9000000953674","","image-keyboard-response","149","207949","0.0-149.0","","img/nature/S1.jpg","49","1","Ns4,train","49","true","",""
"null","","html-keyboard-response","150","208306","0.0-150.0","","<img src=""img/nature/S1.jpg"" width=""540"" height = ""360"" style=""border:14px solid orange"">","null","","","","","",""
"null","","html-keyboard-response","151","208520","0.0-151.0","","","null","","","","","",""
"935.9000000953674","","image-keyboard-response","152","209460","0.0-152.0","","img/nature/S2.jpg","50","2","Ns4,train","50","true","",""
"null","","html-keyboard-response","153","209820","0.0-153.0","","<img src=""img/nature/S2.jpg"" width=""540"" height = ""360"" style=""border:14px solid orange"">","null","","","","","",""
"null","","html-keyboard-response","154","210024","0.0-154.0","","","null","","","","","",""
"639.7999999523163","","image-keyboard-response","155","210667","0.0-155.0","","img/nature/S1.jpg","49","1","Ns4,train","49","true","",""
"null","","html-keyboard-response","156","211021","0.0-156.0","","<img src=""img/nature/S1.jpg"" width=""540"" height = ""360"" style=""border:14px solid orange"">","null","","","","","",""
"null","","html-keyboard-response","157","211224","0.0-157.0","","","null","","","","","",""
"659.2000000476837","","image-keyboard-response","158","211887","0.0-158.0","","img/nature/S3.jpg","51","3","Ns4,train","51","true","",""
"null","","html-keyboard-response","159","212245","0.0-159.0","","<img src=""img/nature/S3.jpg"" width=""540"" height = ""360"" style=""border:14px solid orange"">","null","","","","","",""
"null","","html-keyboard-response","160","212451","0.0-160.0","","","null","","","","","",""
"1008.7000000476837","","image-keyboard-response","161","213463","0.0-161.0","","img/nature/S2.jpg","50","2","Ns4,train","50","true","",""
"null","","html-keyboard-response","162","213821","0.0-162.0","","<img src=""img/nature/S2.jpg"" width=""540"" height = ""360"" style=""border:14px solid orange"">","null","","","","","",""
"null","","html-keyboard-response","163","214039","0.0-163.0","","","null","","","","","",""
"660.4000000953674","","image-keyboard-response","164","214702","0.0-164.0","","img/nature/S1.jpg","49","1","Ns4,train","49","true","",""
"null","","html-keyboard-response","165","215055","0.0-165.0","","<img src=""img/nature/S1.jpg"" width=""540"" height = ""360"" style=""border:14px solid orange"">","null","","","","","",""
"null","","html-keyboard-response","166","215259","0.0-166.0","","","null","","","","","",""
"778.8000001907349","","image-keyboard-response","167","216041","0.0-167.0","","img/nature/S2.jpg","50","2","Ns4,train","50","true","",""
"null","","html-keyboard-response","168","216399","0.0-168.0","","<img src=""img/nature/S2.jpg"" width=""540"" height = ""360"" style=""border:14px solid orange"">","null","","","","","",""
"null","","html-keyboard-response","169","216615","0.0-169.0","","","null","","","","","",""
"847.3999998569489","","image-keyboard-response","170","217466","0.0-170.0","","img/nature/S1.jpg","49","1","Ns4,train","49","true","",""
"null","","html-keyboard-response","171","217826","0.0-171.0","","<img src=""img/nature/S1.jpg"" width=""540"" height = ""360"" style=""border:14px solid orange"">","null","","","","","",""
"null","","html-keyboard-response","172","218034","0.0-172.0","","","null","","","","","",""
"522.3999998569489","","image-keyboard-response","173","218560","0.0-173.0","","img/nature/S3.jpg","50","3","Ns4,train","51","false","",""
"null","","html-keyboard-response","174","218922","0.0-174.0","","<img src=""img/nature/S3.jpg"" width=""540"" height = ""360"">","null","","","","","",""
"null","","html-keyboard-response","175","219138","0.0-175.0","","","null","","","","","",""
"566.7000000476837","","image-keyboard-response","176","219708","0.0-176.0","","img/nature/S3.jpg","51","3","Ns4,train","51","true","",""
"null","","html-keyboard-response","177","220077","0.0-177.0","","<img src=""img/nature/S3.jpg"" width=""540"" height = ""360"" style=""border:14px solid orange"">","null","","","","","",""
"null","","html-keyboard-response","178","220296","0.0-178.0","","","null","","","","","",""
"780.7999999523163","","image-keyboard-response","179","221081","0.0-179.0","","img/nature/S2.jpg","50","2","Ns4,train","50","true","",""
"null","","html-keyboard-response","180","221434","0.0-180.0","","<img src=""img/nature/S2.jpg"" width=""540"" height = ""360"" style=""border:14px solid orange"">","null","","","","","",""
"null","","html-keyboard-response","181","221652","0.0-181.0","","","null","","","","","",""
"644.5","","image-keyboard-response","182","222300","0.0-182.0","","img/nature/S1.jpg","49","1","Ns4,train","49","true","",""
"null","","html-keyboard-response","183","222659","0.0-183.0","","<img src=""img/nature/S1.jpg"" width=""540"" height = ""360"" style=""border:14px solid orange"">","null","","","","","",""
"null","","html-keyboard-response","184","222875","0.0-184.0","","","null","","","","","",""
"842.2999999523163","","image-keyboard-response","185","223721","0.0-185.0","","img/nature/S4.jpg","52","4","Ns4,train","52","true","",""
"null","","html-keyboard-response","186","224083","0.0-186.0","","<img src=""img/nature/S4.jpg"" width=""540"" height = ""360"" style=""border:14px solid orange"">","null","","","","","",""
"null","","html-keyboard-response","187","224299","0.0-187.0","","","null","","","","","",""
"835.2999999523163","","image-keyboard-response","188","225136","0.0-188.0","","img/nature/S2.jpg","50","2","Ns4,train","50","true","",""
"null","","html-keyboard-response","189","225501","0.0-189.0","","<img src=""img/nature/S2.jpg"" width=""540"" height = ""360"" style=""border:14px solid orange"">","null","","","","","",""
"null","","html-keyboard-response","190","225717","0.0-190.0","","","null","","","","","",""
"576","","image-keyboard-response","191","226296","0.0-191.0","","img/nature/S1.jpg","49","1","Ns4,train","49","true","",""
"null","","html-keyboard-response","192","226662","0.0-192.0","","<img src=""img/nature/S1.jpg"" width=""540"" height = ""360"" style=""border:14px solid orange"">","null","","","","","",""
"null","","html-keyboard-response","193","226879","0.0-193.0","","","null","","","","","",""
"880.4000000953674","","image-keyboard-response","194","227763","0.0-194.0","","img/nature/S4.jpg","52","4","Ns4,train","52","true","",""
"null","","html-keyboard-response","195","228128","0.0-195.0","","<img src=""img/nature/S4.jpg"" width=""540"" height = ""360"" style=""border:14px solid orange"">","null","","","","","",""
"null","","html-keyboard-response","196","228344","0.0-196.0","","","null","","","","","",""
"706.2999999523163","","image-keyboard-response","197","229054","0.0-197.0","","img/nature/S3.jpg","51","3","Ns4,train","51","true","",""
"null","","html-keyboard-response","198","229414","0.0-198.0","","<img src=""img/nature/S3.jpg"" width=""540"" height = ""360"" style=""border:14px solid orange"">","null","","","","","",""
"null","","html-keyboard-response","199","229631","0.0-199.0","","","null","","","","","",""
"772.7000000476837","","image-keyboard-response","200","230407","0.0-200.0","","img/nature/S4.jpg","52","4","Ns4,train","52","true","",""
"null","","html-keyboard-response","201","230769","0.0-201.0","","<img src=""img/nature/S4.jpg"" width=""540"" height = ""360"" style=""border:14px solid orange"">","null","","","","","",""
"null","","html-keyboard-response","202","230984","0.0-202.0","","","null","","","","","",""
"499","","image-keyboard-response","203","231487","0.0-203.0","","img/nature/S4.jpg","52","4","Ns4,train","52","true","",""
"null","","html-keyboard-response","204","231853","0.0-204.0","","<img src=""img/nature/S4.jpg"" width=""540"" height = ""360"" style=""border:14px solid orange"">","null","","","","","",""
"null","","html-keyboard-response","205","232062","0.0-205.0","","","null","","","","","",""
"507.2999999523163","","image-keyboard-response","206","232573","0.0-206.0","","img/nature/S4.jpg","52","4","Ns4,train","52","true","",""
"null","","html-keyboard-response","207","232931","0.0-207.0","","<img src=""img/nature/S4.jpg"" width=""540"" height = ""360"" style=""border:14px solid orange"">","null","","","","","",""
"null","","html-keyboard-response","208","233145","0.0-208.0","","","null","","","","","",""
"667","","image-keyboard-response","209","233816","0.0-209.0","","img/nature/S3.jpg","51","3","Ns4,train","51","true","",""
"null","","html-keyboard-response","210","234170","0.0-210.0","","<img src=""img/nature/S3.jpg"" width=""540"" height = ""360"" style=""border:14px solid orange"">","null","","","","","",""
"null","","html-keyboard-response","211","234376","0.0-211.0","","","null","","","","","",""
"462.5","","image-keyboard-response","212","234842","0.0-212.0","","img/nature/S3.jpg","51","3","Ns4,train","51","true","",""
"null","","html-keyboard-response","213","235199","0.0-213.0","","<img src=""img/nature/S3.jpg"" width=""540"" height = ""360"" style=""border:14px solid orange"">","null","","","","","",""
"null","","html-keyboard-response","214","235407","0.0-214.0","","","null","","","","","",""
"586.2999999523163","","image-keyboard-response","215","235997","0.0-215.0","","img/nature/S2.jpg","50","2","Ns4,train","50","true","",""
"null","","html-keyboard-response","216","236360","0.0-216.0","","<img src=""img/nature/S2.jpg"" width=""540"" height = ""360"" style=""border:14px solid orange"">","null","","","","","",""
"null","","html-keyboard-response","217","236566","0.0-217.0","","","null","","","","","",""
"467.59999990463257","","image-keyboard-response","218","237037","0.0-218.0","","img/nature/S1.jpg","49","1","Ns4,train","49","true","",""
"null","","html-keyboard-response","219","237393","0.0-219.0","","<img src=""img/nature/S1.jpg"" width=""540"" height = ""360"" style=""border:14px solid orange"">","null","","","","","",""
"null","","html-keyboard-response","220","237597","0.0-220.0","","","null","","","","","",""
"702.4000000953674","","image-keyboard-response","221","238302","0.0-221.0","","img/nature/S3.jpg","51","3","Ns4,train","51","true","",""
"null","","html-keyboard-response","222","238669","0.0-222.0","","<img src=""img/nature/S3.jpg"" width=""540"" height = ""360"" style=""border:14px solid orange"">","null","","","","","",""
"null","","html-keyboard-response","223","238885","0.0-223.0","","","null","","","","","",""
"536.4000000953674","","image-keyboard-response","224","239425","0.0-224.0","","img/nature/S4.jpg","52","4","Ns4,train","52","true","",""
"null","","html-keyboard-response","225","239790","0.0-225.0","","<img src=""img/nature/S4.jpg"" width=""540"" height = ""360"" style=""border:14px solid orange"">","null","","","","","",""
"null","","html-keyboard-response","226","239998","0.0-226.0","","","null","","","","","",""
"637.1000001430511","","image-keyboard-response","227","240639","0.0-227.0","","img/nature/S3.jpg","51","3","Ns4,train","51","true","",""
"null","","html-keyboard-response","228","241009","0.0-228.0","","<img src=""img/nature/S3.jpg"" width=""540"" height = ""360"" style=""border:14px solid orange"">","null","","","","","",""
"null","","html-keyboard-response","229","241227","0.0-229.0","","","null","","","","","",""
"683.7999999523163","","image-keyboard-response","230","241915","0.0-230.0","","img/nature/S2.jpg","50","2","Ns4,train","50","true","",""
"null","","html-keyboard-response","231","242280","0.0-231.0","","<img src=""img/nature/S2.jpg"" width=""540"" height = ""360"" style=""border:14px solid orange"">","null","","","","","",""
"null","","html-keyboard-response","232","242484","0.0-232.0","","","null","","","","","",""
"822.5","","image-keyboard-response","233","243309","0.0-233.0","","img/nature/S1.jpg","49","1","Ns4,train","49","true","",""
"null","","html-keyboard-response","234","243663","0.0-234.0","","<img src=""img/nature/S1.jpg"" width=""540"" height = ""360"" style=""border:14px solid orange"">","null","","","","","",""
"null","","html-keyboard-response","235","243879","0.0-235.0","","","null","","","","","",""
"812.4000000953674","","image-keyboard-response","236","244695","0.0-236.0","","img/nature/S2.jpg","50","2","Ns4,train","50","true","",""
"null","","html-keyboard-response","237","245056","0.0-237.0","","<img src=""img/nature/S2.jpg"" width=""540"" height = ""360"" style=""border:14px solid orange"">","null","","","","","",""
"null","","html-keyboard-response","238","245265","0.0-238.0","","","null","","","","","",""
"566.5999999046326","","image-keyboard-response","239","245835","0.0-239.0","","img/nature/S1.jpg","49","1","Ns4,train","49","true","",""
"null","","html-keyboard-response","240","246198","0.0-240.0","","<img src=""img/nature/S1.jpg"" width=""540"" height = ""360"" style=""border:14px solid orange"">","null","","","","","",""
"null","","html-keyboard-response","241","246404","0.0-241.0","","","null","","","","","",""
"5365.900000095367","","html-keyboard-response","242","251773","0.0-242.0","","<p class=""center-content"">You have completed a block! </p><p class=""center-content"">Press any key on the keyboard to continue to the next block,</p><p class=""center-content"">or wait for the automatic progression to the next block after one minute.</p>","52","","","","","",""
"222.39999985694885","","image-keyboard-response","243","251999","0.0-243.0","","img/nature/S2.jpg","52","2","Ns4,perform","50","false","",""
"null","","html-keyboard-response","244","252358","0.0-244.0","","<img src=""img/nature/S2.jpg"" width=""540"" height = ""360"">","null","","","","","",""
"null","","html-keyboard-response","245","252575","0.0-245.0","","","null","","","","","",""
"1329.2000000476837","","image-keyboard-response","246","253908","0.0-246.0","","img/nature/S1.jpg","49","1","Ns4,perform","49","true","",""
"null","","html-keyboard-response","247","254261","0.0-247.0","","<img src=""img/nature/S1.jpg"" width=""540"" height = ""360"" style=""border:14px solid orange"">","null","","","","","",""
"null","","html-keyboard-response","248","254464","0.0-248.0","","","null","","","","","",""
"676.0999999046326","","image-keyboard-response","249","255143","0.0-249.0","","img/nature/S4.jpg","52","4","Ns4,perform","52","true","",""
"null","","html-keyboard-response","250","255511","0.0-250.0","","<img src=""img/nature/S4.jpg"" width=""540"" height = ""360"" style=""border:14px solid orange"">","null","","","","","",""
"null","","html-keyboard-response","251","255728","0.0-251.0","","","null","","","","","",""
"990.3000001907349","","image-keyboard-response","252","256720","0.0-252.0","","img/nature/S2.jpg","50","2","Ns4,perform","50","true","",""
"null","","html-keyboard-response","253","257073","0.0-253.0","","<img src=""img/nature/S2.jpg"" width=""540"" height = ""360"" style=""border:14px solid orange"">","null","","","","","",""
"null","","html-keyboard-response","254","257276","0.0-254.0","","","null","","","","","",""
"658.7999999523163","","image-keyboard-response","255","257937","0.0-255.0","","img/nature/S1.jpg","49","1","Ns4,perform","49","true","",""
"null","","html-keyboard-response","256","258291","0.0-256.0","","<img src=""img/nature/S1.jpg"" width=""540"" height = ""360"" style=""border:14px solid orange"">","null","","","","","",""
"null","","html-keyboard-response","257","258507","0.0-257.0","","","null","","","","","",""
"571","","image-keyboard-response","258","259080","0.0-258.0","","img/nature/S3.jpg","51","3","Ns4,perform","51","true","",""
"null","","html-keyboard-response","259","259448","0.0-259.0","","<img src=""img/nature/S3.jpg"" width=""540"" height = ""360"" style=""border:14px solid orange"">","null","","","","","",""
"null","","html-keyboard-response","260","259665","0.0-260.0","","","null","","","","","",""
"585","","image-keyboard-response","261","260252","0.0-261.0","","img/nature/S4.jpg","52","4","Ns4,perform","52","true","",""
"null","","html-keyboard-response","262","260608","0.0-262.0","","<img src=""img/nature/S4.jpg"" width=""540"" height = ""360"" style=""border:14px solid orange"">","null","","","","","",""
"null","","html-keyboard-response","263","260811","0.0-263.0","","","null","","","","","",""
"773.9000000953674","","image-keyboard-response","264","261586","0.0-264.0","","img/nature/S2.jpg","50","2","Ns4,perform","50","true","",""
"null","","html-keyboard-response","265","261955","0.0-265.0","","<img src=""img/nature/S2.jpg"" width=""540"" height = ""360"" style=""border:14px solid orange"">","null","","","","","",""
"null","","html-keyboard-response","266","262172","0.0-266.0","","","null","","","","","",""
"695.7999999523163","","image-keyboard-response","267","262870","0.0-267.0","","img/nature/S1.jpg","49","1","Ns4,perform","49","true","",""
"null","","html-keyboard-response","268","263223","0.0-268.0","","<img src=""img/nature/S1.jpg"" width=""540"" height = ""360"" style=""border:14px solid orange"">","null","","","","","",""
"null","","html-keyboard-response","269","263438","0.0-269.0","","","null","","","","","",""
"691","","image-keyboard-response","270","264131","0.0-270.0","","img/nature/S3.jpg","51","3","Ns4,perform","51","true","",""
"null","","html-keyboard-response","271","264496","0.0-271.0","","<img src=""img/nature/S3.jpg"" width=""540"" height = ""360"" style=""border:14px solid orange"">","null","","","","","",""
"null","","html-keyboard-response","272","264712","0.0-272.0","","","null","","","","","",""
"462.40000009536743","","image-keyboard-response","273","265176","0.0-273.0","","img/nature/S3.jpg","51","3","Ns4,perform","51","true","",""
"null","","html-keyboard-response","274","265533","0.0-274.0","","<img src=""img/nature/S3.jpg"" width=""540"" height = ""360"" style=""border:14px solid orange"">","null","","","","","",""
"null","","html-keyboard-response","275","265750","0.0-275.0","","","null","","","","","",""
"738.7000000476837","","image-keyboard-response","276","266492","0.0-276.0","","img/nature/S4.jpg","52","4","Ns4,perform","52","true","",""
"null","","html-keyboard-response","277","266846","0.0-277.0","","<img src=""img/nature/S4.jpg"" width=""540"" height = ""360"" style=""border:14px solid orange"">","null","","","","","",""
"null","","html-keyboard-response","278","267061","0.0-278.0","","","null","","","","","",""
"469.69999980926514","","image-keyboard-response","279","267534","0.0-279.0","","img/nature/S4.jpg","52","4","Ns4,perform","52","true","",""
"null","","html-keyboard-response","280","267891","0.0-280.0","","<img src=""img/nature/S4.jpg"" width=""540"" height = ""360"" style=""border:14px solid orange"">","null","","","","","",""
"null","","html-keyboard-response","281","268108","0.0-281.0","","","null","","","","","",""
"669.9000000953674","","image-keyboard-response","282","268782","0.0-282.0","","img/nature/S3.jpg","51","3","Ns4,perform","51","true","",""
"null","","html-keyboard-response","283","269136","0.0-283.0","","<img src=""img/nature/S3.jpg"" width=""540"" height = ""360"" style=""border:14px solid orange"">","null","","","","","",""
"null","","html-keyboard-response","284","269353","0.0-284.0","","","null","","","","","",""
"538.6000001430511","","image-keyboard-response","285","269894","0.0-285.0","","img/nature/S4.jpg","52","4","Ns4,perform","52","true","",""
"null","","html-keyboard-response","286","270260","0.0-286.0","","<img src=""img/nature/S4.jpg"" width=""540"" height = ""360"" style=""border:14px solid orange"">","null","","","","","",""
"null","","html-keyboard-response","287","270474","0.0-287.0","","","null","","","","","",""
"626.7000000476837","","image-keyboard-response","288","271105","0.0-288.0","","img/nature/S4.jpg","52","4","Ns4,perform","52","true","",""
"null","","html-keyboard-response","289","271462","0.0-289.0","","<img src=""img/nature/S4.jpg"" width=""540"" height = ""360"" style=""border:14px solid orange"">","null","","","","","",""
"null","","html-keyboard-response","290","271676","0.0-290.0","","","null","","","","","",""
"665.5999999046326","","image-keyboard-response","291","272345","0.0-291.0","","img/nature/S2.jpg","50","2","Ns4,perform","50","true","",""
"null","","html-keyboard-response","292","272703","0.0-292.0","","<img src=""img/nature/S2.jpg"" width=""540"" height = ""360"" style=""border:14px solid orange"">","null","","","","","",""
"null","","html-keyboard-response","293","272917","0.0-293.0","","","null","","","","","",""
"425.19999980926514","","image-keyboard-response","294","273346","0.0-294.0","","img/nature/S1.jpg","49","1","Ns4,perform","49","true","",""
"null","","html-keyboard-response","295","273700","0.0-295.0","","<img src=""img/nature/S1.jpg"" width=""540"" height = ""360"" style=""border:14px solid orange"">","null","","","","","",""
"null","","html-keyboard-response","296","273915","0.0-296.0","","","null","","","","","",""
"678","","image-keyboard-response","297","274596","0.0-297.0","","img/nature/S4.jpg","52","4","Ns4,perform","52","true","",""
"null","","html-keyboard-response","298","274964","0.0-298.0","","<img src=""img/nature/S4.jpg"" width=""540"" height = ""360"" style=""border:14px solid orange"">","null","","","","","",""
"null","","html-keyboard-response","299","275181","0.0-299.0","","","null","","","","","",""
"655.7000000476837","","image-keyboard-response","300","275841","0.0-300.0","","img/nature/S3.jpg","51","3","Ns4,perform","51","true","",""
"null","","html-keyboard-response","301","276210","0.0-301.0","","<img src=""img/nature/S3.jpg"" width=""540"" height = ""360"" style=""border:14px solid orange"">","null","","","","","",""
"null","","html-keyboard-response","302","276426","0.0-302.0","","","null","","","","","",""
"461","","image-keyboard-response","303","276891","0.0-303.0","","img/nature/S3.jpg","51","3","Ns4,perform","51","true","",""
"null","","html-keyboard-response","304","277253","0.0-304.0","","<img src=""img/nature/S3.jpg"" width=""540"" height = ""360"" style=""border:14px solid orange"">","null","","","","","",""
"null","","html-keyboard-response","305","277456","0.0-305.0","","","null","","","","","",""
"548.8999998569489","","image-keyboard-response","306","278009","0.0-306.0","","img/nature/S4.jpg","52","4","Ns4,perform","52","true","",""
"null","","html-keyboard-response","307","278364","0.0-307.0","","<img src=""img/nature/S4.jpg"" width=""540"" height = ""360"" style=""border:14px solid orange"">","null","","","","","",""
"null","","html-keyboard-response","308","278578","0.0-308.0","","","null","","","","","",""
"516.4000000953674","","image-keyboard-response","309","279096","0.0-309.0","","img/nature/S3.jpg","52","3","Ns4,perform","51","false","",""
"null","","html-keyboard-response","310","279462","0.0-310.0","","<img src=""img/nature/S3.jpg"" width=""540"" height = ""360"">","null","","","","","",""
"null","","html-keyboard-response","311","279677","0.0-311.0","","","null","","","","","",""
"510","","image-keyboard-response","312","280191","0.0-312.0","","img/nature/S3.jpg","51","3","Ns4,perform","51","true","",""
"null","","html-keyboard-response","313","280551","0.0-313.0","","<img src=""img/nature/S3.jpg"" width=""540"" height = ""360"" style=""border:14px solid orange"">","null","","","","","",""
"null","","html-keyboard-response","314","280754","0.0-314.0","","","null","","","","","",""
"437.09999990463257","","image-keyboard-response","315","281198","0.0-315.0","","img/nature/S3.jpg","51","3","Ns4,perform","51","true","",""
"null","","html-keyboard-response","316","281556","0.0-316.0","","<img src=""img/nature/S3.jpg"" width=""540"" height = ""360"" style=""border:14px solid orange"">","null","","","","","",""
"null","","html-keyboard-response","317","281770","0.0-317.0","","","null","","","","","",""
"711.7000000476837","","image-keyboard-response","318","282486","0.0-318.0","","img/nature/S2.jpg","50","2","Ns4,perform","50","true","",""
"null","","html-keyboard-response","319","282846","0.0-319.0","","<img src=""img/nature/S2.jpg"" width=""540"" height = ""360"" style=""border:14px solid orange"">","null","","","","","",""
"null","","html-keyboard-response","320","283060","0.0-320.0","","","null","","","","","",""
"613.2999999523163","","image-keyboard-response","321","283679","0.0-321.0","","img/nature/S1.jpg","49","1","Ns4,perform","49","true","",""
"null","","html-keyboard-response","322","284036","0.0-322.0","","<img src=""img/nature/S1.jpg"" width=""540"" height = ""360"" style=""border:14px solid orange"">","null","","","","","",""
"null","","html-keyboard-response","323","284249","0.0-323.0","","","null","","","","","",""
"703.2999999523163","","image-keyboard-response","324","284956","0.0-324.0","","img/nature/S3.jpg","51","3","Ns4,perform","51","true","",""
"null","","html-keyboard-response","325","285324","0.0-325.0","","<img src=""img/nature/S3.jpg"" width=""540"" height = ""360"" style=""border:14px solid orange"">","null","","","","","",""
"null","","html-keyboard-response","326","285538","0.0-326.0","","","null","","","","","",""
"674.2999999523163","","image-keyboard-response","327","286216","0.0-327.0","","img/nature/S2.jpg","50","2","Ns4,perform","50","true","",""
"null","","html-keyboard-response","328","286581","0.0-328.0","","<img src=""img/nature/S2.jpg"" width=""540"" height = ""360"" style=""border:14px solid orange"">","null","","","","","",""
"null","","html-keyboard-response","329","286784","0.0-329.0","","","null","","","","","",""
"615.3999998569489","","image-keyboard-response","330","287402","0.0-330.0","","img/nature/S1.jpg","49","1","Ns4,perform","49","true","",""
"null","","html-keyboard-response","331","287758","0.0-331.0","","<img src=""img/nature/S1.jpg"" width=""540"" height = ""360"" style=""border:14px solid orange"">","null","","","","","",""
"null","","html-keyboard-response","332","287963","0.0-332.0","","","null","","","","","",""
"659.7000000476837","","image-keyboard-response","333","288626","0.0-333.0","","img/nature/S2.jpg","50","2","Ns4,perform","50","true","",""
"null","","html-keyboard-response","334","288993","0.0-334.0","","<img src=""img/nature/S2.jpg"" width=""540"" height = ""360"" style=""border:14px solid orange"">","null","","","","","",""
"null","","html-keyboard-response","335","289197","0.0-335.0","","","null","","","","","",""
"561.7999999523163","","image-keyboard-response","336","289763","0.0-336.0","","img/nature/S1.jpg","49","1","Ns4,perform","49","true","",""
"null","","html-keyboard-response","337","290131","0.0-337.0","","<img src=""img/nature/S1.jpg"" width=""540"" height = ""360"" style=""border:14px solid orange"">","null","","","","","",""
"null","","html-keyboard-response","338","290347","0.0-338.0","","","null","","","","","",""
"875.7000000476837","","image-keyboard-response","339","291226","0.0-339.0","","img/nature/S4.jpg","52","4","Ns4,perform","52","true","",""
"null","","html-keyboard-response","340","291584","0.0-340.0","","<img src=""img/nature/S4.jpg"" width=""540"" height = ""360"" style=""border:14px solid orange"">","null","","","","","",""
"null","","html-keyboard-response","341","291801","0.0-341.0","","","null","","","","","",""
"428.30000019073486","","image-keyboard-response","342","292233","0.0-342.0","","img/nature/S4.jpg","52","4","Ns4,perform","52","true","",""
"null","","html-keyboard-response","343","292587","0.0-343.0","","<img src=""img/nature/S4.jpg"" width=""540"" height = ""360"" style=""border:14px solid orange"">","null","","","","","",""
"null","","html-keyboard-response","344","292801","0.0-344.0","","","null","","","","","",""
"532.5","","image-keyboard-response","345","293337","0.0-345.0","","img/nature/S3.jpg","51","3","Ns4,perform","51","true","",""
"null","","html-keyboard-response","346","293695","0.0-346.0","","<img src=""img/nature/S3.jpg"" width=""540"" height = ""360"" style=""border:14px solid orange"">","null","","","","","",""
"null","","html-keyboard-response","347","293910","0.0-347.0","","","null","","","","","",""
"595.7999999523163","","image-keyboard-response","348","294509","0.0-348.0","","img/nature/S2.jpg","50","2","Ns4,perform","50","true","",""
"null","","html-keyboard-response","349","294878","0.0-349.0","","<img src=""img/nature/S2.jpg"" width=""540"" height = ""360"" style=""border:14px solid orange"">","null","","","","","",""
"null","","html-keyboard-response","350","295096","0.0-350.0","","","null","","","","","",""
"519.8999998569489","","image-keyboard-response","351","295620","0.0-351.0","","img/nature/S1.jpg","49","1","Ns4,perform","49","true","",""
"null","","html-keyboard-response","352","295975","0.0-352.0","","<img src=""img/nature/S1.jpg"" width=""540"" height = ""360"" style=""border:14px solid orange"">","null","","","","","",""
"null","","html-keyboard-response","353","296189","0.0-353.0","","","null","","","","","",""
"599.8999998569489","","image-keyboard-response","354","296793","0.0-354.0","","img/nature/S2.jpg","50","2","Ns4,perform","50","true","",""
"null","","html-keyboard-response","355","297157","0.0-355.0","","<img src=""img/nature/S2.jpg"" width=""540"" height = ""360"" style=""border:14px solid orange"">","null","","","","","",""
"null","","html-keyboard-response","356","297371","0.0-356.0","","","null","","","","","",""
"666.8999998569489","","image-keyboard-response","357","298041","0.0-357.0","","img/nature/S1.jpg","49","1","Ns4,perform","49","true","",""
"null","","html-keyboard-response","358","298397","0.0-358.0","","<img src=""img/nature/S1.jpg"" width=""540"" height = ""360"" style=""border:14px solid orange"">","null","","","","","",""
"null","","html-keyboard-response","359","298613","0.0-359.0","","","null","","","","","",""
"799.5","","image-keyboard-response","360","299417","0.0-360.0","","img/nature/S4.jpg","52","4","Ns4,perform","52","true","",""
"null","","html-keyboard-response","361","299776","0.0-361.0","","<img src=""img/nature/S4.jpg"" width=""540"" height = ""360"" style=""border:14px solid orange"">","null","","","","","",""
"null","","html-keyboard-response","362","299990","0.0-362.0","","","null","","","","","",""
"420.40000009536743","","image-keyboard-response","363","300414","0.0-363.0","","img/nature/S4.jpg","52","4","Ns4,perform","52","true","",""
"null","","html-keyboard-response","364","300773","0.0-364.0","","<img src=""img/nature/S4.jpg"" width=""540"" height = ""360"" style=""border:14px solid orange"">","null","","","","","",""
"null","","html-keyboard-response","365","300988","0.0-365.0","","","null","","","","","",""
"419.5","","image-keyboard-response","366","301412","0.0-366.0","","img/nature/S4.jpg","52","4","Ns4,perform","52","true","",""
"null","","html-keyboard-response","367","301767","0.0-367.0","","<img src=""img/nature/S4.jpg"" width=""540"" height = ""360"" style=""border:14px solid orange"">","null","","","","","",""
"null","","html-keyboard-response","368","301983","0.0-368.0","","","null","","","","","",""
"620.5999999046326","","image-keyboard-response","369","302608","0.0-369.0","","img/nature/S3.jpg","51","3","Ns4,perform","51","true","",""
"null","","html-keyboard-response","370","302971","0.0-370.0","","<img src=""img/nature/S3.jpg"" width=""540"" height = ""360"" style=""border:14px solid orange"">","null","","","","","",""
"null","","html-keyboard-response","371","303186","0.0-371.0","","","null","","","","","",""
"695.4000000953674","","image-keyboard-response","372","303889","0.0-372.0","","img/nature/S2.jpg","50","2","Ns4,perform","50","true","",""
"null","","html-keyboard-response","373","304246","0.0-373.0","","<img src=""img/nature/S2.jpg"" width=""540"" height = ""360"" style=""border:14px solid orange"">","null","","","","","",""
"null","","html-keyboard-response","374","304453","0.0-374.0","","","null","","","","","",""
"530.3000001907349","","image-keyboard-response","375","304987","0.0-375.0","","img/nature/S1.jpg","49","1","Ns4,perform","49","true","",""
"null","","html-keyboard-response","376","305344","0.0-376.0","","<img src=""img/nature/S1.jpg"" width=""540"" height = ""360"" style=""border:14px solid orange"">","null","","","","","",""
"null","","html-keyboard-response","377","305559","0.0-377.0","","","null","","","","","",""
"1638.6000001430511","","image-keyboard-response","378","307202","0.0-378.0","","img/nature/S2.jpg","50","2","Ns4,perform","50","true","",""
"null","","html-keyboard-response","379","307557","0.0-379.0","","<img src=""img/nature/S2.jpg"" width=""540"" height = ""360"" style=""border:14px solid orange"">","null","","","","","",""
"null","","html-keyboard-response","380","307771","0.0-380.0","","","null","","","","","",""
"685.7999999523163","","image-keyboard-response","381","308460","0.0-381.0","","img/nature/S1.jpg","49","1","Ns4,perform","49","true","",""
"null","","html-keyboard-response","382","308818","0.0-382.0","","<img src=""img/nature/S1.jpg"" width=""540"" height = ""360"" style=""border:14px solid orange"">","null","","","","","",""
"null","","html-keyboard-response","383","309032","0.0-383.0","","","null","","","","","",""
"705","","image-keyboard-response","384","309741","0.0-384.0","","img/nature/S3.jpg","51","3","Ns4,perform","51","true","",""
"null","","html-keyboard-response","385","310097","0.0-385.0","","<img src=""img/nature/S3.jpg"" width=""540"" height = ""360"" style=""border:14px solid orange"">","null","","","","","",""
"null","","html-keyboard-response","386","310313","0.0-386.0","","","null","","","","","",""
"422.90000009536743","","image-keyboard-response","387","310740","0.0-387.0","","img/nature/S2.jpg","52","2","Ns4,perform","50","false","",""
"null","","html-keyboard-response","388","311110","0.0-388.0","","<img src=""img/nature/S2.jpg"" width=""540"" height = ""360"">","null","","","","","",""
"null","","html-keyboard-response","389","311326","0.0-389.0","","","null","","","","","",""
"736","","image-keyboard-response","390","312065","0.0-390.0","","img/nature/S1.jpg","49","1","Ns4,perform","49","true","",""
"null","","html-keyboard-response","391","312432","0.0-391.0","","<img src=""img/nature/S1.jpg"" width=""540"" height = ""360"" style=""border:14px solid orange"">","null","","","","","",""
"null","","html-keyboard-response","392","312635","0.0-392.0","","","null","","","","","",""
"618.5999999046326","","image-keyboard-response","393","313258","0.0-393.0","","img/nature/S4.jpg","52","4","Ns4,perform","52","true","",""
"null","","html-keyboard-response","394","313619","0.0-394.0","","<img src=""img/nature/S4.jpg"" width=""540"" height = ""360"" style=""border:14px solid orange"">","null","","","","","",""
"null","","html-keyboard-response","395","313834","0.0-395.0","","","null","","","","","",""
"820.7000000476837","","image-keyboard-response","396","314658","0.0-396.0","","img/nature/S3.jpg","51","3","Ns4,perform","51","true","",""
"null","","html-keyboard-response","397","315017","0.0-397.0","","<img src=""img/nature/S3.jpg"" width=""540"" height = ""360"" style=""border:14px solid orange"">","null","","","","","",""
"null","","html-keyboard-response","398","315234","0.0-398.0","","","null","","","","","",""
"730.5","","image-keyboard-response","399","315968","0.0-399.0","","img/nature/S2.jpg","50","2","Ns4,perform","50","true","",""
"null","","html-keyboard-response","400","316325","0.0-400.0","","<img src=""img/nature/S2.jpg"" width=""540"" height = ""360"" style=""border:14px solid orange"">","null","","","","","",""
"null","","html-keyboard-response","401","316539","0.0-401.0","","","null","","","","","",""
"524.7000000476837","","image-keyboard-response","402","317068","0.0-402.0","","img/nature/S1.jpg","49","1","Ns4,perform","49","true","",""
"null","","html-keyboard-response","403","317435","0.0-403.0","","<img src=""img/nature/S1.jpg"" width=""540"" height = ""360"" style=""border:14px solid orange"">","null","","","","","",""
"null","","html-keyboard-response","404","317639","0.0-404.0","","","null","","","","","",""
"730.9000000953674","","image-keyboard-response","405","318373","0.0-405.0","","img/nature/S3.jpg","51","3","Ns4,perform","51","true","",""
"null","","html-keyboard-response","406","318731","0.0-406.0","","<img src=""img/nature/S3.jpg"" width=""540"" height = ""360"" style=""border:14px solid orange"">","null","","","","","",""
"null","","html-keyboard-response","407","318949","0.0-407.0","","","null","","","","","",""
"657.2999999523163","","image-keyboard-response","408","319609","0.0-408.0","","img/nature/S2.jpg","50","2","Ns4,perform","50","true","",""
"null","","html-keyboard-response","409","319964","0.0-409.0","","<img src=""img/nature/S2.jpg"" width=""540"" height = ""360"" style=""border:14px solid orange"">","null","","","","","",""
"null","","html-keyboard-response","410","320168","0.0-410.0","","","null","","","","","",""
"441.39999985694885","","image-keyboard-response","411","320613","0.0-411.0","","img/nature/S1.jpg","49","1","Ns4,perform","49","true","",""
"null","","html-keyboard-response","412","320978","0.0-412.0","","<img src=""img/nature/S1.jpg"" width=""540"" height = ""360"" style=""border:14px solid orange"">","null","","","","","",""
"null","","html-keyboard-response","413","321193","0.0-413.0","","","null","","","","","",""
"561","","image-keyboard-response","414","321757","0.0-414.0","","img/nature/S4.jpg","52","4","Ns4,perform","52","true","",""
"null","","html-keyboard-response","415","322120","0.0-415.0","","<img src=""img/nature/S4.jpg"" width=""540"" height = ""360"" style=""border:14px solid orange"">","null","","","","","",""
"null","","html-keyboard-response","416","322334","0.0-416.0","","","null","","","","","",""
"749.4000000953674","","image-keyboard-response","417","323086","0.0-417.0","","img/nature/S2.jpg","50","2","Ns4,perform","50","true","",""
"null","","html-keyboard-response","418","323441","0.0-418.0","","<img src=""img/nature/S2.jpg"" width=""540"" height = ""360"" style=""border:14px solid orange"">","null","","","","","",""
"null","","html-keyboard-response","419","323658","0.0-419.0","","","null","","","","","",""
"689.6999998092651","","image-keyboard-response","420","324352","0.0-420.0","","img/nature/S1.jpg","49","1","Ns4,perform","49","true","",""
"null","","html-keyboard-response","421","324709","0.0-421.0","","<img src=""img/nature/S1.jpg"" width=""540"" height = ""360"" style=""border:14px solid orange"">","null","","","","","",""
"null","","html-keyboard-response","422","324924","0.0-422.0","","","null","","","","","",""
"5666.099999904633","","html-keyboard-response","423","330593","0.0-423.0","","<p class=""center-content"">You have completed a block! </p><p class=""center-content"">Press any key on the keyboard to continue to the next block,</p><p class=""center-content"">or wait for the automatic progression to the next block after one minute.</p>","51","","","","","",""
"1156.2999999523163","","image-keyboard-response","424","331753","0.0-424.0","","img/nature/S1.jpg","49","1","Ns4,test","49","true","",""
"null","","html-keyboard-response","425","332110","0.0-425.0","","<img src=""img/nature/S1.jpg"" width=""540"" height = ""360"" style=""border:14px solid orange"">","null","","","","","",""
"null","","html-keyboard-response","426","332313","0.0-426.0","","","null","","","","","",""
"661","","image-keyboard-response","427","332977","0.0-427.0","","img/nature/S4.jpg","52","4","Ns4,test","52","true","",""
"null","","html-keyboard-response","428","333332","0.0-428.0","","<img src=""img/nature/S4.jpg"" width=""540"" height = ""360"" style=""border:14px solid orange"">","null","","","","","",""
"null","","html-keyboard-response","429","333544","0.0-429.0","","","null","","","","","",""
"518.5","","image-keyboard-response","430","334067","0.0-430.0","","img/nature/S3.jpg","51","3","Ns4,test","51","true","",""
"null","","html-keyboard-response","431","334425","0.0-431.0","","<img src=""img/nature/S3.jpg"" width=""540"" height = ""360"" style=""border:14px solid orange"">","null","","","","","",""
"null","","html-keyboard-response","432","334639","0.0-432.0","","","null","","","","","",""
"932.0999999046326","","image-keyboard-response","433","335574","0.0-433.0","","img/nature/S1.jpg","50","1","Ns4,test","49","false","",""
"null","","html-keyboard-response","434","335943","0.0-434.0","","<img src=""img/nature/S1.jpg"" width=""540"" height = ""360"">","null","","","","","",""
"null","","html-keyboard-response","435","336147","0.0-435.0","","","null","","","","","",""
"595.4000000953674","","image-keyboard-response","436","336747","0.0-436.0","","img/nature/S4.jpg","52","4","Ns4,test","52","true","",""
"null","","html-keyboard-response","437","337104","0.0-437.0","","<img src=""img/nature/S4.jpg"" width=""540"" height = ""360"" style=""border:14px solid orange"">","null","","","","","",""
"null","","html-keyboard-response","438","337314","0.0-438.0","","","null","","","","","",""
"753.2999999523163","","image-keyboard-response","439","338072","0.0-439.0","","img/nature/S2.jpg","50","2","Ns4,test","50","true","",""
"null","","html-keyboard-response","440","338437","0.0-440.0","","<img src=""img/nature/S2.jpg"" width=""540"" height = ""360"" style=""border:14px solid orange"">","null","","","","","",""
"null","","html-keyboard-response","441","338654","0.0-441.0","","","null","","","","","",""
"424.90000009536743","","image-keyboard-response","442","339082","0.0-442.0","","img/nature/S1.jpg","49","1","Ns4,test","49","true","",""
"null","","html-keyboard-response","443","339435","0.0-443.0","","<img src=""img/nature/S1.jpg"" width=""540"" height = ""360"" style=""border:14px solid orange"">","null","","","","","",""
"null","","html-keyboard-response","444","339647","0.0-444.0","","","null","","","","","",""
"690","","image-keyboard-response","445","340342","0.0-445.0","","img/nature/S3.jpg","51","3","Ns4,test","51","true","",""
"null","","html-keyboard-response","446","340706","0.0-446.0","","<img src=""img/nature/S3.jpg"" width=""540"" height = ""360"" style=""border:14px solid orange"">","null","","","","","",""
"null","","html-keyboard-response","447","340923","0.0-447.0","","","null","","","","","",""
"418.90000009536743","","image-keyboard-response","448","341346","0.0-448.0","","img/nature/S3.jpg","51","3","Ns4,test","51","true","",""
"null","","html-keyboard-response","449","341715","0.0-449.0","","<img src=""img/nature/S3.jpg"" width=""540"" height = ""360"" style=""border:14px solid orange"">","null","","","","","",""
"null","","html-keyboard-response","450","341929","0.0-450.0","","","null","","","","","",""
"409.7999999523163","","image-keyboard-response","451","342343","0.0-451.0","","img/nature/S3.jpg","51","3","Ns4,test","51","true","",""
"null","","html-keyboard-response","452","342712","0.0-452.0","","<img src=""img/nature/S3.jpg"" width=""540"" height = ""360"" style=""border:14px solid orange"">","null","","","","","",""
"null","","html-keyboard-response","453","342921","0.0-453.0","","","null","","","","","",""
"376.10000014305115","","image-keyboard-response","454","343300","0.0-454.0","","img/nature/S3.jpg","51","3","Ns4,test","51","true","",""
"null","","html-keyboard-response","455","343669","0.0-455.0","","<img src=""img/nature/S3.jpg"" width=""540"" height = ""360"" style=""border:14px solid orange"">","null","","","","","",""
"null","","html-keyboard-response","456","343882","0.0-456.0","","","null","","","","","",""
"632.4000000953674","","image-keyboard-response","457","344519","0.0-457.0","","img/nature/S4.jpg","51","4","Ns4,test","52","false","",""
"null","","html-keyboard-response","458","344884","0.0-458.0","","<img src=""img/nature/S4.jpg"" width=""540"" height = ""360"">","null","","","","","",""
"null","","html-keyboard-response","459","345100","0.0-459.0","","","null","","","","","",""
"530.3000001907349","","image-keyboard-response","460","345634","0.0-460.0","","img/nature/S4.jpg","52","4","Ns4,test","52","true","",""
"null","","html-keyboard-response","461","346000","0.0-461.0","","<img src=""img/nature/S4.jpg"" width=""540"" height = ""360"" style=""border:14px solid orange"">","null","","","","","",""
"null","","html-keyboard-response","462","346203","0.0-462.0","","","null","","","","","",""
"683.3999998569489","","image-keyboard-response","463","346891","0.0-463.0","","img/nature/S2.jpg","50","2","Ns4,test","50","true","",""
"null","","html-keyboard-response","464","347252","0.0-464.0","","<img src=""img/nature/S2.jpg"" width=""540"" height = ""360"" style=""border:14px solid orange"">","null","","","","","",""
"null","","html-keyboard-response","465","347465","0.0-465.0","","","null","","","","","",""
"753.2000000476837","","image-keyboard-response","466","348222","0.0-466.0","","img/nature/S3.jpg","51","3","Ns4,test","51","true","",""
"null","","html-keyboard-response","467","348587","0.0-467.0","","<img src=""img/nature/S3.jpg"" width=""540"" height = ""360"" style=""border:14px solid orange"">","null","","","","","",""
"null","","html-keyboard-response","468","348802","0.0-468.0","","","null","","","","","",""
"652.4000000953674","","image-keyboard-response","469","349459","0.0-469.0","","img/nature/S1.jpg","49","1","Ns4,test","49","true","",""
"null","","html-keyboard-response","470","349820","0.0-470.0","","<img src=""img/nature/S1.jpg"" width=""540"" height = ""360"" style=""border:14px solid orange"">","null","","","","","",""
"null","","html-keyboard-response","471","350034","0.0-471.0","","","null","","","","","",""
"812.2000000476837","","image-keyboard-response","472","350850","0.0-472.0","","img/nature/S2.jpg","50","2","Ns4,test","50","true","",""
"null","","html-keyboard-response","473","351207","0.0-473.0","","<img src=""img/nature/S2.jpg"" width=""540"" height = ""360"" style=""border:14px solid orange"">","null","","","","","",""
"null","","html-keyboard-response","474","351424","0.0-474.0","","","null","","","","","",""
"507.10000014305115","","image-keyboard-response","475","351934","0.0-475.0","","img/nature/S2.jpg","50","2","Ns4,test","50","true","",""
"null","","html-keyboard-response","476","352299","0.0-476.0","","<img src=""img/nature/S2.jpg"" width=""540"" height = ""360"" style=""border:14px solid orange"">","null","","","","","",""
"null","","html-keyboard-response","477","352513","0.0-477.0","","","null","","","","","",""
"606.0999999046326","","image-keyboard-response","478","353123","0.0-478.0","","img/nature/S4.jpg","52","4","Ns4,test","52","true","",""
"null","","html-keyboard-response","479","353481","0.0-479.0","","<img src=""img/nature/S4.jpg"" width=""540"" height = ""360"" style=""border:14px solid orange"">","null","","","","","",""
"null","","html-keyboard-response","480","353696","0.0-480.0","","","null","","","","","",""
"463.19999980926514","","image-keyboard-response","481","354163","0.0-481.0","","img/nature/S3.jpg","51","3","Ns4,test","51","true","",""
"null","","html-keyboard-response","482","354527","0.0-482.0","","<img src=""img/nature/S3.jpg"" width=""540"" height = ""360"" style=""border:14px solid orange"">","null","","","","","",""
"null","","html-keyboard-response","483","354741","0.0-483.0","","","null","","","","","",""
"738.1000001430511","","image-keyboard-response","484","355483","0.0-484.0","","img/nature/S2.jpg","50","2","Ns4,test","50","true","",""
"null","","html-keyboard-response","485","355838","0.0-485.0","","<img src=""img/nature/S2.jpg"" width=""540"" height = ""360"" style=""border:14px solid orange"">","null","","","","","",""
"null","","html-keyboard-response","486","356042","0.0-486.0","","","null","","","","","",""
"737.6999998092651","","image-keyboard-response","487","356783","0.0-487.0","","img/nature/S1.jpg","49","1","Ns4,test","49","true","",""
"null","","html-keyboard-response","488","357138","0.0-488.0","","<img src=""img/nature/S1.jpg"" width=""540"" height = ""360"" style=""border:14px solid orange"">","null","","","","","",""
"null","","html-keyboard-response","489","357341","0.0-489.0","","","null","","","","","",""
"800.2000000476837","","image-keyboard-response","490","358145","0.0-490.0","","img/nature/S2.jpg","50","2","Ns4,test","50","true","",""
"null","","html-keyboard-response","491","358512","0.0-491.0","","<img src=""img/nature/S2.jpg"" width=""540"" height = ""360"" style=""border:14px solid orange"">","null","","","","","",""
"null","","html-keyboard-response","492","358729","0.0-492.0","","","null","","","","","",""
"687.2000000476837","","image-keyboard-response","493","359420","0.0-493.0","","img/nature/S1.jpg","49","1","Ns4,test","49","true","",""
"null","","html-keyboard-response","494","359780","0.0-494.0","","<img src=""img/nature/S1.jpg"" width=""540"" height = ""360"" style=""border:14px solid orange"">","null","","","","","",""
"null","","html-keyboard-response","495","359996","0.0-495.0","","","null","","","","","",""
"489.69999980926514","","image-keyboard-response","496","360489","0.0-496.0","","img/nature/S1.jpg","49","1","Ns4,test","49","true","",""
"null","","html-keyboard-response","497","360845","0.0-497.0","","<img src=""img/nature/S1.jpg"" width=""540"" height = ""360"" style=""border:14px solid orange"">","null","","","","","",""
"null","","html-keyboard-response","498","361060","0.0-498.0","","","null","","","","","",""
"1102.1999998092651","","image-keyboard-response","499","362165","0.0-499.0","","img/nature/S1.jpg","49","1","Ns4,test","49","true","",""
"null","","html-keyboard-response","500","362521","0.0-500.0","","<img src=""img/nature/S1.jpg"" width=""540"" height = ""360"" style=""border:14px solid orange"">","null","","","","","",""
"null","","html-keyboard-response","501","362732","0.0-501.0","","","null","","","","","",""
"618.9000000953674","","image-keyboard-response","502","363355","0.0-502.0","","img/nature/S4.jpg","52","4","Ns4,test","52","true","",""
"null","","html-keyboard-response","503","363709","0.0-503.0","","<img src=""img/nature/S4.jpg"" width=""540"" height = ""360"" style=""border:14px solid orange"">","null","","","","","",""
"null","","html-keyboard-response","504","363923","0.0-504.0","","","null","","","","","",""
"801.2999999523163","","image-keyboard-response","505","364728","0.0-505.0","","img/nature/S1.jpg","49","1","Ns4,test","49","true","",""
"null","","html-keyboard-response","506","365088","0.0-506.0","","<img src=""img/nature/S1.jpg"" width=""540"" height = ""360"" style=""border:14px solid orange"">","null","","","","","",""
"null","","html-keyboard-response","507","365303","0.0-507.0","","","null","","","","","",""
"649.2000000476837","","image-keyboard-response","508","365956","0.0-508.0","","img/nature/S1.jpg","49","1","Ns4,test","49","true","",""
"null","","html-keyboard-response","509","366319","0.0-509.0","","<img src=""img/nature/S1.jpg"" width=""540"" height = ""360"" style=""border:14px solid orange"">","null","","","","","",""
"null","","html-keyboard-response","510","366536","0.0-510.0","","","null","","","","","",""
"614.7999999523163","","image-keyboard-response","511","367155","0.0-511.0","","img/nature/S2.jpg","50","2","Ns4,test","50","true","",""
"null","","html-keyboard-response","512","367521","0.0-512.0","","<img src=""img/nature/S2.jpg"" width=""540"" height = ""360"" style=""border:14px solid orange"">","null","","","","","",""
"null","","html-keyboard-response","513","367738","0.0-513.0","","","null","","","","","",""
"688.5","","image-keyboard-response","514","368430","0.0-514.0","","img/nature/S1.jpg","49","1","Ns4,test","49","true","",""
"null","","html-keyboard-response","515","368785","0.0-515.0","","<img src=""img/nature/S1.jpg"" width=""540"" height = ""360"" style=""border:14px solid orange"">","null","","","","","",""
"null","","html-keyboard-response","516","368999","0.0-516.0","","","null","","","","","",""
"657.2999999523163","","image-keyboard-response","517","369661","0.0-517.0","","img/nature/S2.jpg","50","2","Ns4,test","50","true","",""
"null","","html-keyboard-response","518","370030","0.0-518.0","","<img src=""img/nature/S2.jpg"" width=""540"" height = ""360"" style=""border:14px solid orange"">","null","","","","","",""
"null","","html-keyboard-response","519","370237","0.0-519.0","","","null","","","","","",""
"847.6000001430511","","image-keyboard-response","520","371088","0.0-520.0","","img/nature/S3.jpg","51","3","Ns4,test","51","true","",""
"null","","html-keyboard-response","521","371442","0.0-521.0","","<img src=""img/nature/S3.jpg"" width=""540"" height = ""360"" style=""border:14px solid orange"">","null","","","","","",""
"null","","html-keyboard-response","522","371644","0.0-522.0","","","null","","","","","",""
"524","","image-keyboard-response","523","372172","0.0-523.0","","img/nature/S4.jpg","52","4","Ns4,test","52","true","",""
"null","","html-keyboard-response","524","372539","0.0-524.0","","<img src=""img/nature/S4.jpg"" width=""540"" height = ""360"" style=""border:14px solid orange"">","null","","","","","",""
"null","","html-keyboard-response","525","372753","0.0-525.0","","","null","","","","","",""
"565.9000000953674","","image-keyboard-response","526","373322","0.0-526.0","","img/nature/S3.jpg","51","3","Ns4,test","51","true","",""
"null","","html-keyboard-response","527","373677","0.0-527.0","","<img src=""img/nature/S3.jpg"" width=""540"" height = ""360"" style=""border:14px solid orange"">","null","","","","","",""
"null","","html-keyboard-response","528","373881","0.0-528.0","","","null","","","","","",""
"562.5999999046326","","image-keyboard-response","529","374447","0.0-529.0","","img/nature/S4.jpg","52","4","Ns4,test","52","true","",""
"null","","html-keyboard-response","530","374802","0.0-530.0","","<img src=""img/nature/S4.jpg"" width=""540"" height = ""360"" style=""border:14px solid orange"">","null","","","","","",""
"null","","html-keyboard-response","531","375013","0.0-531.0","","","null","","","","","",""
"454.7000000476837","","image-keyboard-response","532","375471","0.0-532.0","","img/nature/S3.jpg","51","3","Ns4,test","51","true","",""
"null","","html-keyboard-response","533","375840","0.0-533.0","","<img src=""img/nature/S3.jpg"" width=""540"" height = ""360"" style=""border:14px solid orange"">","null","","","","","",""
"null","","html-keyboard-response","534","376048","0.0-534.0","","","null","","","","","",""
"1231.8999998569489","","image-keyboard-response","535","377284","0.0-535.0","","img/nature/S1.jpg","49","1","Ns4,test","49","true","",""
"null","","html-keyboard-response","536","377640","0.0-536.0","","<img src=""img/nature/S1.jpg"" width=""540"" height = ""360"" style=""border:14px solid orange"">","null","","","","","",""
"null","","html-keyboard-response","537","377848","0.0-537.0","","","null","","","","","",""
"750.7000000476837","","image-keyboard-response","538","378603","0.0-538.0","","img/nature/S4.jpg","52","4","Ns4,test","52","true","",""
"null","","html-keyboard-response","539","378967","0.0-539.0","","<img src=""img/nature/S4.jpg"" width=""540"" height = ""360"" style=""border:14px solid orange"">","null","","","","","",""
"null","","html-keyboard-response","540","379183","0.0-540.0","","","null","","","","","",""
"636.9000000953674","","image-keyboard-response","541","379823","0.0-541.0","","img/nature/S1.jpg","49","1","Ns4,test","49","true","",""
"null","","html-keyboard-response","542","380182","0.0-542.0","","<img src=""img/nature/S1.jpg"" width=""540"" height = ""360"" style=""border:14px solid orange"">","null","","","","","",""
"null","","html-keyboard-response","543","380385","0.0-543.0","","","null","","","","","",""
"802.8000001907349","","image-keyboard-response","544","381192","0.0-544.0","","img/nature/S4.jpg","52","4","Ns4,test","52","true","",""
"null","","html-keyboard-response","545","381546","0.0-545.0","","<img src=""img/nature/S4.jpg"" width=""540"" height = ""360"" style=""border:14px solid orange"">","null","","","","","",""
"null","","html-keyboard-response","546","381764","0.0-546.0","","","null","","","","","",""
"594.4000000953674","","image-keyboard-response","547","382361","0.0-547.0","","img/nature/S3.jpg","51","3","Ns4,test","51","true","",""
"null","","html-keyboard-response","548","382719","0.0-548.0","","<img src=""img/nature/S3.jpg"" width=""540"" height = ""360"" style=""border:14px solid orange"">","null","","","","","",""
"null","","html-keyboard-response","549","382935","0.0-549.0","","","null","","","","","",""
"732.2999999523163","","image-keyboard-response","550","383671","0.0-550.0","","img/nature/S4.jpg","52","4","Ns4,test","52","true","",""
"null","","html-keyboard-response","551","384044","0.0-551.0","","<img src=""img/nature/S4.jpg"" width=""540"" height = ""360"" style=""border:14px solid orange"">","null","","","","","",""
"null","","html-keyboard-response","552","384260","0.0-552.0","","","null","","","","","",""
"638.2000000476837","","image-keyboard-response","553","384902","0.0-553.0","","img/nature/S2.jpg","50","2","Ns4,test","50","true","",""
"null","","html-keyboard-response","554","385269","0.0-554.0","","<img src=""img/nature/S2.jpg"" width=""540"" height = ""360"" style=""border:14px solid orange"">","null","","","","","",""
"null","","html-keyboard-response","555","385482","0.0-555.0","","","null","","","","","",""
"893.5","","image-keyboard-response","556","386379","0.0-556.0","","img/nature/S3.jpg","51","3","Ns4,test","51","true","",""
"null","","html-keyboard-response","557","386747","0.0-557.0","","<img src=""img/nature/S3.jpg"" width=""540"" height = ""360"" style=""border:14px solid orange"">","null","","","","","",""
"null","","html-keyboard-response","558","386966","0.0-558.0","","","null","","","","","",""
"623.0999999046326","","image-keyboard-response","559","387592","0.0-559.0","","img/nature/S4.jpg","52","4","Ns4,test","52","true","",""
"null","","html-keyboard-response","560","387955","0.0-560.0","","<img src=""img/nature/S4.jpg"" width=""540"" height = ""360"" style=""border:14px solid orange"">","null","","","","","",""
"null","","html-keyboard-response","561","388174","0.0-561.0","","","null","","","","","",""
"688.2999999523163","","image-keyboard-response","562","388866","0.0-562.0","","img/nature/S1.jpg","49","1","Ns4,test","49","true","",""
"null","","html-keyboard-response","563","389223","0.0-563.0","","<img src=""img/nature/S1.jpg"" width=""540"" height = ""360"" style=""border:14px solid orange"">","null","","","","","",""
"null","","html-keyboard-response","564","389427","0.0-564.0","","","null","","","","","",""
"438.09999990463257","","image-keyboard-response","565","389869","0.0-565.0","","img/nature/S2.jpg","50","2","Ns4,test","50","true","",""
"null","","html-keyboard-response","566","390230","0.0-566.0","","<img src=""img/nature/S2.jpg"" width=""540"" height = ""360"" style=""border:14px solid orange"">","null","","","","","",""
"null","","html-keyboard-response","567","390448","0.0-567.0","","","null","","","","","",""
"1231.2999999523163","","image-keyboard-response","568","391683","0.0-568.0","","img/nature/S2.jpg","50","2","Ns4,test","50","true","",""
"null","","html-keyboard-response","569","392038","0.0-569.0","","<img src=""img/nature/S2.jpg"" width=""540"" height = ""360"" style=""border:14px solid orange"">","null","","","","","",""
"null","","html-keyboard-response","570","392243","0.0-570.0","","","null","","","","","",""
"477.60000014305115","","image-keyboard-response","571","392725","0.0-571.0","","img/nature/S2.jpg","50","2","Ns4,test","50","true","",""
"null","","html-keyboard-response","572","393098","0.0-572.0","","<img src=""img/nature/S2.jpg"" width=""540"" height = ""360"" style=""border:14px solid orange"">","null","","","","","",""
"null","","html-keyboard-response","573","393310","0.0-573.0","","","null","","","","","",""
"673.7999999523163","","image-keyboard-response","574","393988","0.0-574.0","","img/nature/S4.jpg","52","4","Ns4,test","52","true","",""
"null","","html-keyboard-response","575","394355","0.0-575.0","","<img src=""img/nature/S4.jpg"" width=""540"" height = ""360"" style=""border:14px solid orange"">","null","","","","","",""
"null","","html-keyboard-response","576","394558","0.0-576.0","","","null","","","","","",""
"575.8999998569489","","image-keyboard-response","577","395137","0.0-577.0","","img/nature/S2.jpg","51","2","Ns4,test","50","false","",""
"null","","html-keyboard-response","578","395506","0.0-578.0","","<img src=""img/nature/S2.jpg"" width=""540"" height = ""360"">","null","","","","","",""
"null","","html-keyboard-response","579","395723","0.0-579.0","","","null","","","","","",""
"527.2999999523163","","image-keyboard-response","580","396254","0.0-580.0","","img/nature/S2.jpg","50","2","Ns4,test","50","true","",""
"null","","html-keyboard-response","581","396619","0.0-581.0","","<img src=""img/nature/S2.jpg"" width=""540"" height = ""360"" style=""border:14px solid orange"">","null","","","","","",""
"null","","html-keyboard-response","582","396834","0.0-582.0","","","null","","","","","",""
"593.1000001430511","","image-keyboard-response","583","397431","0.0-583.0","","img/nature/S4.jpg","52","4","Ns4,test","52","true","",""
"null","","html-keyboard-response","584","397795","0.0-584.0","","<img src=""img/nature/S4.jpg"" width=""540"" height = ""360"" style=""border:14px solid orange"">","null","","","","","",""
"null","","html-keyboard-response","585","398012","0.0-585.0","","","null","","","","","",""
"455.09999990463257","","image-keyboard-response","586","398471","0.0-586.0","","img/nature/S4.jpg","52","4","Ns4,test","52","true","",""
"null","","html-keyboard-response","587","398825","0.0-587.0","","<img src=""img/nature/S4.jpg"" width=""540"" height = ""360"" style=""border:14px solid orange"">","null","","","","","",""
"null","","html-keyboard-response","588","399035","0.0-588.0","","","null","","","","","",""
"603.2000000476837","","image-keyboard-response","589","399641","0.0-589.0","","img/nature/S3.jpg","51","3","Ns4,test","51","true","",""
"null","","html-keyboard-response","590","400004","0.0-590.0","","<img src=""img/nature/S3.jpg"" width=""540"" height = ""360"" style=""border:14px solid orange"">","null","","","","","",""
"null","","html-keyboard-response","591","400207","0.0-591.0","","","null","","","","","",""
"699.9000000953674","","image-keyboard-response","592","400911","0.0-592.0","","img/nature/S2.jpg","50","2","Ns4,test","50","true","",""
"null","","html-keyboard-response","593","401268","0.0-593.0","","<img src=""img/nature/S2.jpg"" width=""540"" height = ""360"" style=""border:14px solid orange"">","null","","","","","",""
"null","","html-keyboard-response","594","401486","0.0-594.0","","","null","","","","","",""
"561.2000000476837","","image-keyboard-response","595","402051","0.0-595.0","","img/nature/S1.jpg","49","1","Ns4,test","49","true","",""
"null","","html-keyboard-response","596","402416","0.0-596.0","","<img src=""img/nature/S1.jpg"" width=""540"" height = ""360"" style=""border:14px solid orange"">","null","","","","","",""
"null","","html-keyboard-response","597","402633","0.0-597.0","","","null","","","","","",""
"828.8999998569489","","image-keyboard-response","598","403466","0.0-598.0","","img/nature/S3.jpg","51","3","Ns4,test","51","true","",""
"null","","html-keyboard-response","599","403826","0.0-599.0","","<img src=""img/nature/S3.jpg"" width=""540"" height = ""360"" style=""border:14px solid orange"">","null","","","","","",""
"null","","html-keyboard-response","600","404043","0.0-600.0","","","null","","","","","",""
"507.2000000476837","","image-keyboard-response","601","404554","0.0-601.0","","img/nature/S3.jpg","51","3","Ns4,test","51","true","",""
"null","","html-keyboard-response","602","404921","0.0-602.0","","<img src=""img/nature/S3.jpg"" width=""540"" height = ""360"" style=""border:14px solid orange"">","null","","","","","",""
"null","","html-keyboard-response","603","405136","0.0-603.0","","","null","","","","","",""
"12914.400000095367","","instructions","604","418052","0.0-604.0","[{""page_index"":0,""viewing_time"":12913.799999952316}]","","","","","","","",""
"19864.5","","instructions","605","437921","0.0-605.0","[{""page_index"":0,""viewing_time"":19864}]","","","","","","","",""
"294","","image-keyboard-response","606","438221","0.0-606.0-0.0","","img/nature/control/S3.jpg","52","3","Ns4,baseline","51","false","",""
"null","","html-keyboard-response","607","438538","0.0-606.0-1.0","","<img src=""img/nature/control/S3.jpg"" width=""540"" height = ""360"">","null","","","","","",""
"null","","html-keyboard-response","608","438743","0.0-606.0-2.0","","","null","","","","","",""
"47.200000047683716","","image-keyboard-response","609","438793","0.0-606.0-0.1","","img/nature/control/S4.jpg","51","4","Ns4,baseline","52","false","",""
"null","","html-keyboard-response","610","439097","0.0-606.0-1.1","","<img src=""img/nature/control/S4.jpg"" width=""540"" height = ""360"">","null","","","","","",""
"null","","html-keyboard-response","611","439314","0.0-606.0-2.1","","","null","","","","","",""
"497.5","","image-keyboard-response","612","439815","0.0-606.0-0.2","","img/nature/control/S2.jpg","52","2","Ns4,baseline","50","false","",""
"null","","html-keyboard-response","613","440132","0.0-606.0-1.2","","<img src=""img/nature/control/S2.jpg"" width=""540"" height = ""360"">","null","","","","","",""
"null","","html-keyboard-response","614","440348","0.0-606.0-2.2","","","null","","","","","",""
"541.7999999523163","","image-keyboard-response","615","440894","0.0-606.0-0.3","","img/nature/control/S1.jpg","50","1","Ns4,baseline","49","false","",""
"null","","html-keyboard-response","616","441209","0.0-606.0-1.3","","<img src=""img/nature/control/S1.jpg"" width=""540"" height = ""360"">","null","","","","","",""
"null","","html-keyboard-response","617","441427","0.0-606.0-2.3","","","null","","","","","",""
"550.9000000953674","","image-keyboard-response","618","441982","0.0-606.0-0.4","","img/nature/control/S2.jpg","50","2","Ns4,baseline","50","true","",""
"null","","html-keyboard-response","619","442300","0.0-606.0-1.4","","<img src=""img/nature/control/S2.jpg"" width=""540"" height = ""360"" style=""border:14px solid orange"">","null","","","","","",""
"null","","html-keyboard-response","620","442516","0.0-606.0-2.4","","","null","","","","","",""
"1300.6000001430511","","image-keyboard-response","621","443821","0.0-606.0-0.5","","img/nature/control/S4.jpg","49","4","Ns4,baseline","52","false","",""
"null","","html-keyboard-response","622","444135","0.0-606.0-1.5","","<img src=""img/nature/control/S4.jpg"" width=""540"" height = ""360"">","null","","","","","",""
"null","","html-keyboard-response","623","444353","0.0-606.0-2.5","","","null","","","","","",""
"869.5999999046326","","image-keyboard-response","624","445227","0.0-606.0-0.6","","img/nature/control/S3.jpg","50","3","Ns4,baseline","51","false","",""
"null","","html-keyboard-response","625","445537","0.0-606.0-1.6","","<img src=""img/nature/control/S3.jpg"" width=""540"" height = ""360"">","null","","","","","",""
"null","","html-keyboard-response","626","445749","0.0-606.0-2.6","","","null","","","","","",""
"1560","","image-keyboard-response","627","447312","0.0-606.0-0.7","","img/nature/control/S1.jpg","49","1","Ns4,baseline","49","true","",""
"null","","html-keyboard-response","628","447620","0.0-606.0-1.7","","<img src=""img/nature/control/S1.jpg"" width=""540"" height = ""360"" style=""border:14px solid orange"">","null","","","","","",""
"null","","html-keyboard-response","629","447826","0.0-606.0-2.7","","","null","","","","","",""
"1646.7999999523163","","image-keyboard-response","630","449477","0.0-606.0-0.8","","img/nature/control/S4.jpg","50","4","Ns4,baseline","52","false","",""
"null","","html-keyboard-response","631","449794","0.0-606.0-1.8","","<img src=""img/nature/control/S4.jpg"" width=""540"" height = ""360"">","null","","","","","",""
"null","","html-keyboard-response","632","450011","0.0-606.0-2.8","","","null","","","","","",""
"753.2000000476837","","image-keyboard-response","633","450769","0.0-606.0-0.9","","img/nature/control/S2.jpg","50","2","Ns4,baseline","50","true","",""
"null","","html-keyboard-response","634","451084","0.0-606.0-1.9","","<img src=""img/nature/control/S2.jpg"" width=""540"" height = ""360"" style=""border:14px solid orange"">","null","","","","","",""
"null","","html-keyboard-response","635","451301","0.0-606.0-2.9","","","null","","","","","",""
"790.5","","image-keyboard-response","636","452095","0.0-606.0-0.10","","img/nature/control/S3.jpg","49","3","Ns4,baseline","51","false","",""
"null","","html-keyboard-response","637","452399","0.0-606.0-1.10","","<img src=""img/nature/control/S3.jpg"" width=""540"" height = ""360"">","null","","","","","",""
"null","","html-keyboard-response","638","452617","0.0-606.0-2.10","","","null","","","","","",""
"1062.8000001907349","","image-keyboard-response","639","453683","0.0-606.0-0.11","","img/nature/control/S1.jpg","52","1","Ns4,baseline","49","false","",""
"null","","html-keyboard-response","640","453994","0.0-606.0-1.11","","<img src=""img/nature/control/S1.jpg"" width=""540"" height = ""360"">","null","","","","","",""
"null","","html-keyboard-response","641","454212","0.0-606.0-2.11","","","null","","","","","",""
"1170.8000001907349","","image-keyboard-response","642","455387","0.0-606.0-0.12","","img/nature/control/S2.jpg","49","2","Ns4,baseline","50","false","",""
"null","","html-keyboard-response","643","455701","0.0-606.0-1.12","","<img src=""img/nature/control/S2.jpg"" width=""540"" height = ""360"">","null","","","","","",""
"null","","html-keyboard-response","644","455904","0.0-606.0-2.12","","","null","","","","","",""
"978.2000000476837","","image-keyboard-response","645","456886","0.0-606.0-0.13","","img/nature/control/S4.jpg","50","4","Ns4,baseline","52","false","",""
"null","","html-keyboard-response","646","457192","0.0-606.0-1.13","","<img src=""img/nature/control/S4.jpg"" width=""540"" height = ""360"">","null","","","","","",""
"null","","html-keyboard-response","647","457408","0.0-606.0-2.13","","","null","","","","","",""
"1134.7999999523163","","image-keyboard-response","648","458547","0.0-606.0-0.14","","img/nature/control/S1.jpg","51","1","Ns4,baseline","49","false","",""
"null","","html-keyboard-response","649","458856","0.0-606.0-1.14","","<img src=""img/nature/control/S1.jpg"" width=""540"" height = ""360"">","null","","","","","",""
"null","","html-keyboard-response","650","459060","0.0-606.0-2.14","","","null","","","","","",""
"1465.8999998569489","","image-keyboard-response","651","460530","0.0-606.0-0.15","","img/nature/control/S3.jpg","51","3","Ns4,baseline","51","true","",""
"null","","html-keyboard-response","652","460838","0.0-606.0-1.15","","<img src=""img/nature/control/S3.jpg"" width=""540"" height = ""360"" style=""border:14px solid orange"">","null","","","","","",""
"null","","html-keyboard-response","653","461056","0.0-606.0-2.15","","","null","","","","","",""
"1354.3999998569489","","image-keyboard-response","654","462414","0.0-606.0-0.16","","img/nature/control/S4.jpg","52","4","Ns4,baseline","52","true","",""
"null","","html-keyboard-response","655","462727","0.0-606.0-1.16","","<img src=""img/nature/control/S4.jpg"" width=""540"" height = ""360"" style=""border:14px solid orange"">","null","","","","","",""
"null","","html-keyboard-response","656","462939","0.0-606.0-2.16","","","null","","","","","",""
"1272.8999998569489","","image-keyboard-response","657","464216","0.0-606.0-0.17","","img/nature/control/S1.jpg","50","1","Ns4,baseline","49","false","",""
"null","","html-keyboard-response","658","464522","0.0-606.0-1.17","","<img src=""img/nature/control/S1.jpg"" width=""540"" height = ""360"">","null","","","","","",""
"null","","html-keyboard-response","659","464727","0.0-606.0-2.17","","","null","","","","","",""
"1023","","image-keyboard-response","660","465753","0.0-606.0-0.18","","img/nature/control/S2.jpg","49","2","Ns4,baseline","50","false","",""
"null","","html-keyboard-response","661","466064","0.0-606.0-1.18","","<img src=""img/nature/control/S2.jpg"" width=""540"" height = ""360"">","null","","","","","",""
"null","","html-keyboard-response","662","466277","0.0-606.0-2.18","","","null","","","","","",""
"1157.4000000953674","","image-keyboard-response","663","467436","0.0-606.0-0.19","","img/nature/control/S3.jpg","51","3","Ns4,baseline","51","true","",""
"null","","html-keyboard-response","664","467746","0.0-606.0-1.19","","<img src=""img/nature/control/S3.jpg"" width=""540"" height = ""360"" style=""border:14px solid orange"">","null","","","","","",""
"null","","html-keyboard-response","665","467950","0.0-606.0-2.19","","","null","","","","","",""
"736.0999999046326","","image-keyboard-response","666","468689","0.0-606.0-0.20","","img/nature/control/S4.jpg","52","4","Ns4,baseline","52","true","",""
"null","","html-keyboard-response","667","468994","0.0-606.0-1.20","","<img src=""img/nature/control/S4.jpg"" width=""540"" height = ""360"" style=""border:14px solid orange"">","null","","","","","",""
"null","","html-keyboard-response","668","469202","0.0-606.0-2.20","","","null","","","","","",""
"997.2999999523163","","image-keyboard-response","669","470203","0.0-606.0-0.21","","img/nature/control/S1.jpg","50","1","Ns4,baseline","49","false","",""
"null","","html-keyboard-response","670","470522","0.0-606.0-1.21","","<img src=""img/nature/control/S1.jpg"" width=""540"" height = ""360"">","null","","","","","",""
"null","","html-keyboard-response","671","470737","0.0-606.0-2.21","","","null","","","","","",""
"1364.5999999046326","","image-keyboard-response","672","472105","0.0-606.0-0.22","","img/nature/control/S2.jpg","51","2","Ns4,baseline","50","false","",""
"null","","html-keyboard-response","673","472420","0.0-606.0-1.22","","<img src=""img/nature/control/S2.jpg"" width=""540"" height = ""360"">","null","","","","","",""
"null","","html-keyboard-response","674","472637","0.0-606.0-2.22","","","null","","","","","",""
"873","","image-keyboard-response","675","473514","0.0-606.0-0.23","","img/nature/control/S3.jpg","51","3","Ns4,baseline","51","true","",""
"null","","html-keyboard-response","676","473824","0.0-606.0-1.23","","<img src=""img/nature/control/S3.jpg"" width=""540"" height = ""360"" style=""border:14px solid orange"">","null","","","","","",""
"null","","html-keyboard-response","677","474041","0.0-606.0-2.23","","","null","","","","","",""
"824.5","","image-keyboard-response","678","474869","0.0-606.0-0.24","","img/nature/control/S2.jpg","52","2","Ns4,baseline","50","false","",""
"null","","html-keyboard-response","679","475178","0.0-606.0-1.24","","<img src=""img/nature/control/S2.jpg"" width=""540"" height = ""360"">","null","","","","","",""
"null","","html-keyboard-response","680","475395","0.0-606.0-2.24","","","null","","","","","",""
"1937.5999999046326","","image-keyboard-response","681","477336","0.0-606.0-0.25","","img/nature/control/S4.jpg","51","4","Ns4,baseline","52","false","",""
"null","","html-keyboard-response","682","477641","0.0-606.0-1.25","","<img src=""img/nature/control/S4.jpg"" width=""540"" height = ""360"">","null","","","","","",""
"null","","html-keyboard-response","683","477858","0.0-606.0-2.25","","","null","","","","","",""
"677.3999998569489","","image-keyboard-response","684","478539","0.0-606.0-0.26","","img/nature/control/S1.jpg","50","1","Ns4,baseline","49","false","",""
"null","","html-keyboard-response","685","478853","0.0-606.0-1.26","","<img src=""img/nature/control/S1.jpg"" width=""540"" height = ""360"">","null","","","","","",""
"null","","html-keyboard-response","686","479063","0.0-606.0-2.26","","","null","","","","","",""
"793.6000001430511","","image-keyboard-response","687","479860","0.0-606.0-0.27","","img/nature/control/S3.jpg","51","3","Ns4,baseline","51","true","",""
"null","","html-keyboard-response","688","480170","0.0-606.0-1.27","","<img src=""img/nature/control/S3.jpg"" width=""540"" height = ""360"" style=""border:14px solid orange"">","null","","","","","",""
"null","","html-keyboard-response","689","480379","0.0-606.0-2.27","","","null","","","","","",""
"521.1000001430511","","image-keyboard-response","690","480904","0.0-606.0-0.28","","img/nature/control/S3.jpg","51","3","Ns4,baseline","51","true","",""
"null","","html-keyboard-response","691","481221","0.0-606.0-1.28","","<img src=""img/nature/control/S3.jpg"" width=""540"" height = ""360"" style=""border:14px solid orange"">","null","","","","","",""
"null","","html-keyboard-response","692","481439","0.0-606.0-2.28","","","null","","","","","",""
"1168.1999998092651","","image-keyboard-response","693","482610","0.0-606.0-0.29","","img/nature/control/S4.jpg","52","4","Ns4,baseline","52","true","",""
"null","","html-keyboard-response","694","482930","0.0-606.0-1.29","","<img src=""img/nature/control/S4.jpg"" width=""540"" height = ""360"" style=""border:14px solid orange"">","null","","","","","",""
"null","","html-keyboard-response","695","483145","0.0-606.0-2.29","","","null","","","","","",""
"1604.5","","image-keyboard-response","696","484753","0.0-606.0-0.30","","img/nature/control/S2.jpg","52","2","Ns4,baseline","50","false","",""
"null","","html-keyboard-response","697","485071","0.0-606.0-1.30","","<img src=""img/nature/control/S2.jpg"" width=""540"" height = ""360"">","null","","","","","",""
"null","","html-keyboard-response","698","485286","0.0-606.0-2.30","","","null","","","","","",""
"1079.6999998092651","","image-keyboard-response","699","486368","0.0-606.0-0.31","","img/nature/control/S1.jpg","51","1","Ns4,baseline","49","false","",""
"null","","html-keyboard-response","700","486679","0.0-606.0-1.31","","<img src=""img/nature/control/S1.jpg"" width=""540"" height = ""360"">","null","","","","","",""
"null","","html-keyboard-response","701","486883","0.0-606.0-2.31","","","null","","","","","",""
"1171.7000000476837","","image-keyboard-response","702","488058","0.0-606.0-0.32","","img/nature/control/S4.jpg","51","4","Ns4,baseline","52","false","",""
"null","","html-keyboard-response","703","488367","0.0-606.0-1.32","","<img src=""img/nature/control/S4.jpg"" width=""540"" height = ""360"">","null","","","","","",""
"null","","html-keyboard-response","704","488576","0.0-606.0-2.32","","","null","","","","","",""
"945","","image-keyboard-response","705","489525","0.0-606.0-0.33","","img/nature/control/S2.jpg","52","2","Ns4,baseline","50","false","",""
