"rt","url","trial_type","trial_index","time_elapsed","internal_node_id","view_history","stimulus","key_press","state","test_part","correct_response","correct","bonus","responses"
"6174.599999964237","consent.html","external-html","0","6315","0.0-0.0","","","","","","","","",""
"130155.60000002384","","instructions","1","136473","0.0-1.0","[{""page_index"":0,""viewing_time"":11073.899999976158},{""page_index"":1,""viewing_time"":12575.800000011921},{""page_index"":2,""viewing_time"":18863.80000001192},{""page_index"":3,""viewing_time"":18768.30000001192},{""page_index"":4,""viewing_time"":26952},{""page_index"":5,""viewing_time"":13207.599999964237},{""page_index"":6,""viewing_time"":14600.700000047684},{""page_index"":7,""viewing_time"":14111.899999976158}]","","","","","","","",""
"1576.699999988079","","image-keyboard-response","2","138054","0.0-2.0-0.0","","img/nature/control/S3.jpg","49","3","baseline","51","false","",""
"null","","html-keyboard-response","3","138357","0.0-2.0-1.0","","<img src=""img/nature/control/S3.jpg"" width=""540"" height = ""360"">","null","","","","","",""
"null","","html-keyboard-response","4","138559","0.0-2.0-2.0","","","null","","","","","",""
"727.9000000357628","","image-keyboard-response","5","139289","0.0-2.0-0.1","","img/nature/control/S2.jpg","49","2","baseline","50","false","",""
"null","","html-keyboard-response","6","139592","0.0-2.0-1.1","","<img src=""img/nature/control/S2.jpg"" width=""540"" height = ""360"">","null","","","","","",""
"null","","html-keyboard-response","7","139794","0.0-2.0-2.1","","","null","","","","","",""
"589.5","","image-keyboard-response","8","140387","0.0-2.0-0.2","","img/nature/control/S4.jpg","49","4","baseline","52","false","",""
"null","","html-keyboard-response","9","140690","0.0-2.0-1.2","","<img src=""img/nature/control/S4.jpg"" width=""540"" height = ""360"">","null","","","","","",""
"null","","html-keyboard-response","10","140891","0.0-2.0-2.2","","","null","","","","","",""
"625.0999999642372","","image-keyboard-response","11","141518","0.0-2.0-0.3","","img/nature/control/S1.jpg","49","1","baseline","49","true","",""
"null","","html-keyboard-response","12","141820","0.0-2.0-1.3","","<img src=""img/nature/control/S1.jpg"" width=""540"" height = ""360"" style=""border:14px solid orange"">","null","","","","","",""
"null","","html-keyboard-response","13","142022","0.0-2.0-2.3","","","null","","","","","",""
"689","","image-keyboard-response","14","142713","0.0-2.0-0.4","","img/nature/control/S3.jpg","50","3","baseline","51","false","",""
"null","","html-keyboard-response","15","143015","0.0-2.0-1.4","","<img src=""img/nature/control/S3.jpg"" width=""540"" height = ""360"">","null","","","","","",""
"null","","html-keyboard-response","16","143217","0.0-2.0-2.4","","","null","","","","","",""
"817.5999999642372","","image-keyboard-response","17","144036","0.0-2.0-0.5","","img/nature/control/S4.jpg","51","4","baseline","52","false","",""
"null","","html-keyboard-response","18","144338","0.0-2.0-1.5","","<img src=""img/nature/control/S4.jpg"" width=""540"" height = ""360"">","null","","","","","",""
"null","","html-keyboard-response","19","144540","0.0-2.0-2.5","","","null","","","","","",""
"997.8999999761581","","image-keyboard-response","20","145539","0.0-2.0-0.6","","img/nature/control/S2.jpg","49","2","baseline","50","false","",""
"null","","html-keyboard-response","21","145841","0.0-2.0-1.6","","<img src=""img/nature/control/S2.jpg"" width=""540"" height = ""360"">","null","","","","","",""
"null","","html-keyboard-response","22","146043","0.0-2.0-2.6","","","null","","","","","",""
"643.7999999523163","","image-keyboard-response","23","146688","0.0-2.0-0.7","","img/nature/control/S1.jpg","49","1","baseline","49","true","",""
"null","","html-keyboard-response","24","146990","0.0-2.0-1.7","","<img src=""img/nature/control/S1.jpg"" width=""540"" height = ""360"" style=""border:14px solid orange"">","null","","","","","",""
"null","","html-keyboard-response","25","147192","0.0-2.0-2.7","","","null","","","","","",""
"1079.0999999642372","","image-keyboard-response","26","148272","0.0-2.0-0.8","","img/nature/control/S2.jpg","51","2","baseline","50","false","",""
"null","","html-keyboard-response","27","148574","0.0-2.0-1.8","","<img src=""img/nature/control/S2.jpg"" width=""540"" height = ""360"">","null","","","","","",""
"null","","html-keyboard-response","28","148776","0.0-2.0-2.8","","","null","","","","","",""
"2016.300000011921","","image-keyboard-response","29","150794","0.0-2.0-0.9","","img/nature/control/S1.jpg","49","1","baseline","49","true","",""
"null","","html-keyboard-response","30","151096","0.0-2.0-1.9","","<img src=""img/nature/control/S1.jpg"" width=""540"" height = ""360"" style=""border:14px solid orange"">","null","","","","","",""
"null","","html-keyboard-response","31","151298","0.0-2.0-2.9","","","null","","","","","",""
"673.6999999880791","","image-keyboard-response","32","151973","0.0-2.0-0.10","","img/nature/control/S4.jpg","52","4","baseline","52","true","",""
"null","","html-keyboard-response","33","152276","0.0-2.0-1.10","","<img src=""img/nature/control/S4.jpg"" width=""540"" height = ""360"" style=""border:14px solid orange"">","null","","","","","",""
"null","","html-keyboard-response","34","152479","0.0-2.0-2.10","","","null","","","","","",""
"887.3000000119209","","image-keyboard-response","35","153368","0.0-2.0-0.11","","img/nature/control/S3.jpg","51","3","baseline","51","true","",""
"null","","html-keyboard-response","36","153671","0.0-2.0-1.11","","<img src=""img/nature/control/S3.jpg"" width=""540"" height = ""360"" style=""border:14px solid orange"">","null","","","","","",""
"null","","html-keyboard-response","37","153873","0.0-2.0-2.11","","","null","","","","","",""
"1268.699999988079","","image-keyboard-response","38","155144","0.0-2.0-0.12","","img/nature/control/S1.jpg","50","1","baseline","49","false","",""
"null","","html-keyboard-response","39","155445","0.0-2.0-1.12","","<img src=""img/nature/control/S1.jpg"" width=""540"" height = ""360"">","null","","","","","",""
"null","","html-keyboard-response","40","155647","0.0-2.0-2.12","","","null","","","","","",""
"991.4000000357628","","image-keyboard-response","41","156640","0.0-2.0-0.13","","img/nature/control/S2.jpg","51","2","baseline","50","false","",""
"null","","html-keyboard-response","42","156942","0.0-2.0-1.13","","<img src=""img/nature/control/S2.jpg"" width=""540"" height = ""360"">","null","","","","","",""
"null","","html-keyboard-response","43","157144","0.0-2.0-2.13","","","null","","","","","",""
"597.3999999761581","","image-keyboard-response","44","157743","0.0-2.0-0.14","","img/nature/control/S4.jpg","51","4","baseline","52","false","",""
"null","","html-keyboard-response","45","158045","0.0-2.0-1.14","","<img src=""img/nature/control/S4.jpg"" width=""540"" height = ""360"">","null","","","","","",""
"null","","html-keyboard-response","46","158246","0.0-2.0-2.14","","","null","","","","","",""
"974.0999999642372","","image-keyboard-response","47","159222","0.0-2.0-0.15","","img/nature/control/S3.jpg","51","3","baseline","51","true","",""
"null","","html-keyboard-response","48","159524","0.0-2.0-1.15","","<img src=""img/nature/control/S3.jpg"" width=""540"" height = ""360"" style=""border:14px solid orange"">","null","","","","","",""
"null","","html-keyboard-response","49","159725","0.0-2.0-2.15","","","null","","","","","",""
"603.6999999880791","","image-keyboard-response","50","160331","0.0-2.0-0.16","","img/nature/control/S3.jpg","51","3","baseline","51","true","",""
"null","","html-keyboard-response","51","160633","0.0-2.0-1.16","","<img src=""img/nature/control/S3.jpg"" width=""540"" height = ""360"" style=""border:14px solid orange"">","null","","","","","",""
"null","","html-keyboard-response","52","160834","0.0-2.0-2.16","","","null","","","","","",""
"1002.8000000119209","","image-keyboard-response","53","161839","0.0-2.0-0.17","","img/nature/control/S2.jpg","52","2","baseline","50","false","",""
"null","","html-keyboard-response","54","162141","0.0-2.0-1.17","","<img src=""img/nature/control/S2.jpg"" width=""540"" height = ""360"">","null","","","","","",""
"null","","html-keyboard-response","55","162343","0.0-2.0-2.17","","","null","","","","","",""
"1109.699999988079","","image-keyboard-response","56","163454","0.0-2.0-0.18","","img/nature/control/S1.jpg","49","1","baseline","49","true","",""
"null","","html-keyboard-response","57","163756","0.0-2.0-1.18","","<img src=""img/nature/control/S1.jpg"" width=""540"" height = ""360"" style=""border:14px solid orange"">","null","","","","","",""
"null","","html-keyboard-response","58","163958","0.0-2.0-2.18","","","null","","","","","",""
"796.3000000119209","","image-keyboard-response","59","164756","0.0-2.0-0.19","","img/nature/control/S4.jpg","51","4","baseline","52","false","",""
"null","","html-keyboard-response","60","165058","0.0-2.0-1.19","","<img src=""img/nature/control/S4.jpg"" width=""540"" height = ""360"">","null","","","","","",""
"null","","html-keyboard-response","61","165260","0.0-2.0-2.19","","","null","","","","","",""
"524.8000000119209","","image-keyboard-response","62","165786","0.0-2.0-0.20","","img/nature/control/S3.jpg","51","3","baseline","51","true","",""
"null","","html-keyboard-response","63","166089","0.0-2.0-1.20","","<img src=""img/nature/control/S3.jpg"" width=""540"" height = ""360"" style=""border:14px solid orange"">","null","","","","","",""
"null","","html-keyboard-response","64","166290","0.0-2.0-2.20","","","null","","","","","",""
"1430.300000011921","","image-keyboard-response","65","167722","0.0-2.0-0.21","","img/nature/control/S1.jpg","50","1","baseline","49","false","",""
"null","","html-keyboard-response","66","168024","0.0-2.0-1.21","","<img src=""img/nature/control/S1.jpg"" width=""540"" height = ""360"">","null","","","","","",""
"null","","html-keyboard-response","67","168226","0.0-2.0-2.21","","","null","","","","","",""
"1016.5","","image-keyboard-response","68","169244","0.0-2.0-0.22","","img/nature/control/S2.jpg","49","2","baseline","50","false","",""
"null","","html-keyboard-response","69","169546","0.0-2.0-1.22","","<img src=""img/nature/control/S2.jpg"" width=""540"" height = ""360"">","null","","","","","",""
"null","","html-keyboard-response","70","169750","0.0-2.0-2.22","","","null","","","","","",""
"798.6000000238419","","image-keyboard-response","71","170550","0.0-2.0-0.23","","img/nature/control/S4.jpg","51","4","baseline","52","false","",""
"null","","html-keyboard-response","72","170853","0.0-2.0-1.23","","<img src=""img/nature/control/S4.jpg"" width=""540"" height = ""360"">","null","","","","","",""
"null","","html-keyboard-response","73","171054","0.0-2.0-2.23","","","null","","","","","",""
"845.8000000119209","","image-keyboard-response","74","171901","0.0-2.0-0.24","","img/nature/control/S3.jpg","51","3","baseline","51","true","",""
"null","","html-keyboard-response","75","172203","0.0-2.0-1.24","","<img src=""img/nature/control/S3.jpg"" width=""540"" height = ""360"" style=""border:14px solid orange"">","null","","","","","",""
"null","","html-keyboard-response","76","172405","0.0-2.0-2.24","","","null","","","","","",""
"684","","image-keyboard-response","77","173090","0.0-2.0-0.25","","img/nature/control/S1.jpg","52","1","baseline","49","false","",""
"null","","html-keyboard-response","78","173393","0.0-2.0-1.25","","<img src=""img/nature/control/S1.jpg"" width=""540"" height = ""360"">","null","","","","","",""
"null","","html-keyboard-response","79","173594","0.0-2.0-2.25","","","null","","","","","",""
"1010.5","","image-keyboard-response","80","174606","0.0-2.0-0.26","","img/nature/control/S2.jpg","49","2","baseline","50","false","",""
"null","","html-keyboard-response","81","174908","0.0-2.0-1.26","","<img src=""img/nature/control/S2.jpg"" width=""540"" height = ""360"">","null","","","","","",""
"null","","html-keyboard-response","82","175110","0.0-2.0-2.26","","","null","","","","","",""
"656.3999999761581","","image-keyboard-response","83","175768","0.0-2.0-0.27","","img/nature/control/S4.jpg","51","4","baseline","52","false","",""
"null","","html-keyboard-response","84","176070","0.0-2.0-1.27","","<img src=""img/nature/control/S4.jpg"" width=""540"" height = ""360"">","null","","","","","",""
"null","","html-keyboard-response","85","176271","0.0-2.0-2.27","","","null","","","","","",""
"1182","","image-keyboard-response","86","177455","0.0-2.0-0.28","","img/nature/control/S1.jpg","50","1","baseline","49","false","",""
"null","","html-keyboard-response","87","177757","0.0-2.0-1.28","","<img src=""img/nature/control/S1.jpg"" width=""540"" height = ""360"">","null","","","","","",""
"null","","html-keyboard-response","88","177958","0.0-2.0-2.28","","","null","","","","","",""
"1372.7999999523163","","image-keyboard-response","89","179333","0.0-2.0-0.29","","img/nature/control/S4.jpg","52","4","baseline","52","true","",""
"null","","html-keyboard-response","90","179635","0.0-2.0-1.29","","<img src=""img/nature/control/S4.jpg"" width=""540"" height = ""360"" style=""border:14px solid orange"">","null","","","","","",""
"null","","html-keyboard-response","91","179837","0.0-2.0-2.29","","","null","","","","","",""
"1054.5","","image-keyboard-response","92","180893","0.0-2.0-0.30","","img/nature/control/S2.jpg","51","2","baseline","50","false","",""
"null","","html-keyboard-response","93","181195","0.0-2.0-1.30","","<img src=""img/nature/control/S2.jpg"" width=""540"" height = ""360"">","null","","","","","",""
"null","","html-keyboard-response","94","181396","0.0-2.0-2.30","","","null","","","","","",""
"871.8000000119209","","image-keyboard-response","95","182270","0.0-2.0-0.31","","img/nature/control/S3.jpg","51","3","baseline","51","true","",""
"null","","html-keyboard-response","96","182572","0.0-2.0-1.31","","<img src=""img/nature/control/S3.jpg"" width=""540"" height = ""360"" style=""border:14px solid orange"">","null","","","","","",""
"null","","html-keyboard-response","97","182773","0.0-2.0-2.31","","","null","","","","","",""
"462.2000000476837","","image-keyboard-response","98","183237","0.0-2.0-0.32","","img/nature/control/S2.jpg","50","2","baseline","50","true","",""
"null","","html-keyboard-response","99","183539","0.0-2.0-1.32","","<img src=""img/nature/control/S2.jpg"" width=""540"" height = ""360"" style=""border:14px solid orange"">","null","","","","","",""
"null","","html-keyboard-response","100","183741","0.0-2.0-2.32","","","null","","","","","",""
"590.4000000357628","","image-keyboard-response","101","184333","0.0-2.0-0.33","","img/nature/control/S3.jpg","51","3","baseline","51","true","",""
"null","","html-keyboard-response","102","184635","0.0-2.0-1.33","","<img src=""img/nature/control/S3.jpg"" width=""540"" height = ""360"" style=""border:14px solid orange"">","null","","","","","",""
"null","","html-keyboard-response","103","184837","0.0-2.0-2.33","","","null","","","","","",""
"1011.8000000119209","","image-keyboard-response","104","185850","0.0-2.0-0.34","","img/nature/control/S1.jpg","49","1","baseline","49","true","",""
"null","","html-keyboard-response","105","186153","0.0-2.0-1.34","","<img src=""img/nature/control/S1.jpg"" width=""540"" height = ""360"" style=""border:14px solid orange"">","null","","","","","",""
"null","","html-keyboard-response","106","186354","0.0-2.0-2.34","","","null","","","","","",""
"1762.5","","image-keyboard-response","107","188118","0.0-2.0-0.35","","img/nature/control/S4.jpg","51","4","baseline","52","false","",""
"null","","html-keyboard-response","108","188420","0.0-2.0-1.35","","<img src=""img/nature/control/S4.jpg"" width=""540"" height = ""360"">","null","","","","","",""
"null","","html-keyboard-response","109","188621","0.0-2.0-2.35","","","null","","","","","",""
"538.8999999761581","","image-keyboard-response","110","189162","0.0-2.0-0.36","","img/nature/control/S4.jpg","52","4","baseline","52","true","",""
"null","","html-keyboard-response","111","189464","0.0-2.0-1.36","","<img src=""img/nature/control/S4.jpg"" width=""540"" height = ""360"" style=""border:14px solid orange"">","null","","","","","",""
"null","","html-keyboard-response","112","189666","0.0-2.0-2.36","","","null","","","","","",""
"1181.699999988079","","image-keyboard-response","113","190849","0.0-2.0-0.37","","img/nature/control/S1.jpg","50","1","baseline","49","false","",""
"null","","html-keyboard-response","114","191152","0.0-2.0-1.37","","<img src=""img/nature/control/S1.jpg"" width=""540"" height = ""360"">","null","","","","","",""
"null","","html-keyboard-response","115","191353","0.0-2.0-2.37","","","null","","","","","",""
"624.9000000357628","","image-keyboard-response","116","191979","0.0-2.0-0.38","","img/nature/control/S3.jpg","51","3","baseline","51","true","",""
"null","","html-keyboard-response","117","192281","0.0-2.0-1.38","","<img src=""img/nature/control/S3.jpg"" width=""540"" height = ""360"" style=""border:14px solid orange"">","null","","","","","",""
"null","","html-keyboard-response","118","192483","0.0-2.0-2.38","","","null","","","","","",""
"689.2999999523163","","image-keyboard-response","119","193174","0.0-2.0-0.39","","img/nature/control/S2.jpg","50","2","baseline","50","true","",""
"null","","html-keyboard-response","120","193476","0.0-2.0-1.39","","<img src=""img/nature/control/S2.jpg"" width=""540"" height = ""360"" style=""border:14px solid orange"">","null","","","","","",""
"null","","html-keyboard-response","121","193677","0.0-2.0-2.39","","","null","","","","","",""
"445.19999998807907","","image-keyboard-response","122","194124","0.0-2.0-0.40","","img/nature/control/S1.jpg","49","1","baseline","49","true","",""
"null","","html-keyboard-response","123","194427","0.0-2.0-1.40","","<img src=""img/nature/control/S1.jpg"" width=""540"" height = ""360"" style=""border:14px solid orange"">","null","","","","","",""
"null","","html-keyboard-response","124","194629","0.0-2.0-2.40","","","null","","","","","",""
"1631.800000011921","","image-keyboard-response","125","196262","0.0-2.0-0.41","","img/nature/control/S2.jpg","50","2","baseline","50","true","",""
"null","","html-keyboard-response","126","196564","0.0-2.0-1.41","","<img src=""img/nature/control/S2.jpg"" width=""540"" height = ""360"" style=""border:14px solid orange"">","null","","","","","",""
"null","","html-keyboard-response","127","196765","0.0-2.0-2.41","","","null","","","","","",""
"865.1999999880791","","image-keyboard-response","128","197631","0.0-2.0-0.42","","img/nature/control/S3.jpg","51","3","baseline","51","true","",""
"null","","html-keyboard-response","129","197933","0.0-2.0-1.42","","<img src=""img/nature/control/S3.jpg"" width=""540"" height = ""360"" style=""border:14px solid orange"">","null","","","","","",""
"null","","html-keyboard-response","130","198135","0.0-2.0-2.42","","","null","","","","","",""
"757.1000000238419","","image-keyboard-response","131","198893","0.0-2.0-0.43","","img/nature/control/S4.jpg","52","4","baseline","52","true","",""
"null","","html-keyboard-response","132","199196","0.0-2.0-1.43","","<img src=""img/nature/control/S4.jpg"" width=""540"" height = ""360"" style=""border:14px solid orange"">","null","","","","","",""
"null","","html-keyboard-response","133","199397","0.0-2.0-2.43","","","null","","","","","",""
"555.8999999761581","","image-keyboard-response","134","199955","0.0-2.0-0.44","","img/nature/control/S3.jpg","51","3","baseline","51","true","",""
"null","","html-keyboard-response","135","200256","0.0-2.0-1.44","","<img src=""img/nature/control/S3.jpg"" width=""540"" height = ""360"" style=""border:14px solid orange"">","null","","","","","",""
"null","","html-keyboard-response","136","200458","0.0-2.0-2.44","","","null","","","","","",""
"731.6999999880791","","image-keyboard-response","137","201191","0.0-2.0-0.45","","img/nature/control/S4.jpg","51","4","baseline","52","false","",""
"null","","html-keyboard-response","138","201493","0.0-2.0-1.45","","<img src=""img/nature/control/S4.jpg"" width=""540"" height = ""360"">","null","","","","","",""
"null","","html-keyboard-response","139","201695","0.0-2.0-2.45","","","null","","","","","",""
"2343.7000000476837","","image-keyboard-response","140","204040","0.0-2.0-0.46","","img/nature/control/S1.jpg","49","1","baseline","49","true","",""
"null","","html-keyboard-response","141","204342","0.0-2.0-1.46","","<img src=""img/nature/control/S1.jpg"" width=""540"" height = ""360"" style=""border:14px solid orange"">","null","","","","","",""
"null","","html-keyboard-response","142","204544","0.0-2.0-2.46","","","null","","","","","",""
"716","","image-keyboard-response","143","205262","0.0-2.0-0.47","","img/nature/control/S2.jpg","50","2","baseline","50","true","",""
"null","","html-keyboard-response","144","205564","0.0-2.0-1.47","","<img src=""img/nature/control/S2.jpg"" width=""540"" height = ""360"" style=""border:14px solid orange"">","null","","","","","",""
"null","","html-keyboard-response","145","205765","0.0-2.0-2.47","","","null","","","","","",""
"535.5999999642372","","image-keyboard-response","146","206302","0.0-2.0-0.48","","img/nature/control/S2.jpg","50","2","baseline","50","true","",""
"null","","html-keyboard-response","147","206605","0.0-2.0-1.48","","<img src=""img/nature/control/S2.jpg"" width=""540"" height = ""360"" style=""border:14px solid orange"">","null","","","","","",""
"null","","html-keyboard-response","148","206806","0.0-2.0-2.48","","","null","","","","","",""
"780.8000000119209","","image-keyboard-response","149","207588","0.0-2.0-0.49","","img/nature/control/S1.jpg","49","1","baseline","49","true","",""
"null","","html-keyboard-response","150","207891","0.0-2.0-1.49","","<img src=""img/nature/control/S1.jpg"" width=""540"" height = ""360"" style=""border:14px solid orange"">","null","","","","","",""
"null","","html-keyboard-response","151","208092","0.0-2.0-2.49","","","null","","","","","",""
"484.60000002384186","","image-keyboard-response","152","208579","0.0-2.0-0.50","","img/nature/control/S3.jpg","51","3","baseline","51","true","",""
"null","","html-keyboard-response","153","208883","0.0-2.0-1.50","","<img src=""img/nature/control/S3.jpg"" width=""540"" height = ""360"" style=""border:14px solid orange"">","null","","","","","",""
"null","","html-keyboard-response","154","209085","0.0-2.0-2.50","","","null","","","","","",""
"350.5","","image-keyboard-response","155","209437","0.0-2.0-0.51","","img/nature/control/S4.jpg","52","4","baseline","52","true","",""
"null","","html-keyboard-response","156","209739","0.0-2.0-1.51","","<img src=""img/nature/control/S4.jpg"" width=""540"" height = ""360"" style=""border:14px solid orange"">","null","","","","","",""
"null","","html-keyboard-response","157","209940","0.0-2.0-2.51","","","null","","","","","",""
"497.89999997615814","","image-keyboard-response","158","210440","0.0-2.0-0.52","","img/nature/control/S4.jpg","52","4","baseline","52","true","",""
"null","","html-keyboard-response","159","210742","0.0-2.0-1.52","","<img src=""img/nature/control/S4.jpg"" width=""540"" height = ""360"" style=""border:14px solid orange"">","null","","","","","",""
"null","","html-keyboard-response","160","210944","0.0-2.0-2.52","","","null","","","","","",""
"647.1999999880791","","image-keyboard-response","161","211593","0.0-2.0-0.53","","img/nature/control/S1.jpg","49","1","baseline","49","true","",""
"null","","html-keyboard-response","162","211895","0.0-2.0-1.53","","<img src=""img/nature/control/S1.jpg"" width=""540"" height = ""360"" style=""border:14px solid orange"">","null","","","","","",""
"null","","html-keyboard-response","163","212097","0.0-2.0-2.53","","","null","","","","","",""
"281.39999997615814","","image-keyboard-response","164","212380","0.0-2.0-0.54","","img/nature/control/S2.jpg","50","2","baseline","50","true","",""
"null","","html-keyboard-response","165","212683","0.0-2.0-1.54","","<img src=""img/nature/control/S2.jpg"" width=""540"" height = ""360"" style=""border:14px solid orange"">","null","","","","","",""
"null","","html-keyboard-response","166","212884","0.0-2.0-2.54","","","null","","","","","",""
"484.89999997615814","","image-keyboard-response","167","213370","0.0-2.0-0.55","","img/nature/control/S3.jpg","51","3","baseline","51","true","",""
"null","","html-keyboard-response","168","213672","0.0-2.0-1.55","","<img src=""img/nature/control/S3.jpg"" width=""540"" height = ""360"" style=""border:14px solid orange"">","null","","","","","",""
"null","","html-keyboard-response","169","213874","0.0-2.0-2.55","","","null","","","","","",""
"475.69999998807907","","image-keyboard-response","170","214352","0.0-2.0-0.56","","img/nature/control/S1.jpg","52","1","baseline","49","false","",""
"null","","html-keyboard-response","171","214654","0.0-2.0-1.56","","<img src=""img/nature/control/S1.jpg"" width=""540"" height = ""360"">","null","","","","","",""
"null","","html-keyboard-response","172","214856","0.0-2.0-2.56","","","null","","","","","",""
"535.4000000357628","","image-keyboard-response","173","215393","0.0-2.0-0.57","","img/nature/control/S4.jpg","52","4","baseline","52","true","",""
"null","","html-keyboard-response","174","215696","0.0-2.0-1.57","","<img src=""img/nature/control/S4.jpg"" width=""540"" height = ""360"" style=""border:14px solid orange"">","null","","","","","",""
"null","","html-keyboard-response","175","215897","0.0-2.0-2.57","","","null","","","","","",""
"484.5","","image-keyboard-response","176","216384","0.0-2.0-0.58","","img/nature/control/S2.jpg","50","2","baseline","50","true","",""
"null","","html-keyboard-response","177","216686","0.0-2.0-1.58","","<img src=""img/nature/control/S2.jpg"" width=""540"" height = ""360"" style=""border:14px solid orange"">","null","","","","","",""
"null","","html-keyboard-response","178","216887","0.0-2.0-2.58","","","null","","","","","",""
"462.80000001192093","","image-keyboard-response","179","217351","0.0-2.0-0.59","","img/nature/control/S3.jpg","51","3","baseline","51","true","",""
"null","","html-keyboard-response","180","217654","0.0-2.0-1.59","","<img src=""img/nature/control/S3.jpg"" width=""540"" height = ""360"" style=""border:14px solid orange"">","null","","","","","",""
"null","","html-keyboard-response","181","217855","0.0-2.0-2.59","","","null","","","","","",""
"709.2999999523163","","image-keyboard-response","182","218565","0.0-2.0-0.60","","img/nature/control/S1.jpg","49","1","baseline","49","true","",""
"null","","html-keyboard-response","183","218867","0.0-2.0-1.60","","<img src=""img/nature/control/S1.jpg"" width=""540"" height = ""360"" style=""border:14px solid orange"">","null","","","","","",""
"null","","html-keyboard-response","184","219069","0.0-2.0-2.60","","","null","","","","","",""
"579.5","","image-keyboard-response","185","219650","0.0-2.0-0.61","","img/nature/control/S2.jpg","50","2","baseline","50","true","",""
"null","","html-keyboard-response","186","219952","0.0-2.0-1.61","","<img src=""img/nature/control/S2.jpg"" width=""540"" height = ""360"" style=""border:14px solid orange"">","null","","","","","",""
"null","","html-keyboard-response","187","220153","0.0-2.0-2.61","","","null","","","","","",""
"585.3000000119209","","image-keyboard-response","188","220740","0.0-2.0-0.62","","img/nature/control/S3.jpg","51","3","baseline","51","true","",""
"null","","html-keyboard-response","189","221042","0.0-2.0-1.62","","<img src=""img/nature/control/S3.jpg"" width=""540"" height = ""360"" style=""border:14px solid orange"">","null","","","","","",""
"null","","html-keyboard-response","190","221244","0.0-2.0-2.62","","","null","","","","","",""
"488.9000000357628","","image-keyboard-response","191","221734","0.0-2.0-0.63","","img/nature/control/S4.jpg","52","4","baseline","52","true","",""
"null","","html-keyboard-response","192","222036","0.0-2.0-1.63","","<img src=""img/nature/control/S4.jpg"" width=""540"" height = ""360"" style=""border:14px solid orange"">","null","","","","","",""
"null","","html-keyboard-response","193","222238","0.0-2.0-2.63","","","null","","","","","",""
"597.2999999523163","","image-keyboard-response","194","222837","0.0-2.0-0.64","","img/nature/control/S3.jpg","51","3","baseline","51","true","",""
"null","","html-keyboard-response","195","223139","0.0-2.0-1.64","","<img src=""img/nature/control/S3.jpg"" width=""540"" height = ""360"" style=""border:14px solid orange"">","null","","","","","",""
"null","","html-keyboard-response","196","223340","0.0-2.0-2.64","","","null","","","","","",""
"607.1999999880791","","image-keyboard-response","197","223949","0.0-2.0-0.65","","img/nature/control/S4.jpg","52","4","baseline","52","true","",""
"null","","html-keyboard-response","198","224251","0.0-2.0-1.65","","<img src=""img/nature/control/S4.jpg"" width=""540"" height = ""360"" style=""border:14px solid orange"">","null","","","","","",""
"null","","html-keyboard-response","199","224452","0.0-2.0-2.65","","","null","","","","","",""
"690.5","","image-keyboard-response","200","225144","0.0-2.0-0.66","","img/nature/control/S1.jpg","49","1","baseline","49","true","",""
"null","","html-keyboard-response","201","225446","0.0-2.0-1.66","","<img src=""img/nature/control/S1.jpg"" width=""540"" height = ""360"" style=""border:14px solid orange"">","null","","","","","",""
"null","","html-keyboard-response","202","225649","0.0-2.0-2.66","","","null","","","","","",""
"360.80000001192093","","image-keyboard-response","203","226012","0.0-2.0-0.67","","img/nature/control/S2.jpg","50","2","baseline","50","true","",""
"null","","html-keyboard-response","204","226314","0.0-2.0-1.67","","<img src=""img/nature/control/S2.jpg"" width=""540"" height = ""360"" style=""border:14px solid orange"">","null","","","","","",""
"null","","html-keyboard-response","205","226515","0.0-2.0-2.67","","","null","","","","","",""
"433.10000002384186","","image-keyboard-response","206","226950","0.0-2.0-0.68","","img/nature/control/S4.jpg","52","4","baseline","52","true","",""
"null","","html-keyboard-response","207","227252","0.0-2.0-1.68","","<img src=""img/nature/control/S4.jpg"" width=""540"" height = ""360"" style=""border:14px solid orange"">","null","","","","","",""
"null","","html-keyboard-response","208","227453","0.0-2.0-2.68","","","null","","","","","",""
"350.2999999523163","","image-keyboard-response","209","227805","0.0-2.0-0.69","","img/nature/control/S3.jpg","51","3","baseline","51","true","",""
"null","","html-keyboard-response","210","228107","0.0-2.0-1.69","","<img src=""img/nature/control/S3.jpg"" width=""540"" height = ""360"" style=""border:14px solid orange"">","null","","","","","",""
"null","","html-keyboard-response","211","228308","0.0-2.0-2.69","","","null","","","","","",""
"1371.5","","image-keyboard-response","212","229682","0.0-2.0-0.70","","img/nature/control/S1.jpg","49","1","baseline","49","true","",""
"null","","html-keyboard-response","213","229984","0.0-2.0-1.70","","<img src=""img/nature/control/S1.jpg"" width=""540"" height = ""360"" style=""border:14px solid orange"">","null","","","","","",""
"null","","html-keyboard-response","214","230186","0.0-2.0-2.70","","","null","","","","","",""
"290.0999999642372","","image-keyboard-response","215","230478","0.0-2.0-0.71","","img/nature/control/S2.jpg","50","2","baseline","50","true","",""
"null","","html-keyboard-response","216","230780","0.0-2.0-1.71","","<img src=""img/nature/control/S2.jpg"" width=""540"" height = ""360"" style=""border:14px solid orange"">","null","","","","","",""
"null","","html-keyboard-response","217","230981","0.0-2.0-2.71","","","null","","","","","",""
"500.10000002384186","","image-keyboard-response","218","231483","0.0-2.0-0.72","","img/nature/control/S4.jpg","51","4","baseline","52","false","",""
"null","","html-keyboard-response","219","231785","0.0-2.0-1.72","","<img src=""img/nature/control/S4.jpg"" width=""540"" height = ""360"">","null","","","","","",""
"null","","html-keyboard-response","220","231986","0.0-2.0-2.72","","","null","","","","","",""
"565.1000000238419","","image-keyboard-response","221","232553","0.0-2.0-0.73","","img/nature/control/S2.jpg","50","2","baseline","50","true","",""
"null","","html-keyboard-response","222","232855","0.0-2.0-1.73","","<img src=""img/nature/control/S2.jpg"" width=""540"" height = ""360"" style=""border:14px solid orange"">","null","","","","","",""
"null","","html-keyboard-response","223","233056","0.0-2.0-2.73","","","null","","","","","",""
"643.8999999761581","","image-keyboard-response","224","233701","0.0-2.0-0.74","","img/nature/control/S1.jpg","49","1","baseline","49","true","",""
"null","","html-keyboard-response","225","234004","0.0-2.0-1.74","","<img src=""img/nature/control/S1.jpg"" width=""540"" height = ""360"" style=""border:14px solid orange"">","null","","","","","",""
"null","","html-keyboard-response","226","234206","0.0-2.0-2.74","","","null","","","","","",""
"589.8999999761581","","image-keyboard-response","227","234797","0.0-2.0-0.75","","img/nature/control/S3.jpg","51","3","baseline","51","true","",""
"null","","html-keyboard-response","228","235100","0.0-2.0-1.75","","<img src=""img/nature/control/S3.jpg"" width=""540"" height = ""360"" style=""border:14px solid orange"">","null","","","","","",""
"null","","html-keyboard-response","229","235301","0.0-2.0-2.75","","","null","","","","","",""
"454.5999999642372","","image-keyboard-response","230","235757","0.0-2.0-0.76","","img/nature/control/S4.jpg","52","4","baseline","52","true","",""
"null","","html-keyboard-response","231","236059","0.0-2.0-1.76","","<img src=""img/nature/control/S4.jpg"" width=""540"" height = ""360"" style=""border:14px solid orange"">","null","","","","","",""
"null","","html-keyboard-response","232","236261","0.0-2.0-2.76","","","null","","","","","",""
"581.6000000238419","","image-keyboard-response","233","236844","0.0-2.0-0.77","","img/nature/control/S2.jpg","49","2","baseline","50","false","",""
"null","","html-keyboard-response","234","237146","0.0-2.0-1.77","","<img src=""img/nature/control/S2.jpg"" width=""540"" height = ""360"">","null","","","","","",""
"null","","html-keyboard-response","235","237347","0.0-2.0-2.77","","","null","","","","","",""
"581.8000000119209","","image-keyboard-response","236","237931","0.0-2.0-0.78","","img/nature/control/S1.jpg","49","1","baseline","49","true","",""
"null","","html-keyboard-response","237","238232","0.0-2.0-1.78","","<img src=""img/nature/control/S1.jpg"" width=""540"" height = ""360"" style=""border:14px solid orange"">","null","","","","","",""
"null","","html-keyboard-response","238","238434","0.0-2.0-2.78","","","null","","","","","",""
"445.19999998807907","","image-keyboard-response","239","238881","0.0-2.0-0.79","","img/nature/control/S3.jpg","51","3","baseline","51","true","",""
"null","","html-keyboard-response","240","239183","0.0-2.0-1.79","","<img src=""img/nature/control/S3.jpg"" width=""540"" height = ""360"" style=""border:14px solid orange"">","null","","","","","",""
"null","","html-keyboard-response","241","239385","0.0-2.0-2.79","","","null","","","","","",""
"3141.7999999523163","","instructions","242","242527","0.0-3.0","[{""page_index"":0,""viewing_time"":3141.2999999523163}]","","","","","","","",""
"3359.099999964237","","instructions","243","245888","0.0-4.0","[{""page_index"":0,""viewing_time"":3358.5}]","","","","","","","",""
"824.9000000357628","","image-keyboard-response","244","246715","0.0-5.0","","img/nature/S4.jpg","49","4","Ns4,train","52","false","",""
"null","","html-keyboard-response","245","247067","0.0-6.0","","<img src=""img/nature/S4.jpg"" width=""540"" height = ""360"">","null","","","","","",""
"null","","html-keyboard-response","246","247269","0.0-7.0","","","null","","","","","",""
"690.6000000238419","","image-keyboard-response","247","247961","0.0-8.0","","img/nature/S3.jpg","49","3","Ns4,train","51","false","",""
"null","","html-keyboard-response","248","248313","0.0-9.0","","<img src=""img/nature/S3.jpg"" width=""540"" height = ""360"">","null","","","","","",""
"null","","html-keyboard-response","249","248514","0.0-10.0","","","null","","","","","",""
"473.7000000476837","","image-keyboard-response","250","248990","0.0-11.0","","img/nature/S3.jpg","49","3","Ns4,train","51","false","",""
"null","","html-keyboard-response","251","249342","0.0-12.0","","<img src=""img/nature/S3.jpg"" width=""540"" height = ""360"">","null","","","","","",""
"null","","html-keyboard-response","252","249543","0.0-13.0","","","null","","","","","",""
"670.6000000238419","","image-keyboard-response","253","250215","0.0-14.0","","img/nature/S3.jpg","51","3","Ns4,train","51","true","",""
"null","","html-keyboard-response","254","250567","0.0-15.0","","<img src=""img/nature/S3.jpg"" width=""540"" height = ""360"" style=""border:14px solid orange"">","null","","","","","",""
"null","","html-keyboard-response","255","250769","0.0-16.0","","","null","","","","","",""
"1091.4000000357628","","image-keyboard-response","256","251862","0.0-17.0","","img/nature/S2.jpg","50","2","Ns4,train","50","true","",""
"null","","html-keyboard-response","257","252214","0.0-18.0","","<img src=""img/nature/S2.jpg"" width=""540"" height = ""360"" style=""border:14px solid orange"">","null","","","","","",""
"null","","html-keyboard-response","258","252415","0.0-19.0","","","null","","","","","",""
"731.6000000238419","","image-keyboard-response","259","253148","0.0-20.0","","img/nature/S1.jpg","52","1","Ns4,train","49","false","",""
"null","","html-keyboard-response","260","253500","0.0-21.0","","<img src=""img/nature/S1.jpg"" width=""540"" height = ""360"">","null","","","","","",""
"null","","html-keyboard-response","261","253701","0.0-22.0","","","null","","","","","",""
"1013.7999999523163","","image-keyboard-response","262","254716","0.0-23.0","","img/nature/S2.jpg","50","2","Ns4,train","50","true","",""
"null","","html-keyboard-response","263","255069","0.0-24.0","","<img src=""img/nature/S2.jpg"" width=""540"" height = ""360"" style=""border:14px solid orange"">","null","","","","","",""
"null","","html-keyboard-response","264","255271","0.0-25.0","","","null","","","","","",""
"1000.3000000119209","","image-keyboard-response","265","256273","0.0-26.0","","img/nature/S1.jpg","49","1","Ns4,train","49","true","",""
"null","","html-keyboard-response","266","256625","0.0-27.0","","<img src=""img/nature/S1.jpg"" width=""540"" height = ""360"" style=""border:14px solid orange"">","null","","","","","",""
"null","","html-keyboard-response","267","256826","0.0-28.0","","","null","","","","","",""
"621.3000000119209","","image-keyboard-response","268","257449","0.0-29.0","","img/nature/S2.jpg","51","2","Ns4,train","50","false","",""
"null","","html-keyboard-response","269","257802","0.0-30.0","","<img src=""img/nature/S2.jpg"" width=""540"" height = ""360"">","null","","","","","",""
"null","","html-keyboard-response","270","258003","0.0-31.0","","","null","","","","","",""
"679.6000000238419","","image-keyboard-response","271","258685","0.0-32.0","","img/nature/S1.jpg","51","1","Ns4,train","49","false","",""
"null","","html-keyboard-response","272","259037","0.0-33.0","","<img src=""img/nature/S1.jpg"" width=""540"" height = ""360"">","null","","","","","",""
"null","","html-keyboard-response","273","259238","0.0-34.0","","","null","","","","","",""
"593.6999999880791","","image-keyboard-response","274","259834","0.0-35.0","","img/nature/S3.jpg","51","3","Ns4,train","51","true","",""
"null","","html-keyboard-response","275","260186","0.0-36.0","","<img src=""img/nature/S3.jpg"" width=""540"" height = ""360"" style=""border:14px solid orange"">","null","","","","","",""
"null","","html-keyboard-response","276","260388","0.0-37.0","","","null","","","","","",""
"886","","image-keyboard-response","277","261275","0.0-38.0","","img/nature/S2.jpg","50","2","Ns4,train","50","true","",""
"null","","html-keyboard-response","278","261628","0.0-39.0","","<img src=""img/nature/S2.jpg"" width=""540"" height = ""360"" style=""border:14px solid orange"">","null","","","","","",""
"null","","html-keyboard-response","279","261829","0.0-40.0","","","null","","","","","",""
"564","","image-keyboard-response","280","262395","0.0-41.0","","img/nature/S1.jpg","52","1","Ns4,train","49","false","",""
"null","","html-keyboard-response","281","262747","0.0-42.0","","<img src=""img/nature/S1.jpg"" width=""540"" height = ""360"">","null","","","","","",""
"null","","html-keyboard-response","282","262949","0.0-43.0","","","null","","","","","",""
"1481","","image-keyboard-response","283","264431","0.0-44.0","","img/nature/S2.jpg","50","2","Ns4,train","50","true","",""
"null","","html-keyboard-response","284","264784","0.0-45.0","","<img src=""img/nature/S2.jpg"" width=""540"" height = ""360"" style=""border:14px solid orange"">","null","","","","","",""
"null","","html-keyboard-response","285","264985","0.0-46.0","","","null","","","","","",""
"632.3000000119209","","image-keyboard-response","286","265619","0.0-47.0","","img/nature/S1.jpg","49","1","Ns4,train","49","true","",""
"null","","html-keyboard-response","287","265971","0.0-48.0","","<img src=""img/nature/S1.jpg"" width=""540"" height = ""360"" style=""border:14px solid orange"">","null","","","","","",""
"null","","html-keyboard-response","288","266172","0.0-49.0","","","null","","","","","",""
"715.1999999880791","","image-keyboard-response","289","266890","0.0-50.0","","img/nature/S4.jpg","52","4","Ns4,train","52","true","",""
"null","","html-keyboard-response","290","267242","0.0-51.0","","<img src=""img/nature/S4.jpg"" width=""540"" height = ""360"" style=""border:14px solid orange"">","null","","","","","",""
"null","","html-keyboard-response","291","267444","0.0-52.0","","","null","","","","","",""
"675.1000000238419","","image-keyboard-response","292","268121","0.0-53.0","","img/nature/S3.jpg","51","3","Ns4,train","51","true","",""
"null","","html-keyboard-response","293","268474","0.0-54.0","","<img src=""img/nature/S3.jpg"" width=""540"" height = ""360"" style=""border:14px solid orange"">","null","","","","","",""
"null","","html-keyboard-response","294","268675","0.0-55.0","","","null","","","","","",""
"786.4000000357628","","image-keyboard-response","295","269464","0.0-56.0","","img/nature/S3.jpg","51","3","Ns4,train","51","true","",""
"null","","html-keyboard-response","296","269816","0.0-57.0","","<img src=""img/nature/S3.jpg"" width=""540"" height = ""360"" style=""border:14px solid orange"">","null","","","","","",""
"null","","html-keyboard-response","297","270018","0.0-58.0","","","null","","","","","",""
"427.19999998807907","","image-keyboard-response","298","270447","0.0-59.0","","img/nature/S3.jpg","51","3","Ns4,train","51","true","",""
"null","","html-keyboard-response","299","270799","0.0-60.0","","<img src=""img/nature/S3.jpg"" width=""540"" height = ""360"" style=""border:14px solid orange"">","null","","","","","",""
"null","","html-keyboard-response","300","271001","0.0-61.0","","","null","","","","","",""
"400.69999998807907","","image-keyboard-response","301","271403","0.0-62.0","","img/nature/S3.jpg","51","3","Ns4,train","51","true","",""
"null","","html-keyboard-response","302","271755","0.0-63.0","","<img src=""img/nature/S3.jpg"" width=""540"" height = ""360"" style=""border:14px solid orange"">","null","","","","","",""
"null","","html-keyboard-response","303","271956","0.0-64.0","","","null","","","","","",""
"378","","image-keyboard-response","304","272336","0.0-65.0","","img/nature/S3.jpg","51","3","Ns4,train","51","true","",""
"null","","html-keyboard-response","305","272688","0.0-66.0","","<img src=""img/nature/S3.jpg"" width=""540"" height = ""360"" style=""border:14px solid orange"">","null","","","","","",""
"null","","html-keyboard-response","306","272890","0.0-67.0","","","null","","","","","",""
"371.10000002384186","","image-keyboard-response","307","273263","0.0-68.0","","img/nature/S3.jpg","51","3","Ns4,train","51","true","",""
"null","","html-keyboard-response","308","273615","0.0-69.0","","<img src=""img/nature/S3.jpg"" width=""540"" height = ""360"" style=""border:14px solid orange"">","null","","","","","",""
"null","","html-keyboard-response","309","273817","0.0-70.0","","","null","","","","","",""
"540","","image-keyboard-response","310","274359","0.0-71.0","","img/nature/S4.jpg","52","4","Ns4,train","52","true","",""
"null","","html-keyboard-response","311","274711","0.0-72.0","","<img src=""img/nature/S4.jpg"" width=""540"" height = ""360"" style=""border:14px solid orange"">","null","","","","","",""
"null","","html-keyboard-response","312","274913","0.0-73.0","","","null","","","","","",""
"430.60000002384186","","image-keyboard-response","313","275345","0.0-74.0","","img/nature/S2.jpg","50","2","Ns4,train","50","true","",""
"null","","html-keyboard-response","314","275697","0.0-75.0","","<img src=""img/nature/S2.jpg"" width=""540"" height = ""360"" style=""border:14px solid orange"">","null","","","","","",""
"null","","html-keyboard-response","315","275899","0.0-76.0","","","null","","","","","",""
"554.8999999761581","","image-keyboard-response","316","276455","0.0-77.0","","img/nature/S1.jpg","49","1","Ns4,train","49","true","",""
"null","","html-keyboard-response","317","276808","0.0-78.0","","<img src=""img/nature/S1.jpg"" width=""540"" height = ""360"" style=""border:14px solid orange"">","null","","","","","",""
"null","","html-keyboard-response","318","277009","0.0-79.0","","","null","","","","","",""
"587.0999999642372","","image-keyboard-response","319","277598","0.0-80.0","","img/nature/S4.jpg","52","4","Ns4,train","52","true","",""
"null","","html-keyboard-response","320","277950","0.0-81.0","","<img src=""img/nature/S4.jpg"" width=""540"" height = ""360"" style=""border:14px solid orange"">","null","","","","","",""
"null","","html-keyboard-response","321","278151","0.0-82.0","","","null","","","","","",""
"655.3000000119209","","image-keyboard-response","322","278808","0.0-83.0","","img/nature/S2.jpg","50","2","Ns4,train","50","true","",""
"null","","html-keyboard-response","323","279159","0.0-84.0","","<img src=""img/nature/S2.jpg"" width=""540"" height = ""360"" style=""border:14px solid orange"">","null","","","","","",""
"null","","html-keyboard-response","324","279361","0.0-85.0","","","null","","","","","",""
"576.1000000238419","","image-keyboard-response","325","279939","0.0-86.0","","img/nature/S1.jpg","49","1","Ns4,train","49","true","",""
"null","","html-keyboard-response","326","280291","0.0-87.0","","<img src=""img/nature/S1.jpg"" width=""540"" height = ""360"" style=""border:14px solid orange"">","null","","","","","",""
"null","","html-keyboard-response","327","280492","0.0-88.0","","","null","","","","","",""
"415.5","","image-keyboard-response","328","280909","0.0-89.0","","img/nature/S4.jpg","52","4","Ns4,train","52","true","",""
"null","","html-keyboard-response","329","281261","0.0-90.0","","<img src=""img/nature/S4.jpg"" width=""540"" height = ""360"" style=""border:14px solid orange"">","null","","","","","",""
"null","","html-keyboard-response","330","281463","0.0-91.0","","","null","","","","","",""
"444.5999999642372","","image-keyboard-response","331","281909","0.0-92.0","","img/nature/S4.jpg","52","4","Ns4,train","52","true","",""
"null","","html-keyboard-response","332","282261","0.0-93.0","","<img src=""img/nature/S4.jpg"" width=""540"" height = ""360"" style=""border:14px solid orange"">","null","","","","","",""
"null","","html-keyboard-response","333","282463","0.0-94.0","","","null","","","","","",""
"607.8999999761581","","image-keyboard-response","334","283072","0.0-95.0","","img/nature/S3.jpg","51","3","Ns4,train","51","true","",""
"null","","html-keyboard-response","335","283424","0.0-96.0","","<img src=""img/nature/S3.jpg"" width=""540"" height = ""360"" style=""border:14px solid orange"">","null","","","","","",""
"null","","html-keyboard-response","336","283625","0.0-97.0","","","null","","","","","",""
"469.39999997615814","","image-keyboard-response","337","284096","0.0-98.0","","img/nature/S4.jpg","52","4","Ns4,train","52","true","",""
"null","","html-keyboard-response","338","284448","0.0-99.0","","<img src=""img/nature/S4.jpg"" width=""540"" height = ""360"" style=""border:14px solid orange"">","null","","","","","",""
"null","","html-keyboard-response","339","284650","0.0-100.0","","","null","","","","","",""
"487.30000001192093","","image-keyboard-response","340","285139","0.0-101.0","","img/nature/S4.jpg","52","4","Ns4,train","52","true","",""
"null","","html-keyboard-response","341","285491","0.0-102.0","","<img src=""img/nature/S4.jpg"" width=""540"" height = ""360"" style=""border:14px solid orange"">","null","","","","","",""
"null","","html-keyboard-response","342","285692","0.0-103.0","","","null","","","","","",""
"513.4000000357628","","image-keyboard-response","343","286208","0.0-104.0","","img/nature/S3.jpg","51","3","Ns4,train","51","true","",""
"null","","html-keyboard-response","344","286560","0.0-105.0","","<img src=""img/nature/S3.jpg"" width=""540"" height = ""360"" style=""border:14px solid orange"">","null","","","","","",""
"null","","html-keyboard-response","345","286761","0.0-106.0","","","null","","","","","",""
"352.80000001192093","","image-keyboard-response","346","287116","0.0-107.0","","img/nature/S2.jpg","50","2","Ns4,train","50","true","",""
"null","","html-keyboard-response","347","287468","0.0-108.0","","<img src=""img/nature/S2.jpg"" width=""540"" height = ""360"" style=""border:14px solid orange"">","null","","","","","",""
"null","","html-keyboard-response","348","287669","0.0-109.0","","","null","","","","","",""
"552.4000000357628","","image-keyboard-response","349","288223","0.0-110.0","","img/nature/S1.jpg","49","1","Ns4,train","49","true","",""
"null","","html-keyboard-response","350","288576","0.0-111.0","","<img src=""img/nature/S1.jpg"" width=""540"" height = ""360"" style=""border:14px solid orange"">","null","","","","","",""
"null","","html-keyboard-response","351","288777","0.0-112.0","","","null","","","","","",""
"518.5","","image-keyboard-response","352","289297","0.0-113.0","","img/nature/S2.jpg","51","2","Ns4,train","50","false","",""
"null","","html-keyboard-response","353","289649","0.0-114.0","","<img src=""img/nature/S2.jpg"" width=""540"" height = ""360"">","null","","","","","",""
"null","","html-keyboard-response","354","289850","0.0-115.0","","","null","","","","","",""
"662.7999999523163","","image-keyboard-response","355","290514","0.0-116.0","","img/nature/S1.jpg","49","1","Ns4,train","49","true","",""
"null","","html-keyboard-response","356","290866","0.0-117.0","","<img src=""img/nature/S1.jpg"" width=""540"" height = ""360"" style=""border:14px solid orange"">","null","","","","","",""
"null","","html-keyboard-response","357","291068","0.0-118.0","","","null","","","","","",""
"491.39999997615814","","image-keyboard-response","358","291562","0.0-119.0","","img/nature/S2.jpg","50","2","Ns4,train","50","true","",""
"null","","html-keyboard-response","359","291914","0.0-120.0","","<img src=""img/nature/S2.jpg"" width=""540"" height = ""360"" style=""border:14px solid orange"">","null","","","","","",""
"null","","html-keyboard-response","360","292115","0.0-121.0","","","null","","","","","",""
"585.3000000119209","","image-keyboard-response","361","292702","0.0-122.0","","img/nature/S1.jpg","49","1","Ns4,train","49","true","",""
"null","","html-keyboard-response","362","293055","0.0-123.0","","<img src=""img/nature/S1.jpg"" width=""540"" height = ""360"" style=""border:14px solid orange"">","null","","","","","",""
"null","","html-keyboard-response","363","293256","0.0-124.0","","","null","","","","","",""
"628","","image-keyboard-response","364","293886","0.0-125.0","","img/nature/S2.jpg","50","2","Ns4,train","50","true","",""
"null","","html-keyboard-response","365","294239","0.0-126.0","","<img src=""img/nature/S2.jpg"" width=""540"" height = ""360"" style=""border:14px solid orange"">","null","","","","","",""
"null","","html-keyboard-response","366","294441","0.0-127.0","","","null","","","","","",""
"555.8999999761581","","image-keyboard-response","367","294999","0.0-128.0","","img/nature/S1.jpg","49","1","Ns4,train","49","true","",""
"null","","html-keyboard-response","368","295351","0.0-129.0","","<img src=""img/nature/S1.jpg"" width=""540"" height = ""360"" style=""border:14px solid orange"">","null","","","","","",""
"null","","html-keyboard-response","369","295552","0.0-130.0","","","null","","","","","",""
"518.9000000357628","","image-keyboard-response","370","296073","0.0-131.0","","img/nature/S3.jpg","52","3","Ns4,train","51","false","",""
"null","","html-keyboard-response","371","296425","0.0-132.0","","<img src=""img/nature/S3.jpg"" width=""540"" height = ""360"">","null","","","","","",""
"null","","html-keyboard-response","372","296627","0.0-133.0","","","null","","","","","",""
"449.39999997615814","","image-keyboard-response","373","297077","0.0-134.0","","img/nature/S3.jpg","51","3","Ns4,train","51","true","",""
"null","","html-keyboard-response","374","297430","0.0-135.0","","<img src=""img/nature/S3.jpg"" width=""540"" height = ""360"" style=""border:14px solid orange"">","null","","","","","",""
"null","","html-keyboard-response","375","297631","0.0-136.0","","","null","","","","","",""
"463","","image-keyboard-response","376","298096","0.0-137.0","","img/nature/S4.jpg","52","4","Ns4,train","52","true","",""
"null","","html-keyboard-response","377","298448","0.0-138.0","","<img src=""img/nature/S4.jpg"" width=""540"" height = ""360"" style=""border:14px solid orange"">","null","","","","","",""
"null","","html-keyboard-response","378","298649","0.0-139.0","","","null","","","","","",""
"427.60000002384186","","image-keyboard-response","379","299079","0.0-140.0","","img/nature/S4.jpg","52","4","Ns4,train","52","true","",""
"null","","html-keyboard-response","380","299431","0.0-141.0","","<img src=""img/nature/S4.jpg"" width=""540"" height = ""360"" style=""border:14px solid orange"">","null","","","","","",""
"null","","html-keyboard-response","381","299632","0.0-142.0","","","null","","","","","",""
"367.19999998807907","","image-keyboard-response","382","300001","0.0-143.0","","img/nature/S4.jpg","52","4","Ns4,train","52","true","",""
"null","","html-keyboard-response","383","300354","0.0-144.0","","<img src=""img/nature/S4.jpg"" width=""540"" height = ""360"" style=""border:14px solid orange"">","null","","","","","",""
"null","","html-keyboard-response","384","300555","0.0-145.0","","","null","","","","","",""
"354.5","","image-keyboard-response","385","300912","0.0-146.0","","img/nature/S4.jpg","52","4","Ns4,train","52","true","",""
"null","","html-keyboard-response","386","301264","0.0-147.0","","<img src=""img/nature/S4.jpg"" width=""540"" height = ""360"" style=""border:14px solid orange"">","null","","","","","",""
"null","","html-keyboard-response","387","301466","0.0-148.0","","","null","","","","","",""
"331.5","","image-keyboard-response","388","301798","0.0-149.0","","img/nature/S4.jpg","52","4","Ns4,train","52","true","",""
"null","","html-keyboard-response","389","302151","0.0-150.0","","<img src=""img/nature/S4.jpg"" width=""540"" height = ""360"" style=""border:14px solid orange"">","null","","","","","",""
"null","","html-keyboard-response","390","302352","0.0-151.0","","","null","","","","","",""
"394.30000001192093","","image-keyboard-response","391","302749","0.0-152.0","","img/nature/S3.jpg","51","3","Ns4,train","51","true","",""
"null","","html-keyboard-response","392","303101","0.0-153.0","","<img src=""img/nature/S3.jpg"" width=""540"" height = ""360"" style=""border:14px solid orange"">","null","","","","","",""
"null","","html-keyboard-response","393","303302","0.0-154.0","","","null","","","","","",""
"324.80000001192093","","image-keyboard-response","394","303629","0.0-155.0","","img/nature/S3.jpg","51","3","Ns4,train","51","true","",""
"null","","html-keyboard-response","395","303981","0.0-156.0","","<img src=""img/nature/S3.jpg"" width=""540"" height = ""360"" style=""border:14px solid orange"">","null","","","","","",""
"null","","html-keyboard-response","396","304182","0.0-157.0","","","null","","","","","",""
"483.80000001192093","","image-keyboard-response","397","304668","0.0-158.0","","img/nature/S2.jpg","50","2","Ns4,train","50","true","",""
"null","","html-keyboard-response","398","305020","0.0-159.0","","<img src=""img/nature/S2.jpg"" width=""540"" height = ""360"" style=""border:14px solid orange"">","null","","","","","",""
"null","","html-keyboard-response","399","305222","0.0-160.0","","","null","","","","","",""
"370.10000002384186","","image-keyboard-response","400","305594","0.0-161.0","","img/nature/S1.jpg","49","1","Ns4,train","49","true","",""
"null","","html-keyboard-response","401","305946","0.0-162.0","","<img src=""img/nature/S1.jpg"" width=""540"" height = ""360"" style=""border:14px solid orange"">","null","","","","","",""
"null","","html-keyboard-response","402","306148","0.0-163.0","","","null","","","","","",""
"554.5","","image-keyboard-response","403","306704","0.0-164.0","","img/nature/S4.jpg","52","4","Ns4,train","52","true","",""
"null","","html-keyboard-response","404","307057","0.0-165.0","","<img src=""img/nature/S4.jpg"" width=""540"" height = ""360"" style=""border:14px solid orange"">","null","","","","","",""
"null","","html-keyboard-response","405","307259","0.0-166.0","","","null","","","","","",""
"464.60000002384186","","image-keyboard-response","406","307725","0.0-167.0","","img/nature/S2.jpg","50","2","Ns4,train","50","true","",""
"null","","html-keyboard-response","407","308077","0.0-168.0","","<img src=""img/nature/S2.jpg"" width=""540"" height = ""360"" style=""border:14px solid orange"">","null","","","","","",""
"null","","html-keyboard-response","408","308278","0.0-169.0","","","null","","","","","",""
"385.19999998807907","","image-keyboard-response","409","308666","0.0-170.0","","img/nature/S1.jpg","49","1","Ns4,train","49","true","",""
"null","","html-keyboard-response","410","309018","0.0-171.0","","<img src=""img/nature/S1.jpg"" width=""540"" height = ""360"" style=""border:14px solid orange"">","null","","","","","",""
"null","","html-keyboard-response","411","309219","0.0-172.0","","","null","","","","","",""
"439.89999997615814","","image-keyboard-response","412","309660","0.0-173.0","","img/nature/S4.jpg","52","4","Ns4,train","52","true","",""
"null","","html-keyboard-response","413","310012","0.0-174.0","","<img src=""img/nature/S4.jpg"" width=""540"" height = ""360"" style=""border:14px solid orange"">","null","","","","","",""
"null","","html-keyboard-response","414","310214","0.0-175.0","","","null","","","","","",""
"496.89999997615814","","image-keyboard-response","415","310712","0.0-176.0","","img/nature/S2.jpg","50","2","Ns4,train","50","true","",""
"null","","html-keyboard-response","416","311064","0.0-177.0","","<img src=""img/nature/S2.jpg"" width=""540"" height = ""360"" style=""border:14px solid orange"">","null","","","","","",""
"null","","html-keyboard-response","417","311265","0.0-178.0","","","null","","","","","",""
"367.39999997615814","","image-keyboard-response","418","311635","0.0-179.0","","img/nature/S1.jpg","49","1","Ns4,train","49","true","",""
"null","","html-keyboard-response","419","311987","0.0-180.0","","<img src=""img/nature/S1.jpg"" width=""540"" height = ""360"" style=""border:14px solid orange"">","null","","","","","",""
"null","","html-keyboard-response","420","312188","0.0-181.0","","","null","","","","","",""
"502.5","","image-keyboard-response","421","312692","0.0-182.0","","img/nature/S4.jpg","52","4","Ns4,train","52","true","",""
"null","","html-keyboard-response","422","313044","0.0-183.0","","<img src=""img/nature/S4.jpg"" width=""540"" height = ""360"" style=""border:14px solid orange"">","null","","","","","",""
"null","","html-keyboard-response","423","313245","0.0-184.0","","","null","","","","","",""
"497","","image-keyboard-response","424","313744","0.0-185.0","","img/nature/S4.jpg","52","4","Ns4,train","52","true","",""
"null","","html-keyboard-response","425","314096","0.0-186.0","","<img src=""img/nature/S4.jpg"" width=""540"" height = ""360"" style=""border:14px solid orange"">","null","","","","","",""
"null","","html-keyboard-response","426","314298","0.0-187.0","","","null","","","","","",""
"466.60000002384186","","image-keyboard-response","427","314766","0.0-188.0","","img/nature/S3.jpg","51","3","Ns4,train","51","true","",""
"null","","html-keyboard-response","428","315118","0.0-189.0","","<img src=""img/nature/S3.jpg"" width=""540"" height = ""360"" style=""border:14px solid orange"">","null","","","","","",""
"null","","html-keyboard-response","429","315320","0.0-190.0","","","null","","","","","",""
"415.89999997615814","","image-keyboard-response","430","315737","0.0-191.0","","img/nature/S2.jpg","50","2","Ns4,train","50","true","",""
"null","","html-keyboard-response","431","316089","0.0-192.0","","<img src=""img/nature/S2.jpg"" width=""540"" height = ""360"" style=""border:14px solid orange"">","null","","","","","",""
"null","","html-keyboard-response","432","316290","0.0-193.0","","","null","","","","","",""
"512.1999999880791","","image-keyboard-response","433","316804","0.0-194.0","","img/nature/S1.jpg","49","1","Ns4,train","49","true","",""
"null","","html-keyboard-response","434","317157","0.0-195.0","","<img src=""img/nature/S1.jpg"" width=""540"" height = ""360"" style=""border:14px solid orange"">","null","","","","","",""
"null","","html-keyboard-response","435","317359","0.0-196.0","","","null","","","","","",""
"567.6999999880791","","image-keyboard-response","436","317928","0.0-197.0","","img/nature/S2.jpg","50","2","Ns4,train","50","true","",""
"null","","html-keyboard-response","437","318280","0.0-198.0","","<img src=""img/nature/S2.jpg"" width=""540"" height = ""360"" style=""border:14px solid orange"">","null","","","","","",""
"null","","html-keyboard-response","438","318482","0.0-199.0","","","null","","","","","",""
"1369.699999988079","","image-keyboard-response","439","319853","0.0-200.0","","img/nature/S1.jpg","51","1","Ns4,train","49","false","",""
"null","","html-keyboard-response","440","320205","0.0-201.0","","<img src=""img/nature/S1.jpg"" width=""540"" height = ""360"">","null","","","","","",""
"null","","html-keyboard-response","441","320406","0.0-202.0","","","null","","","","","",""
"568.8999999761581","","image-keyboard-response","442","320977","0.0-203.0","","img/nature/S4.jpg","52","4","Ns4,train","52","true","",""
"null","","html-keyboard-response","443","321331","0.0-204.0","","<img src=""img/nature/S4.jpg"" width=""540"" height = ""360"" style=""border:14px solid orange"">","null","","","","","",""
"null","","html-keyboard-response","444","321533","0.0-205.0","","","null","","","","","",""
"1198.300000011921","","image-keyboard-response","445","322733","0.0-206.0","","img/nature/S2.jpg","50","2","Ns4,train","50","true","",""
"null","","html-keyboard-response","446","323086","0.0-207.0","","<img src=""img/nature/S2.jpg"" width=""540"" height = ""360"" style=""border:14px solid orange"">","null","","","","","",""
"null","","html-keyboard-response","447","323287","0.0-208.0","","","null","","","","","",""
"627.3999999761581","","image-keyboard-response","448","323916","0.0-209.0","","img/nature/S1.jpg","49","1","Ns4,train","49","true","",""
"null","","html-keyboard-response","449","324268","0.0-210.0","","<img src=""img/nature/S1.jpg"" width=""540"" height = ""360"" style=""border:14px solid orange"">","null","","","","","",""
"null","","html-keyboard-response","450","324470","0.0-211.0","","","null","","","","","",""
"511.39999997615814","","image-keyboard-response","451","324983","0.0-212.0","","img/nature/S2.jpg","50","2","Ns4,train","50","true","",""
"null","","html-keyboard-response","452","325335","0.0-213.0","","<img src=""img/nature/S2.jpg"" width=""540"" height = ""360"" style=""border:14px solid orange"">","null","","","","","",""
"null","","html-keyboard-response","453","325537","0.0-214.0","","","null","","","","","",""
"504.7999999523163","","image-keyboard-response","454","326044","0.0-215.0","","img/nature/S1.jpg","49","1","Ns4,train","49","true","",""
"null","","html-keyboard-response","455","326396","0.0-216.0","","<img src=""img/nature/S1.jpg"" width=""540"" height = ""360"" style=""border:14px solid orange"">","null","","","","","",""
"null","","html-keyboard-response","456","326597","0.0-217.0","","","null","","","","","",""
"557.1000000238419","","image-keyboard-response","457","327156","0.0-218.0","","img/nature/S3.jpg","51","3","Ns4,train","51","true","",""
"null","","html-keyboard-response","458","327508","0.0-219.0","","<img src=""img/nature/S3.jpg"" width=""540"" height = ""360"" style=""border:14px solid orange"">","null","","","","","",""
"null","","html-keyboard-response","459","327710","0.0-220.0","","","null","","","","","",""
"490.10000002384186","","image-keyboard-response","460","328201","0.0-221.0","","img/nature/S2.jpg","50","2","Ns4,train","50","true","",""
"null","","html-keyboard-response","461","328554","0.0-222.0","","<img src=""img/nature/S2.jpg"" width=""540"" height = ""360"" style=""border:14px solid orange"">","null","","","","","",""
"null","","html-keyboard-response","462","328755","0.0-223.0","","","null","","","","","",""
"361.10000002384186","","image-keyboard-response","463","329118","0.0-224.0","","img/nature/S1.jpg","49","1","Ns4,train","49","true","",""
"null","","html-keyboard-response","464","329470","0.0-225.0","","<img src=""img/nature/S1.jpg"" width=""540"" height = ""360"" style=""border:14px solid orange"">","null","","","","","",""
"null","","html-keyboard-response","465","329672","0.0-226.0","","","null","","","","","",""
"485.19999998807907","","image-keyboard-response","466","330159","0.0-227.0","","img/nature/S3.jpg","51","3","Ns4,train","51","true","",""
"null","","html-keyboard-response","467","330511","0.0-228.0","","<img src=""img/nature/S3.jpg"" width=""540"" height = ""360"" style=""border:14px solid orange"">","null","","","","","",""
"null","","html-keyboard-response","468","330712","0.0-229.0","","","null","","","","","",""
"497.9000000357628","","image-keyboard-response","469","331211","0.0-230.0","","img/nature/S4.jpg","52","4","Ns4,train","52","true","",""
"null","","html-keyboard-response","470","331564","0.0-231.0","","<img src=""img/nature/S4.jpg"" width=""540"" height = ""360"" style=""border:14px solid orange"">","null","","","","","",""
"null","","html-keyboard-response","471","331766","0.0-232.0","","","null","","","","","",""
"477.5999999642372","","image-keyboard-response","472","332246","0.0-233.0","","img/nature/S2.jpg","50","2","Ns4,train","50","true","",""
"null","","html-keyboard-response","473","332598","0.0-234.0","","<img src=""img/nature/S2.jpg"" width=""540"" height = ""360"" style=""border:14px solid orange"">","null","","","","","",""
"null","","html-keyboard-response","474","332800","0.0-235.0","","","null","","","","","",""
"622.7999999523163","","image-keyboard-response","475","333424","0.0-236.0","","img/nature/S1.jpg","49","1","Ns4,train","49","true","",""
"null","","html-keyboard-response","476","333776","0.0-237.0","","<img src=""img/nature/S1.jpg"" width=""540"" height = ""360"" style=""border:14px solid orange"">","null","","","","","",""
"null","","html-keyboard-response","477","333978","0.0-238.0","","","null","","","","","",""
"525.9000000357628","","image-keyboard-response","478","334505","0.0-239.0","","img/nature/S4.jpg","52","4","Ns4,train","52","true","",""
"null","","html-keyboard-response","479","334857","0.0-240.0","","<img src=""img/nature/S4.jpg"" width=""540"" height = ""360"" style=""border:14px solid orange"">","null","","","","","",""
"null","","html-keyboard-response","480","335059","0.0-241.0","","","null","","","","","",""
"540","","image-keyboard-response","481","335600","0.0-242.0","","img/nature/S3.jpg","51","3","Ns4,train","51","true","",""
"null","","html-keyboard-response","482","335953","0.0-243.0","","<img src=""img/nature/S3.jpg"" width=""540"" height = ""360"" style=""border:14px solid orange"">","null","","","","","",""
"null","","html-keyboard-response","483","336154","0.0-244.0","","","null","","","","","",""
"2342.900000035763","","html-keyboard-response","484","338499","0.0-245.0","","<p class=""center-content"">You have completed a block! </p><p class=""center-content"">Press any key on the keyboard to continue to the next block,</p><p class=""center-content"">or wait for the automatic progression to the next block after one minute.</p>","51","","","","","",""
"637.4000000357628","","image-keyboard-response","485","339138","0.0-246.0","","img/nature/S4.jpg","52","4","Ns4,train","52","true","",""
"null","","html-keyboard-response","486","339490","0.0-247.0","","<img src=""img/nature/S4.jpg"" width=""540"" height = ""360"" style=""border:14px solid orange"">","null","","","","","",""
"null","","html-keyboard-response","487","339691","0.0-248.0","","","null","","","","","",""
"545","","image-keyboard-response","488","340238","0.0-249.0","","img/nature/S3.jpg","51","3","Ns4,train","51","true","",""
"null","","html-keyboard-response","489","340590","0.0-250.0","","<img src=""img/nature/S3.jpg"" width=""540"" height = ""360"" style=""border:14px solid orange"">","null","","","","","",""
"null","","html-keyboard-response","490","340791","0.0-251.0","","","null","","","","","",""
"448.80000001192093","","image-keyboard-response","491","341242","0.0-252.0","","img/nature/S4.jpg","52","4","Ns4,train","52","true","",""
"null","","html-keyboard-response","492","341594","0.0-253.0","","<img src=""img/nature/S4.jpg"" width=""540"" height = ""360"" style=""border:14px solid orange"">","null","","","","","",""
"null","","html-keyboard-response","493","341796","0.0-254.0","","","null","","","","","",""
"522.8000000119209","","image-keyboard-response","494","342320","0.0-255.0","","img/nature/S2.jpg","50","2","Ns4,train","50","true","",""
"null","","html-keyboard-response","495","342673","0.0-256.0","","<img src=""img/nature/S2.jpg"" width=""540"" height = ""360"" style=""border:14px solid orange"">","null","","","","","",""
"null","","html-keyboard-response","496","342874","0.0-257.0","","","null","","","","","",""
"428.2000000476837","","image-keyboard-response","497","343304","0.0-258.0","","img/nature/S1.jpg","49","1","Ns4,train","49","true","",""
"null","","html-keyboard-response","498","343657","0.0-259.0","","<img src=""img/nature/S1.jpg"" width=""540"" height = ""360"" style=""border:14px solid orange"">","null","","","","","",""
"null","","html-keyboard-response","499","343858","0.0-260.0","","","null","","","","","",""
"413.5","","image-keyboard-response","500","344273","0.0-261.0","","img/nature/S3.jpg","51","3","Ns4,train","51","true","",""
"null","","html-keyboard-response","501","344626","0.0-262.0","","<img src=""img/nature/S3.jpg"" width=""540"" height = ""360"" style=""border:14px solid orange"">","null","","","","","",""
"null","","html-keyboard-response","502","344827","0.0-263.0","","","null","","","","","",""
"406.9000000357628","","image-keyboard-response","503","345236","0.0-264.0","","img/nature/S3.jpg","51","3","Ns4,train","51","true","",""
"null","","html-keyboard-response","504","345589","0.0-265.0","","<img src=""img/nature/S3.jpg"" width=""540"" height = ""360"" style=""border:14px solid orange"">","null","","","","","",""
"null","","html-keyboard-response","505","345791","0.0-266.0","","","null","","","","","",""
"358.80000001192093","","image-keyboard-response","506","346152","0.0-267.0","","img/nature/S2.jpg","50","2","Ns4,train","50","true","",""
"null","","html-keyboard-response","507","346504","0.0-268.0","","<img src=""img/nature/S2.jpg"" width=""540"" height = ""360"" style=""border:14px solid orange"">","null","","","","","",""
"null","","html-keyboard-response","508","346705","0.0-269.0","","","null","","","","","",""
"399.39999997615814","","image-keyboard-response","509","347106","0.0-270.0","","img/nature/S1.jpg","49","1","Ns4,train","49","true","",""
"null","","html-keyboard-response","510","347459","0.0-271.0","","<img src=""img/nature/S1.jpg"" width=""540"" height = ""360"" style=""border:14px solid orange"">","null","","","","","",""
"null","","html-keyboard-response","511","347661","0.0-272.0","","","null","","","","","",""
"474.5","","image-keyboard-response","512","348137","0.0-273.0","","img/nature/S4.jpg","52","4","Ns4,train","52","true","",""
"null","","html-keyboard-response","513","348489","0.0-274.0","","<img src=""img/nature/S4.jpg"" width=""540"" height = ""360"" style=""border:14px solid orange"">","null","","","","","",""
"null","","html-keyboard-response","514","348691","0.0-275.0","","","null","","","","","",""
"393.30000001192093","","image-keyboard-response","515","349086","0.0-276.0","","img/nature/S3.jpg","51","3","Ns4,train","51","true","",""
"null","","html-keyboard-response","516","349438","0.0-277.0","","<img src=""img/nature/S3.jpg"" width=""540"" height = ""360"" style=""border:14px solid orange"">","null","","","","","",""
"null","","html-keyboard-response","517","349639","0.0-278.0","","","null","","","","","",""
"400.19999998807907","","image-keyboard-response","518","350041","0.0-279.0","","img/nature/S2.jpg","50","2","Ns4,train","50","true","",""
"null","","html-keyboard-response","519","350393","0.0-280.0","","<img src=""img/nature/S2.jpg"" width=""540"" height = ""360"" style=""border:14px solid orange"">","null","","","","","",""
"null","","html-keyboard-response","520","350594","0.0-281.0","","","null","","","","","",""
"438.7000000476837","","image-keyboard-response","521","351035","0.0-282.0","","img/nature/S1.jpg","49","1","Ns4,train","49","true","",""
"null","","html-keyboard-response","522","351387","0.0-283.0","","<img src=""img/nature/S1.jpg"" width=""540"" height = ""360"" style=""border:14px solid orange"">","null","","","","","",""
"null","","html-keyboard-response","523","351588","0.0-284.0","","","null","","","","","",""
"450","","image-keyboard-response","524","352040","0.0-285.0","","img/nature/S2.jpg","50","2","Ns4,train","50","true","",""
"null","","html-keyboard-response","525","352392","0.0-286.0","","<img src=""img/nature/S2.jpg"" width=""540"" height = ""360"" style=""border:14px solid orange"">","null","","","","","",""
"null","","html-keyboard-response","526","352593","0.0-287.0","","","null","","","","","",""
"539.1000000238419","","image-keyboard-response","527","353134","0.0-288.0","","img/nature/S1.jpg","50","1","Ns4,train","49","false","",""
"null","","html-keyboard-response","528","353486","0.0-289.0","","<img src=""img/nature/S1.jpg"" width=""540"" height = ""360"">","null","","","","","",""
"null","","html-keyboard-response","529","353688","0.0-290.0","","","null","","","","","",""
"414.80000001192093","","image-keyboard-response","530","354104","0.0-291.0","","img/nature/S2.jpg","49","2","Ns4,train","50","false","",""
"null","","html-keyboard-response","531","354456","0.0-292.0","","<img src=""img/nature/S2.jpg"" width=""540"" height = ""360"">","null","","","","","",""
"null","","html-keyboard-response","532","354658","0.0-293.0","","","null","","","","","",""
"399.5","","image-keyboard-response","533","355059","0.0-294.0","","img/nature/S1.jpg","50","1","Ns4,train","49","false","",""
"null","","html-keyboard-response","534","355411","0.0-295.0","","<img src=""img/nature/S1.jpg"" width=""540"" height = ""360"">","null","","","","","",""
"null","","html-keyboard-response","535","355613","0.0-296.0","","","null","","","","","",""
"491.69999998807907","","image-keyboard-response","536","356106","0.0-297.0","","img/nature/S4.jpg","52","4","Ns4,train","52","true","",""
"null","","html-keyboard-response","537","356458","0.0-298.0","","<img src=""img/nature/S4.jpg"" width=""540"" height = ""360"" style=""border:14px solid orange"">","null","","","","","",""
"null","","html-keyboard-response","538","356659","0.0-299.0","","","null","","","","","",""
"391.89999997615814","","image-keyboard-response","539","357053","0.0-300.0","","img/nature/S4.jpg","52","4","Ns4,train","52","true","",""
"null","","html-keyboard-response","540","357405","0.0-301.0","","<img src=""img/nature/S4.jpg"" width=""540"" height = ""360"" style=""border:14px solid orange"">","null","","","","","",""
"null","","html-keyboard-response","541","357606","0.0-302.0","","","null","","","","","",""
"475.89999997615814","","image-keyboard-response","542","358084","0.0-303.0","","img/nature/S2.jpg","50","2","Ns4,train","50","true","",""
"null","","html-keyboard-response","543","358437","0.0-304.0","","<img src=""img/nature/S2.jpg"" width=""540"" height = ""360"" style=""border:14px solid orange"">","null","","","","","",""
"null","","html-keyboard-response","544","358638","0.0-305.0","","","null","","","","","",""
"417.39999997615814","","image-keyboard-response","545","359057","0.0-306.0","","img/nature/S1.jpg","49","1","Ns4,train","49","true","",""
"null","","html-keyboard-response","546","359410","0.0-307.0","","<img src=""img/nature/S1.jpg"" width=""540"" height = ""360"" style=""border:14px solid orange"">","null","","","","","",""
"null","","html-keyboard-response","547","359611","0.0-308.0","","","null","","","","","",""
"466.10000002384186","","image-keyboard-response","548","360079","0.0-309.0","","img/nature/S2.jpg","50","2","Ns4,train","50","true","",""
"null","","html-keyboard-response","549","360431","0.0-310.0","","<img src=""img/nature/S2.jpg"" width=""540"" height = ""360"" style=""border:14px solid orange"">","null","","","","","",""
"null","","html-keyboard-response","550","360632","0.0-311.0","","","null","","","","","",""
"359.4000000357628","","image-keyboard-response","551","360993","0.0-312.0","","img/nature/S1.jpg","49","1","Ns4,train","49","true","",""
"null","","html-keyboard-response","552","361346","0.0-313.0","","<img src=""img/nature/S1.jpg"" width=""540"" height = ""360"" style=""border:14px solid orange"">","null","","","","","",""
"null","","html-keyboard-response","553","361547","0.0-314.0","","","null","","","","","",""
"541.8000000119209","","image-keyboard-response","554","362091","0.0-315.0","","img/nature/S3.jpg","51","3","Ns4,train","51","true","",""
"null","","html-keyboard-response","555","362443","0.0-316.0","","<img src=""img/nature/S3.jpg"" width=""540"" height = ""360"" style=""border:14px solid orange"">","null","","","","","",""
"null","","html-keyboard-response","556","362644","0.0-317.0","","","null","","","","","",""
"475.60000002384186","","image-keyboard-response","557","363122","0.0-318.0","","img/nature/S2.jpg","50","2","Ns4,train","50","true","",""
"null","","html-keyboard-response","558","363474","0.0-319.0","","<img src=""img/nature/S2.jpg"" width=""540"" height = ""360"" style=""border:14px solid orange"">","null","","","","","",""
"null","","html-keyboard-response","559","363679","0.0-320.0","","","null","","","","","",""
"334.10000002384186","","image-keyboard-response","560","364015","0.0-321.0","","img/nature/S1.jpg","49","1","Ns4,train","49","true","",""
"null","","html-keyboard-response","561","364368","0.0-322.0","","<img src=""img/nature/S1.jpg"" width=""540"" height = ""360"" style=""border:14px solid orange"">","null","","","","","",""
"null","","html-keyboard-response","562","364569","0.0-323.0","","","null","","","","","",""
"501.0999999642372","","image-keyboard-response","563","365072","0.0-324.0","","img/nature/S4.jpg","52","4","Ns4,train","52","true","",""
"null","","html-keyboard-response","564","365424","0.0-325.0","","<img src=""img/nature/S4.jpg"" width=""540"" height = ""360"" style=""border:14px solid orange"">","null","","","","","",""
"null","","html-keyboard-response","565","365626","0.0-326.0","","","null","","","","","",""
"476.80000001192093","","image-keyboard-response","566","366104","0.0-327.0","","img/nature/S2.jpg","50","2","Ns4,train","50","true","",""
"null","","html-keyboard-response","567","366456","0.0-328.0","","<img src=""img/nature/S2.jpg"" width=""540"" height = ""360"" style=""border:14px solid orange"">","null","","","","","",""
"null","","html-keyboard-response","568","366658","0.0-329.0","","","null","","","","","",""
"454.19999998807907","","image-keyboard-response","569","367114","0.0-330.0","","img/nature/S1.jpg","49","1","Ns4,train","49","true","",""
"null","","html-keyboard-response","570","367466","0.0-331.0","","<img src=""img/nature/S1.jpg"" width=""540"" height = ""360"" style=""border:14px solid orange"">","null","","","","","",""
"null","","html-keyboard-response","571","367668","0.0-332.0","","","null","","","","","",""
"443.19999998807907","","image-keyboard-response","572","368113","0.0-333.0","","img/nature/S4.jpg","52","4","Ns4,train","52","true","",""
"null","","html-keyboard-response","573","368465","0.0-334.0","","<img src=""img/nature/S4.jpg"" width=""540"" height = ""360"" style=""border:14px solid orange"">","null","","","","","",""
"null","","html-keyboard-response","574","368667","0.0-335.0","","","null","","","","","",""
"475.5","","image-keyboard-response","575","369144","0.0-336.0","","img/nature/S2.jpg","50","2","Ns4,train","50","true","",""
"null","","html-keyboard-response","576","369497","0.0-337.0","","<img src=""img/nature/S2.jpg"" width=""540"" height = ""360"" style=""border:14px solid orange"">","null","","","","","",""
"null","","html-keyboard-response","577","369698","0.0-338.0","","","null","","","","","",""
"456.80000001192093","","image-keyboard-response","578","370157","0.0-339.0","","img/nature/S1.jpg","49","1","Ns4,train","49","true","",""
"null","","html-keyboard-response","579","370509","0.0-340.0","","<img src=""img/nature/S1.jpg"" width=""540"" height = ""360"" style=""border:14px solid orange"">","null","","","","","",""
"null","","html-keyboard-response","580","370710","0.0-341.0","","","null","","","","","",""
"614.8999999761581","","image-keyboard-response","581","371327","0.0-342.0","","img/nature/S2.jpg","50","2","Ns4,train","50","true","",""
"null","","html-keyboard-response","582","371679","0.0-343.0","","<img src=""img/nature/S2.jpg"" width=""540"" height = ""360"" style=""border:14px solid orange"">","null","","","","","",""
"null","","html-keyboard-response","583","371881","0.0-344.0","","","null","","","","","",""
"579.6999999880791","","image-keyboard-response","584","372462","0.0-345.0","","img/nature/S1.jpg","50","1","Ns4,train","49","false","",""
"null","","html-keyboard-response","585","372814","0.0-346.0","","<img src=""img/nature/S1.jpg"" width=""540"" height = ""360"">","null","","","","","",""
"null","","html-keyboard-response","586","373016","0.0-347.0","","","null","","","","","",""
"449.0999999642372","","image-keyboard-response","587","373467","0.0-348.0","","img/nature/S2.jpg","50","2","Ns4,train","50","true","",""
"null","","html-keyboard-response","588","373819","0.0-349.0","","<img src=""img/nature/S2.jpg"" width=""540"" height = ""360"" style=""border:14px solid orange"">","null","","","","","",""
"null","","html-keyboard-response","589","374020","0.0-350.0","","","null","","","","","",""
"444.69999998807907","","image-keyboard-response","590","374467","0.0-351.0","","img/nature/S1.jpg","49","1","Ns4,train","49","true","",""
"null","","html-keyboard-response","591","374820","0.0-352.0","","<img src=""img/nature/S1.jpg"" width=""540"" height = ""360"" style=""border:14px solid orange"">","null","","","","","",""
"null","","html-keyboard-response","592","375021","0.0-353.0","","","null","","","","","",""
"461.39999997615814","","image-keyboard-response","593","375484","0.0-354.0","","img/nature/S4.jpg","52","4","Ns4,train","52","true","",""
"null","","html-keyboard-response","594","375837","0.0-355.0","","<img src=""img/nature/S4.jpg"" width=""540"" height = ""360"" style=""border:14px solid orange"">","null","","","","","",""
"null","","html-keyboard-response","595","376038","0.0-356.0","","","null","","","","","",""
"373.7000000476837","","image-keyboard-response","596","376413","0.0-357.0","","img/nature/S4.jpg","52","4","Ns4,train","52","true","",""
"null","","html-keyboard-response","597","376765","0.0-358.0","","<img src=""img/nature/S4.jpg"" width=""540"" height = ""360"" style=""border:14px solid orange"">","null","","","","","",""
"null","","html-keyboard-response","598","376967","0.0-359.0","","","null","","","","","",""
"490.4000000357628","","image-keyboard-response","599","377459","0.0-360.0","","img/nature/S3.jpg","51","3","Ns4,train","51","true","",""
"null","","html-keyboard-response","600","377811","0.0-361.0","","<img src=""img/nature/S3.jpg"" width=""540"" height = ""360"" style=""border:14px solid orange"">","null","","","","","",""
"null","","html-keyboard-response","601","378012","0.0-362.0","","","null","","","","","",""
"393.80000001192093","","image-keyboard-response","602","378407","0.0-363.0","","img/nature/S2.jpg","50","2","Ns4,train","50","true","",""
"null","","html-keyboard-response","603","378760","0.0-364.0","","<img src=""img/nature/S2.jpg"" width=""540"" height = ""360"" style=""border:14px solid orange"">","null","","","","","",""
"null","","html-keyboard-response","604","378962","0.0-365.0","","","null","","","","","",""
"368.5","","image-keyboard-response","605","379332","0.0-366.0","","img/nature/S1.jpg","49","1","Ns4,train","49","true","",""
"null","","html-keyboard-response","606","379684","0.0-367.0","","<img src=""img/nature/S1.jpg"" width=""540"" height = ""360"" style=""border:14px solid orange"">","null","","","","","",""
"null","","html-keyboard-response","607","379886","0.0-368.0","","","null","","","","","",""
"478.5","","image-keyboard-response","608","380366","0.0-369.0","","img/nature/S3.jpg","51","3","Ns4,train","51","true","",""
"null","","html-keyboard-response","609","380719","0.0-370.0","","<img src=""img/nature/S3.jpg"" width=""540"" height = ""360"" style=""border:14px solid orange"">","null","","","","","",""
"null","","html-keyboard-response","610","380921","0.0-371.0","","","null","","","","","",""
"290.10000002384186","","image-keyboard-response","611","381212","0.0-372.0","","img/nature/S4.jpg","52","4","Ns4,train","52","true","",""
"null","","html-keyboard-response","612","381564","0.0-373.0","","<img src=""img/nature/S4.jpg"" width=""540"" height = ""360"" style=""border:14px solid orange"">","null","","","","","",""
"null","","html-keyboard-response","613","381766","0.0-374.0","","","null","","","","","",""
"393.60000002384186","","image-keyboard-response","614","382162","0.0-375.0","","img/nature/S4.jpg","52","4","Ns4,train","52","true","",""
"null","","html-keyboard-response","615","382514","0.0-376.0","","<img src=""img/nature/S4.jpg"" width=""540"" height = ""360"" style=""border:14px solid orange"">","null","","","","","",""
"null","","html-keyboard-response","616","382716","0.0-377.0","","","null","","","","","",""
"371.69999998807907","","image-keyboard-response","617","383089","0.0-378.0","","img/nature/S4.jpg","52","4","Ns4,train","52","true","",""
"null","","html-keyboard-response","618","383441","0.0-379.0","","<img src=""img/nature/S4.jpg"" width=""540"" height = ""360"" style=""border:14px solid orange"">","null","","","","","",""
"null","","html-keyboard-response","619","383643","0.0-380.0","","","null","","","","","",""
"447.2999999523163","","image-keyboard-response","620","384092","0.0-381.0","","img/nature/S2.jpg","50","2","Ns4,train","50","true","",""
"null","","html-keyboard-response","621","384444","0.0-382.0","","<img src=""img/nature/S2.jpg"" width=""540"" height = ""360"" style=""border:14px solid orange"">","null","","","","","",""
"null","","html-keyboard-response","622","384645","0.0-383.0","","","null","","","","","",""
"475","","image-keyboard-response","623","385122","0.0-384.0","","img/nature/S1.jpg","49","1","Ns4,train","49","true","",""
"null","","html-keyboard-response","624","385474","0.0-385.0","","<img src=""img/nature/S1.jpg"" width=""540"" height = ""360"" style=""border:14px solid orange"">","null","","","","","",""
"null","","html-keyboard-response","625","385676","0.0-386.0","","","null","","","","","",""
"434.10000002384186","","image-keyboard-response","626","386112","0.0-387.0","","img/nature/S2.jpg","50","2","Ns4,train","50","true","",""
"null","","html-keyboard-response","627","386464","0.0-388.0","","<img src=""img/nature/S2.jpg"" width=""540"" height = ""360"" style=""border:14px solid orange"">","null","","","","","",""
"null","","html-keyboard-response","628","386666","0.0-389.0","","","null","","","","","",""
"294.89999997615814","","image-keyboard-response","629","386962","0.0-390.0","","img/nature/S1.jpg","49","1","Ns4,train","49","true","",""
"null","","html-keyboard-response","630","387315","0.0-391.0","","<img src=""img/nature/S1.jpg"" width=""540"" height = ""360"" style=""border:14px solid orange"">","null","","","","","",""
"null","","html-keyboard-response","631","387516","0.0-392.0","","","null","","","","","",""
"381","","image-keyboard-response","632","387899","0.0-393.0","","img/nature/S3.jpg","51","3","Ns4,train","51","true","",""
"null","","html-keyboard-response","633","388252","0.0-394.0","","<img src=""img/nature/S3.jpg"" width=""540"" height = ""360"" style=""border:14px solid orange"">","null","","","","","",""
"null","","html-keyboard-response","634","388453","0.0-395.0","","","null","","","","","",""
"383.80000001192093","","image-keyboard-response","635","388839","0.0-396.0","","img/nature/S3.jpg","51","3","Ns4,train","51","true","",""
"null","","html-keyboard-response","636","389191","0.0-397.0","","<img src=""img/nature/S3.jpg"" width=""540"" height = ""360"" style=""border:14px solid orange"">","null","","","","","",""
"null","","html-keyboard-response","637","389392","0.0-398.0","","","null","","","","","",""
"404.5","","image-keyboard-response","638","389799","0.0-399.0","","img/nature/S4.jpg","52","4","Ns4,train","52","true","",""
"null","","html-keyboard-response","639","390151","0.0-400.0","","<img src=""img/nature/S4.jpg"" width=""540"" height = ""360"" style=""border:14px solid orange"">","null","","","","","",""
"null","","html-keyboard-response","640","390352","0.0-401.0","","","null","","","","","",""
"304.89999997615814","","image-keyboard-response","641","390659","0.0-402.0","","img/nature/S4.jpg","52","4","Ns4,train","52","true","",""
"null","","html-keyboard-response","642","391012","0.0-403.0","","<img src=""img/nature/S4.jpg"" width=""540"" height = ""360"" style=""border:14px solid orange"">","null","","","","","",""
"null","","html-keyboard-response","643","391213","0.0-404.0","","","null","","","","","",""
"426.10000002384186","","image-keyboard-response","644","391642","0.0-405.0","","img/nature/S3.jpg","51","3","Ns4,train","51","true","",""
"null","","html-keyboard-response","645","391994","0.0-406.0","","<img src=""img/nature/S3.jpg"" width=""540"" height = ""360"" style=""border:14px solid orange"">","null","","","","","",""
"null","","html-keyboard-response","646","392195","0.0-407.0","","","null","","","","","",""
"453.60000002384186","","image-keyboard-response","647","392651","0.0-408.0","","img/nature/S3.jpg","52","3","Ns4,train","51","false","",""
"null","","html-keyboard-response","648","393003","0.0-409.0","","<img src=""img/nature/S3.jpg"" width=""540"" height = ""360"">","null","","","","","",""
"null","","html-keyboard-response","649","393205","0.0-410.0","","","null","","","","","",""
"361.10000002384186","","image-keyboard-response","650","393568","0.0-411.0","","img/nature/S3.jpg","51","3","Ns4,train","51","true","",""
"null","","html-keyboard-response","651","393921","0.0-412.0","","<img src=""img/nature/S3.jpg"" width=""540"" height = ""360"" style=""border:14px solid orange"">","null","","","","","",""
"null","","html-keyboard-response","652","394122","0.0-413.0","","","null","","","","","",""
"405.69999998807907","","image-keyboard-response","653","394530","0.0-414.0","","img/nature/S4.jpg","52","4","Ns4,train","52","true","",""
"null","","html-keyboard-response","654","394882","0.0-415.0","","<img src=""img/nature/S4.jpg"" width=""540"" height = ""360"" style=""border:14px solid orange"">","null","","","","","",""
"null","","html-keyboard-response","655","395083","0.0-416.0","","","null","","","","","",""
"370.19999998807907","","image-keyboard-response","656","395455","0.0-417.0","","img/nature/S3.jpg","51","3","Ns4,train","51","true","",""
"null","","html-keyboard-response","657","395807","0.0-418.0","","<img src=""img/nature/S3.jpg"" width=""540"" height = ""360"" style=""border:14px solid orange"">","null","","","","","",""
"null","","html-keyboard-response","658","396008","0.0-419.0","","","null","","","","","",""
"380.5","","image-keyboard-response","659","396391","0.0-420.0","","img/nature/S3.jpg","52","3","Ns4,train","51","false","",""
"null","","html-keyboard-response","660","396743","0.0-421.0","","<img src=""img/nature/S3.jpg"" width=""540"" height = ""360"">","null","","","","","",""
"null","","html-keyboard-response","661","396944","0.0-422.0","","","null","","","","","",""
"361.39999997615814","","image-keyboard-response","662","397307","0.0-423.0","","img/nature/S3.jpg","51","3","Ns4,train","51","true","",""
"null","","html-keyboard-response","663","397659","0.0-424.0","","<img src=""img/nature/S3.jpg"" width=""540"" height = ""360"" style=""border:14px solid orange"">","null","","","","","",""
"null","","html-keyboard-response","664","397861","0.0-425.0","","","null","","","","","",""
"1343.5999999642372","","html-keyboard-response","665","399206","0.0-426.0","","<p class=""center-content"">You have completed a block! </p><p class=""center-content"">Press any key on the keyboard to continue to the next block,</p><p class=""center-content"">or wait for the automatic progression to the next block after one minute.</p>","32","","","","","",""
"1323.300000011921","","image-keyboard-response","666","400531","0.0-427.0","","img/nature/S4.jpg","52","4","Ns4,train","52","true","",""
"null","","html-keyboard-response","667","400883","0.0-428.0","","<img src=""img/nature/S4.jpg"" width=""540"" height = ""360"" style=""border:14px solid orange"">","null","","","","","",""
"null","","html-keyboard-response","668","401084","0.0-429.0","","","null","","","","","",""
"551.6999999880791","","image-keyboard-response","669","401638","0.0-430.0","","img/nature/S3.jpg","51","3","Ns4,train","51","true","",""
"null","","html-keyboard-response","670","401990","0.0-431.0","","<img src=""img/nature/S3.jpg"" width=""540"" height = ""360"" style=""border:14px solid orange"">","null","","","","","",""
"null","","html-keyboard-response","671","402192","0.0-432.0","","","null","","","","","",""
"389.4000000357628","","image-keyboard-response","672","402583","0.0-433.0","","img/nature/S2.jpg","50","2","Ns4,train","50","true","",""
"null","","html-keyboard-response","673","402936","0.0-434.0","","<img src=""img/nature/S2.jpg"" width=""540"" height = ""360"" style=""border:14px solid orange"">","null","","","","","",""
"null","","html-keyboard-response","674","403137","0.0-435.0","","","null","","","","","",""
"615","","image-keyboard-response","675","403754","0.0-436.0","","img/nature/S2.jpg","50","2","Ns4,train","50","true","",""
"null","","html-keyboard-response","676","404107","0.0-437.0","","<img src=""img/nature/S2.jpg"" width=""540"" height = ""360"" style=""border:14px solid orange"">","null","","","","","",""
"null","","html-keyboard-response","677","404309","0.0-438.0","","","null","","","","","",""
"511.4000000357628","","image-keyboard-response","678","404822","0.0-439.0","","img/nature/S4.jpg","52","4","Ns4,train","52","true","",""
"null","","html-keyboard-response","679","405174","0.0-440.0","","<img src=""img/nature/S4.jpg"" width=""540"" height = ""360"" style=""border:14px solid orange"">","null","","","","","",""
"null","","html-keyboard-response","680","405376","0.0-441.0","","","null","","","","","",""
"429","","image-keyboard-response","681","405807","0.0-442.0","","img/nature/S1.jpg","50","1","Ns4,train","49","false","",""
"null","","html-keyboard-response","682","406159","0.0-443.0","","<img src=""img/nature/S1.jpg"" width=""540"" height = ""360"">","null","","","","","",""
"null","","html-keyboard-response","683","406360","0.0-444.0","","","null","","","","","",""
"475.80000001192093","","image-keyboard-response","684","406838","0.0-445.0","","img/nature/S1.jpg","49","1","Ns4,train","49","true","",""
"null","","html-keyboard-response","685","407190","0.0-446.0","","<img src=""img/nature/S1.jpg"" width=""540"" height = ""360"" style=""border:14px solid orange"">","null","","","","","",""
"null","","html-keyboard-response","686","407392","0.0-447.0","","","null","","","","","",""
"451.19999998807907","","image-keyboard-response","687","407845","0.0-448.0","","img/nature/S3.jpg","51","3","Ns4,train","51","true","",""
"null","","html-keyboard-response","688","408197","0.0-449.0","","<img src=""img/nature/S3.jpg"" width=""540"" height = ""360"" style=""border:14px solid orange"">","null","","","","","",""
"null","","html-keyboard-response","689","408398","0.0-450.0","","","null","","","","","",""
"497.89999997615814","","image-keyboard-response","690","408898","0.0-451.0","","img/nature/S4.jpg","52","4","Ns4,train","52","true","",""
"null","","html-keyboard-response","691","409250","0.0-452.0","","<img src=""img/nature/S4.jpg"" width=""540"" height = ""360"" style=""border:14px solid orange"">","null","","","","","",""
"null","","html-keyboard-response","692","409451","0.0-453.0","","","null","","","","","",""
"469.69999998807907","","image-keyboard-response","693","409923","0.0-454.0","","img/nature/S1.jpg","49","1","Ns4,train","49","true","",""
"null","","html-keyboard-response","694","410275","0.0-455.0","","<img src=""img/nature/S1.jpg"" width=""540"" height = ""360"" style=""border:14px solid orange"">","null","","","","","",""
"null","","html-keyboard-response","695","410477","0.0-456.0","","","null","","","","","",""
"338.9000000357628","","image-keyboard-response","696","410817","0.0-457.0","","img/nature/S2.jpg","50","2","Ns4,train","50","true","",""
"null","","html-keyboard-response","697","411170","0.0-458.0","","<img src=""img/nature/S2.jpg"" width=""540"" height = ""360"" style=""border:14px solid orange"">","null","","","","","",""
"null","","html-keyboard-response","698","411371","0.0-459.0","","","null","","","","","",""
"573.2999999523163","","image-keyboard-response","699","411946","0.0-460.0","","img/nature/S3.jpg","51","3","Ns4,train","51","true","",""
"null","","html-keyboard-response","700","412299","0.0-461.0","","<img src=""img/nature/S3.jpg"" width=""540"" height = ""360"" style=""border:14px solid orange"">","null","","","","","",""
"null","","html-keyboard-response","701","412500","0.0-462.0","","","null","","","","","",""
