"rt","url","trial_type","trial_index","time_elapsed","internal_node_id","view_history","stimulus","key_press","state","test_part","correct_response","correct","bonus","responses"
"4673.899999976158","consent.html","external-html","0","4774","0.0-0.0","","","","","","","","",""
"852265.3000000119","","instructions","1","857042","0.0-1.0","[{""page_index"":0,""viewing_time"":1617.7000000476837},{""page_index"":1,""viewing_time"":842},{""page_index"":2,""viewing_time"":449.69999998807907},{""page_index"":3,""viewing_time"":825413.3999999762},{""page_index"":4,""viewing_time"":5030},{""page_index"":5,""viewing_time"":14582},{""page_index"":6,""viewing_time"":2150},{""page_index"":7,""viewing_time"":2179.900000035763}]","","","","","","","",""
"1810.300000011921","","image-keyboard-response","2","858854","0.0-2.0","","img/nature/S2.jpg","50","2","Ns4,train","50","true","",""
"null","","html-keyboard-response","3","859217","0.0-3.0","","<img src=""img/nature/S2.jpg"" width=""540"" height = ""360"" style=""border:14px solid orange"">","null","","","","","",""
"null","","html-keyboard-response","4","859423","0.0-4.0","","","null","","","","","",""
"861.1999999880791","","image-keyboard-response","5","860286","0.0-5.0","","img/nature/S1.jpg","49","1","Ns4,train","49","true","",""
"null","","html-keyboard-response","6","860643","0.0-6.0","","<img src=""img/nature/S1.jpg"" width=""540"" height = ""360"" style=""border:14px solid orange"">","null","","","","","",""
"null","","html-keyboard-response","7","860848","0.0-7.0","","","null","","","","","",""
"581.0999999642372","","image-keyboard-response","8","861430","0.0-8.0","","img/nature/S2.jpg","50","2","Ns4,train","50","true","",""
"null","","html-keyboard-response","9","861785","0.0-9.0","","<img src=""img/nature/S2.jpg"" width=""540"" height = ""360"" style=""border:14px solid orange"">","null","","","","","",""
"null","","html-keyboard-response","10","861990","0.0-10.0","","","null","","","","","",""
"510.30000001192093","","image-keyboard-response","11","862501","0.0-11.0","","img/nature/S1.jpg","49","1","Ns4,train","49","true","",""
"null","","html-keyboard-response","12","862863","0.0-12.0","","<img src=""img/nature/S1.jpg"" width=""540"" height = ""360"" style=""border:14px solid orange"">","null","","","","","",""
"null","","html-keyboard-response","13","863068","0.0-13.0","","","null","","","","","",""
"680.5","","image-keyboard-response","14","863750","0.0-14.0","","img/nature/S3.jpg","51","3","Ns4,train","51","true","",""
"null","","html-keyboard-response","15","864107","0.0-15.0","","<img src=""img/nature/S3.jpg"" width=""540"" height = ""360"" style=""border:14px solid orange"">","null","","","","","",""
"null","","html-keyboard-response","16","864313","0.0-16.0","","","null","","","","","",""
"460.2000000476837","","image-keyboard-response","17","864773","0.0-17.0","","img/nature/S3.jpg","51","3","Ns4,train","51","true","",""
"null","","html-keyboard-response","18","865137","0.0-18.0","","<img src=""img/nature/S3.jpg"" width=""540"" height = ""360"" style=""border:14px solid orange"">","null","","","","","",""
"null","","html-keyboard-response","19","865343","0.0-19.0","","","null","","","","","",""
"701.8999999761581","","image-keyboard-response","20","866045","0.0-20.0","","img/nature/S2.jpg","50","2","Ns4,train","50","true","",""
"null","","html-keyboard-response","21","866405","0.0-21.0","","<img src=""img/nature/S2.jpg"" width=""540"" height = ""360"" style=""border:14px solid orange"">","null","","","","","",""
"null","","html-keyboard-response","22","866608","0.0-22.0","","","null","","","","","",""
"500.39999997615814","","image-keyboard-response","23","867109","0.0-23.0","","img/nature/S1.jpg","49","1","Ns4,train","49","true","",""
"null","","html-keyboard-response","24","867466","0.0-24.0","","<img src=""img/nature/S1.jpg"" width=""540"" height = ""360"" style=""border:14px solid orange"">","null","","","","","",""
"null","","html-keyboard-response","25","867672","0.0-25.0","","","null","","","","","",""
"509.30000001192093","","image-keyboard-response","26","868181","0.0-26.0","","img/nature/S2.jpg","50","2","Ns4,train","50","true","",""
"null","","html-keyboard-response","27","868543","0.0-27.0","","<img src=""img/nature/S2.jpg"" width=""540"" height = ""360"" style=""border:14px solid orange"">","null","","","","","",""
"null","","html-keyboard-response","28","868749","0.0-28.0","","","null","","","","","",""
"632","","image-keyboard-response","29","869381","0.0-29.0","","img/nature/S1.jpg","49","1","Ns4,train","49","true","",""
"null","","html-keyboard-response","30","869745","0.0-30.0","","<img src=""img/nature/S1.jpg"" width=""540"" height = ""360"" style=""border:14px solid orange"">","null","","","","","",""
"null","","html-keyboard-response","31","869950","0.0-31.0","","","null","","","","","",""
"622.8000000119209","","image-keyboard-response","32","870573","0.0-32.0","","img/nature/S4.jpg","52","4","Ns4,train","52","true","",""
"null","","html-keyboard-response","33","870934","0.0-33.0","","<img src=""img/nature/S4.jpg"" width=""540"" height = ""360"" style=""border:14px solid orange"">","null","","","","","",""
"null","","html-keyboard-response","34","871140","0.0-34.0","","","null","","","","","",""
"457","","image-keyboard-response","35","871597","0.0-35.0","","img/nature/S4.jpg","52","4","Ns4,train","52","true","",""
"null","","html-keyboard-response","36","871964","0.0-36.0","","<img src=""img/nature/S4.jpg"" width=""540"" height = ""360"" style=""border:14px solid orange"">","null","","","","","",""
"null","","html-keyboard-response","37","872169","0.0-37.0","","","null","","","","","",""
"531.5","","image-keyboard-response","38","872701","0.0-38.0","","img/nature/S2.jpg","50","2","Ns4,train","50","true","",""
"null","","html-keyboard-response","39","873057","0.0-39.0","","<img src=""img/nature/S2.jpg"" width=""540"" height = ""360"" style=""border:14px solid orange"">","null","","","","","",""
"null","","html-keyboard-response","40","873261","0.0-40.0","","","null","","","","","",""
"687.5","","image-keyboard-response","41","873950","0.0-41.0","","img/nature/S1.jpg","49","1","Ns4,train","49","true","",""
"null","","html-keyboard-response","42","874306","0.0-42.0","","<img src=""img/nature/S1.jpg"" width=""540"" height = ""360"" style=""border:14px solid orange"">","null","","","","","",""
"null","","html-keyboard-response","43","874510","0.0-43.0","","","null","","","","","",""
"510.60000002384186","","image-keyboard-response","44","875021","0.0-44.0","","img/nature/S2.jpg","50","2","Ns4,train","50","true","",""
"null","","html-keyboard-response","45","875385","0.0-45.0","","<img src=""img/nature/S2.jpg"" width=""540"" height = ""360"" style=""border:14px solid orange"">","null","","","","","",""
"null","","html-keyboard-response","46","875586","0.0-46.0","","","null","","","","","",""
"666.4000000357628","","image-keyboard-response","47","876253","0.0-47.0","","img/nature/S1.jpg","49","1","Ns4,train","49","true","",""
"null","","html-keyboard-response","48","876618","0.0-48.0","","<img src=""img/nature/S1.jpg"" width=""540"" height = ""360"" style=""border:14px solid orange"">","null","","","","","",""
"null","","html-keyboard-response","49","876822","0.0-49.0","","","null","","","","","",""
"599.0999999642372","","image-keyboard-response","50","877421","0.0-50.0","","img/nature/S3.jpg","51","3","Ns4,train","51","true","",""
"null","","html-keyboard-response","51","877774","0.0-51.0","","<img src=""img/nature/S3.jpg"" width=""540"" height = ""360"" style=""border:14px solid orange"">","null","","","","","",""
"null","","html-keyboard-response","52","877980","0.0-52.0","","","null","","","","","",""
"537.0999999642372","","image-keyboard-response","53","878518","0.0-53.0","","img/nature/S4.jpg","52","4","Ns4,train","52","true","",""
"null","","html-keyboard-response","54","878869","0.0-54.0","","<img src=""img/nature/S4.jpg"" width=""540"" height = ""360"" style=""border:14px solid orange"">","null","","","","","",""
"null","","html-keyboard-response","55","879075","0.0-55.0","","","null","","","","","",""
"442.19999998807907","","image-keyboard-response","56","879517","0.0-56.0","","img/nature/S4.jpg","52","4","Ns4,train","52","true","",""
"null","","html-keyboard-response","57","879872","0.0-57.0","","<img src=""img/nature/S4.jpg"" width=""540"" height = ""360"" style=""border:14px solid orange"">","null","","","","","",""
"null","","html-keyboard-response","58","880077","0.0-58.0","","","null","","","","","",""
"391.80000001192093","","image-keyboard-response","59","880470","0.0-59.0","","img/nature/S4.jpg","52","4","Ns4,train","52","true","",""
"null","","html-keyboard-response","60","880823","0.0-60.0","","<img src=""img/nature/S4.jpg"" width=""540"" height = ""360"" style=""border:14px solid orange"">","null","","","","","",""
"null","","html-keyboard-response","61","881028","0.0-61.0","","","null","","","","","",""
"624.3000000119209","","image-keyboard-response","62","881653","0.0-62.0","","img/nature/S3.jpg","51","3","Ns4,train","51","true","",""
"null","","html-keyboard-response","63","882005","0.0-63.0","","<img src=""img/nature/S3.jpg"" width=""540"" height = ""360"" style=""border:14px solid orange"">","null","","","","","",""
"null","","html-keyboard-response","64","882211","0.0-64.0","","","null","","","","","",""
"537.5","","image-keyboard-response","65","882749","0.0-65.0","","img/nature/S2.jpg","50","2","Ns4,train","50","true","",""
"null","","html-keyboard-response","66","883112","0.0-66.0","","<img src=""img/nature/S2.jpg"" width=""540"" height = ""360"" style=""border:14px solid orange"">","null","","","","","",""
"null","","html-keyboard-response","67","883317","0.0-67.0","","","null","","","","","",""
"583.5","","image-keyboard-response","68","883901","0.0-68.0","","img/nature/S1.jpg","49","1","Ns4,train","49","true","",""
"null","","html-keyboard-response","69","884268","0.0-69.0","","<img src=""img/nature/S1.jpg"" width=""540"" height = ""360"" style=""border:14px solid orange"">","null","","","","","",""
"null","","html-keyboard-response","70","884471","0.0-70.0","","","null","","","","","",""
"653.6999999880791","","image-keyboard-response","71","885126","0.0-71.0","","img/nature/S4.jpg","52","4","Ns4,train","52","true","",""
"null","","html-keyboard-response","72","885485","0.0-72.0","","<img src=""img/nature/S4.jpg"" width=""540"" height = ""360"" style=""border:14px solid orange"">","null","","","","","",""
"null","","html-keyboard-response","73","885691","0.0-73.0","","","null","","","","","",""
"570.3000000119209","","image-keyboard-response","74","886261","0.0-74.0","","img/nature/S3.jpg","51","3","Ns4,train","51","true","",""
"null","","html-keyboard-response","75","886613","0.0-75.0","","<img src=""img/nature/S3.jpg"" width=""540"" height = ""360"" style=""border:14px solid orange"">","null","","","","","",""
"null","","html-keyboard-response","76","886820","0.0-76.0","","","null","","","","","",""
"816.3000000119209","","image-keyboard-response","77","887637","0.0-77.0","","img/nature/S4.jpg","52","4","Ns4,train","52","true","",""
"null","","html-keyboard-response","78","887993","0.0-78.0","","<img src=""img/nature/S4.jpg"" width=""540"" height = ""360"" style=""border:14px solid orange"">","null","","","","","",""
"null","","html-keyboard-response","79","888197","0.0-79.0","","","null","","","","","",""
"1184.199999988079","","image-keyboard-response","80","889382","0.0-80.0","","img/nature/S3.jpg","51","3","Ns4,train","51","true","",""
"null","","html-keyboard-response","81","889747","0.0-81.0","","<img src=""img/nature/S3.jpg"" width=""540"" height = ""360"" style=""border:14px solid orange"">","null","","","","","",""
"null","","html-keyboard-response","82","889952","0.0-82.0","","","null","","","","","",""
"453","","image-keyboard-response","83","890406","0.0-83.0","","img/nature/S3.jpg","51","3","Ns4,train","51","true","",""
"null","","html-keyboard-response","84","890771","0.0-84.0","","<img src=""img/nature/S3.jpg"" width=""540"" height = ""360"" style=""border:14px solid orange"">","null","","","","","",""
"null","","html-keyboard-response","85","890977","0.0-85.0","","","null","","","","","",""
"892.1999999880791","","image-keyboard-response","86","891870","0.0-86.0","","img/nature/S4.jpg","52","4","Ns4,train","52","true","",""
"null","","html-keyboard-response","87","892231","0.0-87.0","","<img src=""img/nature/S4.jpg"" width=""540"" height = ""360"" style=""border:14px solid orange"">","null","","","","","",""
"null","","html-keyboard-response","88","892436","0.0-88.0","","","null","","","","","",""
"1033.0999999642372","","image-keyboard-response","89","893470","0.0-89.0","","img/nature/S3.jpg","51","3","Ns4,train","51","true","",""
"null","","html-keyboard-response","90","893828","0.0-90.0","","<img src=""img/nature/S3.jpg"" width=""540"" height = ""360"" style=""border:14px solid orange"">","null","","","","","",""
"null","","html-keyboard-response","91","894033","0.0-91.0","","","null","","","","","",""
"428.30000001192093","","image-keyboard-response","92","894462","0.0-92.0","","img/nature/S3.jpg","51","3","Ns4,train","51","true","",""
"null","","html-keyboard-response","93","894824","0.0-93.0","","<img src=""img/nature/S3.jpg"" width=""540"" height = ""360"" style=""border:14px solid orange"">","null","","","","","",""
"null","","html-keyboard-response","94","895029","0.0-94.0","","","null","","","","","",""
"544.1999999880791","","image-keyboard-response","95","895574","0.0-95.0","","img/nature/S2.jpg","50","2","Ns4,train","50","true","",""
"null","","html-keyboard-response","96","895932","0.0-96.0","","<img src=""img/nature/S2.jpg"" width=""540"" height = ""360"" style=""border:14px solid orange"">","null","","","","","",""
"null","","html-keyboard-response","97","896137","0.0-97.0","","","null","","","","","",""
"516.0999999642372","","image-keyboard-response","98","896654","0.0-98.0","","img/nature/S1.jpg","49","1","Ns4,train","49","true","",""
"null","","html-keyboard-response","99","897008","0.0-99.0","","<img src=""img/nature/S1.jpg"" width=""540"" height = ""360"" style=""border:14px solid orange"">","null","","","","","",""
"null","","html-keyboard-response","100","897213","0.0-100.0","","","null","","","","","",""
"591.8000000119209","","image-keyboard-response","101","897806","0.0-101.0","","img/nature/S3.jpg","51","3","Ns4,train","51","true","",""
"null","","html-keyboard-response","102","898167","0.0-102.0","","<img src=""img/nature/S3.jpg"" width=""540"" height = ""360"" style=""border:14px solid orange"">","null","","","","","",""
"null","","html-keyboard-response","103","898367","0.0-103.0","","","null","","","","","",""
"718","","image-keyboard-response","104","899086","0.0-104.0","","img/nature/S4.jpg","52","4","Ns4,train","52","true","",""
"null","","html-keyboard-response","105","899439","0.0-105.0","","<img src=""img/nature/S4.jpg"" width=""540"" height = ""360"" style=""border:14px solid orange"">","null","","","","","",""
"null","","html-keyboard-response","106","899645","0.0-106.0","","","null","","","","","",""
"1039.8999999761581","","image-keyboard-response","107","900686","0.0-107.0","","img/nature/S2.jpg","50","2","Ns4,train","50","true","",""
"null","","html-keyboard-response","108","901039","0.0-108.0","","<img src=""img/nature/S2.jpg"" width=""540"" height = ""360"" style=""border:14px solid orange"">","null","","","","","",""
"null","","html-keyboard-response","109","901244","0.0-109.0","","","null","","","","","",""
"577.5","","image-keyboard-response","110","901822","0.0-110.0","","img/nature/S1.jpg","49","1","Ns4,train","49","true","",""
"null","","html-keyboard-response","111","902183","0.0-111.0","","<img src=""img/nature/S1.jpg"" width=""540"" height = ""360"" style=""border:14px solid orange"">","null","","","","","",""
"null","","html-keyboard-response","112","902389","0.0-112.0","","","null","","","","","",""
"727.8999999761581","","image-keyboard-response","113","903118","0.0-113.0","","img/nature/S2.jpg","50","2","Ns4,train","50","true","",""
"null","","html-keyboard-response","114","903481","0.0-114.0","","<img src=""img/nature/S2.jpg"" width=""540"" height = ""360"" style=""border:14px solid orange"">","null","","","","","",""
"null","","html-keyboard-response","115","903686","0.0-115.0","","","null","","","","","",""
"702.5999999642372","","image-keyboard-response","116","904390","0.0-116.0","","img/nature/S1.jpg","49","1","Ns4,train","49","true","",""
"null","","html-keyboard-response","117","904743","0.0-117.0","","<img src=""img/nature/S1.jpg"" width=""540"" height = ""360"" style=""border:14px solid orange"">","null","","","","","",""
"null","","html-keyboard-response","118","904949","0.0-118.0","","","null","","","","","",""
"600","","image-keyboard-response","119","905550","0.0-119.0","","img/nature/S3.jpg","51","3","Ns4,train","51","true","",""
"null","","html-keyboard-response","120","905904","0.0-120.0","","<img src=""img/nature/S3.jpg"" width=""540"" height = ""360"" style=""border:14px solid orange"">","null","","","","","",""
"null","","html-keyboard-response","121","906111","0.0-121.0","","","null","","","","","",""
"534","","image-keyboard-response","122","906646","0.0-122.0","","img/nature/S4.jpg","52","4","Ns4,train","52","true","",""
"null","","html-keyboard-response","123","907011","0.0-123.0","","<img src=""img/nature/S4.jpg"" width=""540"" height = ""360"" style=""border:14px solid orange"">","null","","","","","",""
"null","","html-keyboard-response","124","907217","0.0-124.0","","","null","","","","","",""
"539.8999999761581","","image-keyboard-response","125","907758","0.0-125.0","","img/nature/S2.jpg","50","2","Ns4,train","50","true","",""
"null","","html-keyboard-response","126","908117","0.0-126.0","","<img src=""img/nature/S2.jpg"" width=""540"" height = ""360"" style=""border:14px solid orange"">","null","","","","","",""
"null","","html-keyboard-response","127","908322","0.0-127.0","","","null","","","","","",""
"595.3000000119209","","image-keyboard-response","128","908918","0.0-128.0","","img/nature/S1.jpg","49","1","Ns4,train","49","true","",""
"null","","html-keyboard-response","129","909272","0.0-129.0","","<img src=""img/nature/S1.jpg"" width=""540"" height = ""360"" style=""border:14px solid orange"">","null","","","","","",""
"null","","html-keyboard-response","130","909477","0.0-130.0","","","null","","","","","",""
"576.3999999761581","","image-keyboard-response","131","910054","0.0-131.0","","img/nature/S3.jpg","51","3","Ns4,train","51","true","",""
"null","","html-keyboard-response","132","910413","0.0-132.0","","<img src=""img/nature/S3.jpg"" width=""540"" height = ""360"" style=""border:14px solid orange"">","null","","","","","",""
"null","","html-keyboard-response","133","910616","0.0-133.0","","","null","","","","","",""
"621.3999999761581","","image-keyboard-response","134","911238","0.0-134.0","","img/nature/S4.jpg","52","4","Ns4,train","52","true","",""
"null","","html-keyboard-response","135","911599","0.0-135.0","","<img src=""img/nature/S4.jpg"" width=""540"" height = ""360"" style=""border:14px solid orange"">","null","","","","","",""
"null","","html-keyboard-response","136","911804","0.0-136.0","","","null","","","","","",""
"368.69999998807907","","image-keyboard-response","137","912174","0.0-137.0","","img/nature/S4.jpg","52","4","Ns4,train","52","true","",""
"null","","html-keyboard-response","138","912531","0.0-138.0","","<img src=""img/nature/S4.jpg"" width=""540"" height = ""360"" style=""border:14px solid orange"">","null","","","","","",""
"null","","html-keyboard-response","139","912738","0.0-139.0","","","null","","","","","",""
"619.0999999642372","","image-keyboard-response","140","913358","0.0-140.0","","img/nature/S2.jpg","50","2","Ns4,train","50","true","",""
"null","","html-keyboard-response","141","913709","0.0-141.0","","<img src=""img/nature/S2.jpg"" width=""540"" height = ""360"" style=""border:14px solid orange"">","null","","","","","",""
"null","","html-keyboard-response","142","913916","0.0-142.0","","","null","","","","","",""
"641.4000000357628","","image-keyboard-response","143","914558","0.0-143.0","","img/nature/S1.jpg","49","1","Ns4,train","49","true","",""
"null","","html-keyboard-response","144","914914","0.0-144.0","","<img src=""img/nature/S1.jpg"" width=""540"" height = ""360"" style=""border:14px solid orange"">","null","","","","","",""
"null","","html-keyboard-response","145","915117","0.0-145.0","","","null","","","","","",""
"543.5","","image-keyboard-response","146","915662","0.0-146.0","","img/nature/S3.jpg","51","3","Ns4,train","51","true","",""
"null","","html-keyboard-response","147","916015","0.0-147.0","","<img src=""img/nature/S3.jpg"" width=""540"" height = ""360"" style=""border:14px solid orange"">","null","","","","","",""
"null","","html-keyboard-response","148","916222","0.0-148.0","","","null","","","","","",""
"415.30000001192093","","image-keyboard-response","149","916638","0.0-149.0","","img/nature/S3.jpg","51","3","Ns4,train","51","true","",""
"null","","html-keyboard-response","150","916996","0.0-150.0","","<img src=""img/nature/S3.jpg"" width=""540"" height = ""360"" style=""border:14px solid orange"">","null","","","","","",""
"null","","html-keyboard-response","151","917201","0.0-151.0","","","null","","","","","",""
"348.10000002384186","","image-keyboard-response","152","917550","0.0-152.0","","img/nature/S3.jpg","51","3","Ns4,train","51","true","",""
"null","","html-keyboard-response","153","917912","0.0-153.0","","<img src=""img/nature/S3.jpg"" width=""540"" height = ""360"" style=""border:14px solid orange"">","null","","","","","",""
"null","","html-keyboard-response","154","918118","0.0-154.0","","","null","","","","","",""
"535.5","","image-keyboard-response","155","918654","0.0-155.0","","img/nature/S4.jpg","52","4","Ns4,train","52","true","",""
"null","","html-keyboard-response","156","919019","0.0-156.0","","<img src=""img/nature/S4.jpg"" width=""540"" height = ""360"" style=""border:14px solid orange"">","null","","","","","",""
"null","","html-keyboard-response","157","919224","0.0-157.0","","","null","","","","","",""
"357.30000001192093","","image-keyboard-response","158","919582","0.0-158.0","","img/nature/S4.jpg","52","4","Ns4,train","52","true","",""
"null","","html-keyboard-response","159","919936","0.0-159.0","","<img src=""img/nature/S4.jpg"" width=""540"" height = ""360"" style=""border:14px solid orange"">","null","","","","","",""
"null","","html-keyboard-response","160","920140","0.0-160.0","","","null","","","","","",""
"553.1999999880791","","image-keyboard-response","161","920694","0.0-161.0","","img/nature/S3.jpg","51","3","Ns4,train","51","true","",""
"null","","html-keyboard-response","162","921056","0.0-162.0","","<img src=""img/nature/S3.jpg"" width=""540"" height = ""360"" style=""border:14px solid orange"">","null","","","","","",""
"null","","html-keyboard-response","163","921262","0.0-163.0","","","null","","","","","",""
"607.3000000119209","","image-keyboard-response","164","921870","0.0-164.0","","img/nature/S2.jpg","50","2","Ns4,train","50","true","",""
"null","","html-keyboard-response","165","922230","0.0-165.0","","<img src=""img/nature/S2.jpg"" width=""540"" height = ""360"" style=""border:14px solid orange"">","null","","","","","",""
"null","","html-keyboard-response","166","922437","0.0-166.0","","","null","","","","","",""
"552.3000000119209","","image-keyboard-response","167","922990","0.0-167.0","","img/nature/S1.jpg","49","1","Ns4,train","49","true","",""
"null","","html-keyboard-response","168","923341","0.0-168.0","","<img src=""img/nature/S1.jpg"" width=""540"" height = ""360"" style=""border:14px solid orange"">","null","","","","","",""
"null","","html-keyboard-response","169","923546","0.0-169.0","","","null","","","","","",""
"475.30000001192093","","image-keyboard-response","170","924022","0.0-170.0","","img/nature/S3.jpg","50","3","Ns4,train","51","false","",""
"null","","html-keyboard-response","171","924387","0.0-171.0","","<img src=""img/nature/S3.jpg"" width=""540"" height = ""360"">","null","","","","","",""
"null","","html-keyboard-response","172","924592","0.0-172.0","","","null","","","","","",""
"589.1999999880791","","image-keyboard-response","173","925182","0.0-173.0","","img/nature/S4.jpg","52","4","Ns4,train","52","true","",""
"null","","html-keyboard-response","174","925542","0.0-174.0","","<img src=""img/nature/S4.jpg"" width=""540"" height = ""360"" style=""border:14px solid orange"">","null","","","","","",""
"null","","html-keyboard-response","175","925748","0.0-175.0","","","null","","","","","",""
"569.1999999880791","","image-keyboard-response","176","926318","0.0-176.0","","img/nature/S3.jpg","51","3","Ns4,train","51","true","",""
"null","","html-keyboard-response","177","926681","0.0-177.0","","<img src=""img/nature/S3.jpg"" width=""540"" height = ""360"" style=""border:14px solid orange"">","null","","","","","",""
"null","","html-keyboard-response","178","926889","0.0-178.0","","","null","","","","","",""
"676.6000000238419","","image-keyboard-response","179","927566","0.0-179.0","","img/nature/S2.jpg","50","2","Ns4,train","50","true","",""
"null","","html-keyboard-response","180","927918","0.0-180.0","","<img src=""img/nature/S2.jpg"" width=""540"" height = ""360"" style=""border:14px solid orange"">","null","","","","","",""
"null","","html-keyboard-response","181","928123","0.0-181.0","","","null","","","","","",""
"577.5","","image-keyboard-response","182","928702","0.0-182.0","","img/nature/S1.jpg","49","1","Ns4,train","49","true","",""
"null","","html-keyboard-response","183","929067","0.0-183.0","","<img src=""img/nature/S1.jpg"" width=""540"" height = ""360"" style=""border:14px solid orange"">","null","","","","","",""
"null","","html-keyboard-response","184","929272","0.0-184.0","","","null","","","","","",""
"532.5","","image-keyboard-response","185","929806","0.0-185.0","","img/nature/S3.jpg","51","3","Ns4,train","51","true","",""
"null","","html-keyboard-response","186","930159","0.0-186.0","","<img src=""img/nature/S3.jpg"" width=""540"" height = ""360"" style=""border:14px solid orange"">","null","","","","","",""
"null","","html-keyboard-response","187","930364","0.0-187.0","","","null","","","","","",""
"545.3000000119209","","image-keyboard-response","188","930910","0.0-188.0","","img/nature/S3.jpg","51","3","Ns4,train","51","true","",""
"null","","html-keyboard-response","189","931267","0.0-189.0","","<img src=""img/nature/S3.jpg"" width=""540"" height = ""360"" style=""border:14px solid orange"">","null","","","","","",""
"null","","html-keyboard-response","190","931470","0.0-190.0","","","null","","","","","",""
"535.4000000357628","","image-keyboard-response","191","932006","0.0-191.0","","img/nature/S4.jpg","52","4","Ns4,train","52","true","",""
"null","","html-keyboard-response","192","932358","0.0-192.0","","<img src=""img/nature/S4.jpg"" width=""540"" height = ""360"" style=""border:14px solid orange"">","null","","","","","",""
"null","","html-keyboard-response","193","932563","0.0-193.0","","","null","","","","","",""
"633.8000000119209","","image-keyboard-response","194","933198","0.0-194.0","","img/nature/S2.jpg","50","2","Ns4,train","50","true","",""
"null","","html-keyboard-response","195","933551","0.0-195.0","","<img src=""img/nature/S2.jpg"" width=""540"" height = ""360"" style=""border:14px solid orange"">","null","","","","","",""
"null","","html-keyboard-response","196","933757","0.0-196.0","","","null","","","","","",""
"704.3000000119209","","image-keyboard-response","197","934462","0.0-197.0","","img/nature/S1.jpg","49","1","Ns4,train","49","true","",""
"null","","html-keyboard-response","198","934820","0.0-198.0","","<img src=""img/nature/S1.jpg"" width=""540"" height = ""360"" style=""border:14px solid orange"">","null","","","","","",""
"null","","html-keyboard-response","199","935023","0.0-199.0","","","null","","","","","",""
"517.6999999880791","","image-keyboard-response","200","935542","0.0-200.0","","img/nature/S2.jpg","50","2","Ns4,train","50","true","",""
"null","","html-keyboard-response","201","935896","0.0-201.0","","<img src=""img/nature/S2.jpg"" width=""540"" height = ""360"" style=""border:14px solid orange"">","null","","","","","",""
"null","","html-keyboard-response","202","936099","0.0-202.0","","","null","","","","","",""
"729.6000000238419","","image-keyboard-response","203","936830","0.0-203.0","","img/nature/S1.jpg","49","1","Ns4,train","49","true","",""
"null","","html-keyboard-response","204","937196","0.0-204.0","","<img src=""img/nature/S1.jpg"" width=""540"" height = ""360"" style=""border:14px solid orange"">","null","","","","","",""
"null","","html-keyboard-response","205","937401","0.0-205.0","","","null","","","","","",""
"1380.199999988079","","image-keyboard-response","206","938782","0.0-206.0","","img/nature/S2.jpg","50","2","Ns4,train","50","true","",""
"null","","html-keyboard-response","207","939143","0.0-207.0","","<img src=""img/nature/S2.jpg"" width=""540"" height = ""360"" style=""border:14px solid orange"">","null","","","","","",""
"null","","html-keyboard-response","208","939348","0.0-208.0","","","null","","","","","",""
"608.8000000119209","","image-keyboard-response","209","939958","0.0-209.0","","img/nature/S1.jpg","49","1","Ns4,train","49","true","",""
"null","","html-keyboard-response","210","940316","0.0-210.0","","<img src=""img/nature/S1.jpg"" width=""540"" height = ""360"" style=""border:14px solid orange"">","null","","","","","",""
"null","","html-keyboard-response","211","940521","0.0-211.0","","","null","","","","","",""
"588","","image-keyboard-response","212","941110","0.0-212.0","","img/nature/S4.jpg","52","4","Ns4,train","52","true","",""
"null","","html-keyboard-response","213","941470","0.0-213.0","","<img src=""img/nature/S4.jpg"" width=""540"" height = ""360"" style=""border:14px solid orange"">","null","","","","","",""
"null","","html-keyboard-response","214","941676","0.0-214.0","","","null","","","","","",""
"545","","image-keyboard-response","215","942222","0.0-215.0","","img/nature/S4.jpg","52","4","Ns4,train","52","true","",""
"null","","html-keyboard-response","216","942581","0.0-216.0","","<img src=""img/nature/S4.jpg"" width=""540"" height = ""360"" style=""border:14px solid orange"">","null","","","","","",""
"null","","html-keyboard-response","217","942784","0.0-217.0","","","null","","","","","",""
"501.0999999642372","","image-keyboard-response","218","943286","0.0-218.0","","img/nature/S2.jpg","49","2","Ns4,train","50","false","",""
"null","","html-keyboard-response","219","943638","0.0-219.0","","<img src=""img/nature/S2.jpg"" width=""540"" height = ""360"">","null","","","","","",""
"null","","html-keyboard-response","220","943844","0.0-220.0","","","null","","","","","",""
"633","","image-keyboard-response","221","944478","0.0-221.0","","img/nature/S1.jpg","49","1","Ns4,train","49","true","",""
"null","","html-keyboard-response","222","944829","0.0-222.0","","<img src=""img/nature/S1.jpg"" width=""540"" height = ""360"" style=""border:14px solid orange"">","null","","","","","",""
"null","","html-keyboard-response","223","945036","0.0-223.0","","","null","","","","","",""
"489.19999998807907","","image-keyboard-response","224","945526","0.0-224.0","","img/nature/S4.jpg","52","4","Ns4,train","52","true","",""
"null","","html-keyboard-response","225","945887","0.0-225.0","","<img src=""img/nature/S4.jpg"" width=""540"" height = ""360"" style=""border:14px solid orange"">","null","","","","","",""
"null","","html-keyboard-response","226","946092","0.0-226.0","","","null","","","","","",""
"609","","image-keyboard-response","227","946702","0.0-227.0","","img/nature/S2.jpg","50","2","Ns4,train","50","true","",""
"null","","html-keyboard-response","228","947056","0.0-228.0","","<img src=""img/nature/S2.jpg"" width=""540"" height = ""360"" style=""border:14px solid orange"">","null","","","","","",""
"null","","html-keyboard-response","229","947261","0.0-229.0","","","null","","","","","",""
"632.1999999880791","","image-keyboard-response","230","947894","0.0-230.0","","img/nature/S1.jpg","49","1","Ns4,train","49","true","",""
"null","","html-keyboard-response","231","948258","0.0-231.0","","<img src=""img/nature/S1.jpg"" width=""540"" height = ""360"" style=""border:14px solid orange"">","null","","","","","",""
"null","","html-keyboard-response","232","948463","0.0-232.0","","","null","","","","","",""
"534.3000000119209","","image-keyboard-response","233","948998","0.0-233.0","","img/nature/S4.jpg","52","4","Ns4,train","52","true","",""
"null","","html-keyboard-response","234","949363","0.0-234.0","","<img src=""img/nature/S4.jpg"" width=""540"" height = ""360"" style=""border:14px solid orange"">","null","","","","","",""
"null","","html-keyboard-response","235","949569","0.0-235.0","","","null","","","","","",""
"828.1000000238419","","image-keyboard-response","236","950398","0.0-236.0","","img/nature/S2.jpg","50","2","Ns4,train","50","true","",""
"null","","html-keyboard-response","237","950763","0.0-237.0","","<img src=""img/nature/S2.jpg"" width=""540"" height = ""360"" style=""border:14px solid orange"">","null","","","","","",""
"null","","html-keyboard-response","238","950969","0.0-238.0","","","null","","","","","",""
"892.1000000238419","","image-keyboard-response","239","951862","0.0-239.0","","img/nature/S1.jpg","49","1","Ns4,train","49","true","",""
"null","","html-keyboard-response","240","952224","0.0-240.0","","<img src=""img/nature/S1.jpg"" width=""540"" height = ""360"" style=""border:14px solid orange"">","null","","","","","",""
"null","","html-keyboard-response","241","952427","0.0-241.0","","","null","","","","","",""
"14842.199999988079","","html-keyboard-response","242","967270","0.0-242.0","","<p class=""center-content"">You have completed a block! </p><p class=""center-content"">Press any key on the keyboard to continue to the next block,</p><p class=""center-content"">or wait for the automatic progression to the next block after one minute.</p>","32","","","","","",""
"1271.199999988079","","image-keyboard-response","243","968542","0.0-243.0","","img/nature/S4.jpg","52","4","Ns4,perform","52","true","",""
"null","","html-keyboard-response","244","968908","0.0-244.0","","<img src=""img/nature/S4.jpg"" width=""540"" height = ""360"" style=""border:14px solid orange"">","null","","","","","",""
"null","","html-keyboard-response","245","969111","0.0-245.0","","","null","","","","","",""
"413.7999999523163","","image-keyboard-response","246","969526","0.0-246.0","","img/nature/S4.jpg","52","4","Ns4,perform","52","true","",""
"null","","html-keyboard-response","247","969891","0.0-247.0","","<img src=""img/nature/S4.jpg"" width=""540"" height = ""360"" style=""border:14px solid orange"">","null","","","","","",""
"null","","html-keyboard-response","248","970096","0.0-248.0","","","null","","","","","",""
"669.0999999642372","","image-keyboard-response","249","970766","0.0-249.0","","img/nature/S3.jpg","51","3","Ns4,perform","51","true","",""
"null","","html-keyboard-response","250","971128","0.0-250.0","","<img src=""img/nature/S3.jpg"" width=""540"" height = ""360"" style=""border:14px solid orange"">","null","","","","","",""
"null","","html-keyboard-response","251","971333","0.0-251.0","","","null","","","","","",""
"464","","image-keyboard-response","252","971798","0.0-252.0","","img/nature/S3.jpg","51","3","Ns4,perform","51","true","",""
"null","","html-keyboard-response","253","972156","0.0-253.0","","<img src=""img/nature/S3.jpg"" width=""540"" height = ""360"" style=""border:14px solid orange"">","null","","","","","",""
"null","","html-keyboard-response","254","972359","0.0-254.0","","","null","","","","","",""
"981.6000000238419","","image-keyboard-response","255","973342","0.0-255.0","","img/nature/S2.jpg","50","2","Ns4,perform","50","true","",""
"null","","html-keyboard-response","256","973696","0.0-256.0","","<img src=""img/nature/S2.jpg"" width=""540"" height = ""360"" style=""border:14px solid orange"">","null","","","","","",""
"null","","html-keyboard-response","257","973900","0.0-257.0","","","null","","","","","",""
"673","","image-keyboard-response","258","974574","0.0-258.0","","img/nature/S1.jpg","49","1","Ns4,perform","49","true","",""
"null","","html-keyboard-response","259","974931","0.0-259.0","","<img src=""img/nature/S1.jpg"" width=""540"" height = ""360"" style=""border:14px solid orange"">","null","","","","","",""
"null","","html-keyboard-response","260","975136","0.0-260.0","","","null","","","","","",""
"485.39999997615814","","image-keyboard-response","261","975622","0.0-261.0","","img/nature/S2.jpg","50","2","Ns4,perform","50","true","",""
"null","","html-keyboard-response","262","975977","0.0-262.0","","<img src=""img/nature/S2.jpg"" width=""540"" height = ""360"" style=""border:14px solid orange"">","null","","","","","",""
"null","","html-keyboard-response","263","976181","0.0-263.0","","","null","","","","","",""
"472.19999998807907","","image-keyboard-response","264","976654","0.0-264.0","","img/nature/S1.jpg","50","1","Ns4,perform","49","false","",""
"null","","html-keyboard-response","265","977019","0.0-265.0","","<img src=""img/nature/S1.jpg"" width=""540"" height = ""360"">","null","","","","","",""
"null","","html-keyboard-response","266","977224","0.0-266.0","","","null","","","","","",""
"548.7999999523163","","image-keyboard-response","267","977774","0.0-267.0","","img/nature/S2.jpg","50","2","Ns4,perform","50","true","",""
"null","","html-keyboard-response","268","978131","0.0-268.0","","<img src=""img/nature/S2.jpg"" width=""540"" height = ""360"" style=""border:14px solid orange"">","null","","","","","",""
"null","","html-keyboard-response","269","978335","0.0-269.0","","","null","","","","","",""
"589.8999999761581","","image-keyboard-response","270","978926","0.0-270.0","","img/nature/S1.jpg","49","1","Ns4,perform","49","true","",""
"null","","html-keyboard-response","271","979284","0.0-271.0","","<img src=""img/nature/S1.jpg"" width=""540"" height = ""360"" style=""border:14px solid orange"">","null","","","","","",""
"null","","html-keyboard-response","272","979488","0.0-272.0","","","null","","","","","",""
"517.1999999880791","","image-keyboard-response","273","980006","0.0-273.0","","img/nature/S4.jpg","52","4","Ns4,perform","52","true","",""
"null","","html-keyboard-response","274","980359","0.0-274.0","","<img src=""img/nature/S4.jpg"" width=""540"" height = ""360"" style=""border:14px solid orange"">","null","","","","","",""
"null","","html-keyboard-response","275","980564","0.0-275.0","","","null","","","","","",""
"544.7999999523163","","image-keyboard-response","276","981110","0.0-276.0","","img/nature/S2.jpg","50","2","Ns4,perform","50","true","",""
"null","","html-keyboard-response","277","981467","0.0-277.0","","<img src=""img/nature/S2.jpg"" width=""540"" height = ""360"" style=""border:14px solid orange"">","null","","","","","",""
"null","","html-keyboard-response","278","981670","0.0-278.0","","","null","","","","","",""
"623.1000000238419","","image-keyboard-response","279","982294","0.0-279.0","","img/nature/S1.jpg","50","1","Ns4,perform","49","false","",""
"null","","html-keyboard-response","280","982648","0.0-280.0","","<img src=""img/nature/S1.jpg"" width=""540"" height = ""360"">","null","","","","","",""
"null","","html-keyboard-response","281","982855","0.0-281.0","","","null","","","","","",""
"573.8999999761581","","image-keyboard-response","282","983430","0.0-282.0","","img/nature/S2.jpg","50","2","Ns4,perform","50","true","",""
"null","","html-keyboard-response","283","983787","0.0-283.0","","<img src=""img/nature/S2.jpg"" width=""540"" height = ""360"" style=""border:14px solid orange"">","null","","","","","",""
"null","","html-keyboard-response","284","983992","0.0-284.0","","","null","","","","","",""
"605.5999999642372","","image-keyboard-response","285","984598","0.0-285.0","","img/nature/S1.jpg","49","1","Ns4,perform","49","true","",""
"null","","html-keyboard-response","286","984959","0.0-286.0","","<img src=""img/nature/S1.jpg"" width=""540"" height = ""360"" style=""border:14px solid orange"">","null","","","","","",""
"null","","html-keyboard-response","287","985164","0.0-287.0","","","null","","","","","",""
"1192.5999999642372","","image-keyboard-response","288","986358","0.0-288.0","","img/nature/S3.jpg","51","3","Ns4,perform","51","true","",""
"null","","html-keyboard-response","289","986712","0.0-289.0","","<img src=""img/nature/S3.jpg"" width=""540"" height = ""360"" style=""border:14px solid orange"">","null","","","","","",""
"null","","html-keyboard-response","290","986920","0.0-290.0","","","null","","","","","",""
"725.1999999880791","","image-keyboard-response","291","987646","0.0-291.0","","img/nature/S3.jpg","51","3","Ns4,perform","51","true","",""
"null","","html-keyboard-response","292","988011","0.0-292.0","","<img src=""img/nature/S3.jpg"" width=""540"" height = ""360"" style=""border:14px solid orange"">","null","","","","","",""
"null","","html-keyboard-response","293","988217","0.0-293.0","","","null","","","","","",""
"499.89999997615814","","image-keyboard-response","294","988718","0.0-294.0","","img/nature/S3.jpg","51","3","Ns4,perform","51","true","",""
"null","","html-keyboard-response","295","989082","0.0-295.0","","<img src=""img/nature/S3.jpg"" width=""540"" height = ""360"" style=""border:14px solid orange"">","null","","","","","",""
"null","","html-keyboard-response","296","989287","0.0-296.0","","","null","","","","","",""
"662","","image-keyboard-response","297","989950","0.0-297.0","","img/nature/S3.jpg","51","3","Ns4,perform","51","true","",""
"null","","html-keyboard-response","298","990314","0.0-298.0","","<img src=""img/nature/S3.jpg"" width=""540"" height = ""360"" style=""border:14px solid orange"">","null","","","","","",""
"null","","html-keyboard-response","299","990520","0.0-299.0","","","null","","","","","",""
"949.1999999880791","","image-keyboard-response","300","991470","0.0-300.0","","img/nature/S2.jpg","50","2","Ns4,perform","50","true","",""
"null","","html-keyboard-response","301","991832","0.0-301.0","","<img src=""img/nature/S2.jpg"" width=""540"" height = ""360"" style=""border:14px solid orange"">","null","","","","","",""
"null","","html-keyboard-response","302","992038","0.0-302.0","","","null","","","","","",""
"1231.199999988079","","image-keyboard-response","303","993270","0.0-303.0","","img/nature/S1.jpg","49","1","Ns4,perform","49","true","",""
"null","","html-keyboard-response","304","993622","0.0-304.0","","<img src=""img/nature/S1.jpg"" width=""540"" height = ""360"" style=""border:14px solid orange"">","null","","","","","",""
"null","","html-keyboard-response","305","993827","0.0-305.0","","","null","","","","","",""
"529.7999999523163","","image-keyboard-response","306","994358","0.0-306.0","","img/nature/S3.jpg","51","3","Ns4,perform","51","true","",""
"null","","html-keyboard-response","307","994713","0.0-307.0","","<img src=""img/nature/S3.jpg"" width=""540"" height = ""360"" style=""border:14px solid orange"">","null","","","","","",""
"null","","html-keyboard-response","308","994921","0.0-308.0","","","null","","","","","",""
"492.30000001192093","","image-keyboard-response","309","995414","0.0-309.0","","img/nature/S4.jpg","52","4","Ns4,perform","52","true","",""
"null","","html-keyboard-response","310","995776","0.0-310.0","","<img src=""img/nature/S4.jpg"" width=""540"" height = ""360"" style=""border:14px solid orange"">","null","","","","","",""
"null","","html-keyboard-response","311","995981","0.0-311.0","","","null","","","","","",""
"591.8000000119209","","image-keyboard-response","312","996574","0.0-312.0","","img/nature/S2.jpg","50","2","Ns4,perform","50","true","",""
"null","","html-keyboard-response","313","996926","0.0-313.0","","<img src=""img/nature/S2.jpg"" width=""540"" height = ""360"" style=""border:14px solid orange"">","null","","","","","",""
"null","","html-keyboard-response","314","997131","0.0-314.0","","","null","","","","","",""
"666.5999999642372","","image-keyboard-response","315","997798","0.0-315.0","","img/nature/S1.jpg","49","1","Ns4,perform","49","true","",""
"null","","html-keyboard-response","316","998161","0.0-316.0","","<img src=""img/nature/S1.jpg"" width=""540"" height = ""360"" style=""border:14px solid orange"">","null","","","","","",""
"null","","html-keyboard-response","317","998365","0.0-317.0","","","null","","","","","",""
"616.5999999642372","","image-keyboard-response","318","998982","0.0-318.0","","img/nature/S2.jpg","50","2","Ns4,perform","50","true","",""
"null","","html-keyboard-response","319","999343","0.0-319.0","","<img src=""img/nature/S2.jpg"" width=""540"" height = ""360"" style=""border:14px solid orange"">","null","","","","","",""
"null","","html-keyboard-response","320","999549","0.0-320.0","","","null","","","","","",""
"728.3999999761581","","image-keyboard-response","321","1000278","0.0-321.0","","img/nature/S1.jpg","51","1","Ns4,perform","49","false","",""
"null","","html-keyboard-response","322","1000637","0.0-322.0","","<img src=""img/nature/S1.jpg"" width=""540"" height = ""360"">","null","","","","","",""
"null","","html-keyboard-response","323","1000839","0.0-323.0","","","null","","","","","",""
"677.8000000119209","","image-keyboard-response","324","1001518","0.0-324.0","","img/nature/S3.jpg","51","3","Ns4,perform","51","true","",""
"null","","html-keyboard-response","325","1001880","0.0-325.0","","<img src=""img/nature/S3.jpg"" width=""540"" height = ""360"" style=""border:14px solid orange"">","null","","","","","",""
"null","","html-keyboard-response","326","1002086","0.0-326.0","","","null","","","","","",""
"559.1999999880791","","image-keyboard-response","327","1002646","0.0-327.0","","img/nature/S2.jpg","50","2","Ns4,perform","50","true","",""
"null","","html-keyboard-response","328","1003001","0.0-328.0","","<img src=""img/nature/S2.jpg"" width=""540"" height = ""360"" style=""border:14px solid orange"">","null","","","","","",""
"null","","html-keyboard-response","329","1003207","0.0-329.0","","","null","","","","","",""
"582.2999999523163","","image-keyboard-response","330","1003790","0.0-330.0","","img/nature/S1.jpg","49","1","Ns4,perform","49","true","",""
"null","","html-keyboard-response","331","1004154","0.0-331.0","","<img src=""img/nature/S1.jpg"" width=""540"" height = ""360"" style=""border:14px solid orange"">","null","","","","","",""
"null","","html-keyboard-response","332","1004360","0.0-332.0","","","null","","","","","",""
"493.5","","image-keyboard-response","333","1004854","0.0-333.0","","img/nature/S2.jpg","51","2","Ns4,perform","50","false","",""
"null","","html-keyboard-response","334","1005215","0.0-334.0","","<img src=""img/nature/S2.jpg"" width=""540"" height = ""360"">","null","","","","","",""
"null","","html-keyboard-response","335","1005421","0.0-335.0","","","null","","","","","",""
"680.2999999523163","","image-keyboard-response","336","1006102","0.0-336.0","","img/nature/S1.jpg","50","1","Ns4,perform","49","false","",""
"null","","html-keyboard-response","337","1006462","0.0-337.0","","<img src=""img/nature/S1.jpg"" width=""540"" height = ""360"">","null","","","","","",""
"null","","html-keyboard-response","338","1006666","0.0-338.0","","","null","","","","","",""
"547.5","","image-keyboard-response","339","1007214","0.0-339.0","","img/nature/S4.jpg","52","4","Ns4,perform","52","true","",""
"null","","html-keyboard-response","340","1007571","0.0-340.0","","<img src=""img/nature/S4.jpg"" width=""540"" height = ""360"" style=""border:14px solid orange"">","null","","","","","",""
"null","","html-keyboard-response","341","1007774","0.0-341.0","","","null","","","","","",""
"630.6999999880791","","image-keyboard-response","342","1008406","0.0-342.0","","img/nature/S3.jpg","51","3","Ns4,perform","51","true","",""
"null","","html-keyboard-response","343","1008768","0.0-343.0","","<img src=""img/nature/S3.jpg"" width=""540"" height = ""360"" style=""border:14px solid orange"">","null","","","","","",""
"null","","html-keyboard-response","344","1008975","0.0-344.0","","","null","","","","","",""
"950.6000000238419","","image-keyboard-response","345","1009926","0.0-345.0","","img/nature/S2.jpg","50","2","Ns4,perform","50","true","",""
"null","","html-keyboard-response","346","1010279","0.0-346.0","","<img src=""img/nature/S2.jpg"" width=""540"" height = ""360"" style=""border:14px solid orange"">","null","","","","","",""
"null","","html-keyboard-response","347","1010485","0.0-347.0","","","null","","","","","",""
"648.5999999642372","","image-keyboard-response","348","1011134","0.0-348.0","","img/nature/S1.jpg","49","1","Ns4,perform","49","true","",""
"null","","html-keyboard-response","349","1011495","0.0-349.0","","<img src=""img/nature/S1.jpg"" width=""540"" height = ""360"" style=""border:14px solid orange"">","null","","","","","",""
"null","","html-keyboard-response","350","1011701","0.0-350.0","","","null","","","","","",""
"856.8999999761581","","image-keyboard-response","351","1012558","0.0-351.0","","img/nature/S3.jpg","51","3","Ns4,perform","51","true","",""
"null","","html-keyboard-response","352","1012919","0.0-352.0","","<img src=""img/nature/S3.jpg"" width=""540"" height = ""360"" style=""border:14px solid orange"">","null","","","","","",""
"null","","html-keyboard-response","353","1013125","0.0-353.0","","","null","","","","","",""
"600.6000000238419","","image-keyboard-response","354","1013726","0.0-354.0","","img/nature/S4.jpg","52","4","Ns4,perform","52","true","",""
"null","","html-keyboard-response","355","1014093","0.0-355.0","","<img src=""img/nature/S4.jpg"" width=""540"" height = ""360"" style=""border:14px solid orange"">","null","","","","","",""
"null","","html-keyboard-response","356","1014298","0.0-356.0","","","null","","","","","",""
"null","","image-keyboard-response","357","1016800","0.0-357.0","","img/nature/S3.jpg","null","3","Ns4,perform","51","false","",""
"null","","html-keyboard-response","358","1017164","0.0-358.0","","<img src=""img/nature/S3.jpg"" width=""540"" height = ""360"">","null","","","","","",""
"null","","html-keyboard-response","359","1017370","0.0-359.0","","","null","","","","","",""
"459.7999999523163","","image-keyboard-response","360","1017830","0.0-360.0","","img/nature/S3.jpg","51","3","Ns4,perform","51","true","",""
"null","","html-keyboard-response","361","1018191","0.0-361.0","","<img src=""img/nature/S3.jpg"" width=""540"" height = ""360"" style=""border:14px solid orange"">","null","","","","","",""
"null","","html-keyboard-response","362","1018394","0.0-362.0","","","null","","","","","",""
"594.8999999761581","","image-keyboard-response","363","1018990","0.0-363.0","","img/nature/S2.jpg","50","2","Ns4,perform","50","true","",""
"null","","html-keyboard-response","364","1019344","0.0-364.0","","<img src=""img/nature/S2.jpg"" width=""540"" height = ""360"" style=""border:14px solid orange"">","null","","","","","",""
"null","","html-keyboard-response","365","1019549","0.0-365.0","","","null","","","","","",""
"656.5","","image-keyboard-response","366","1020206","0.0-366.0","","img/nature/S1.jpg","49","1","Ns4,perform","49","true","",""
"null","","html-keyboard-response","367","1020560","0.0-367.0","","<img src=""img/nature/S1.jpg"" width=""540"" height = ""360"" style=""border:14px solid orange"">","null","","","","","",""
"null","","html-keyboard-response","368","1020767","0.0-368.0","","","null","","","","","",""
"557.8999999761581","","image-keyboard-response","369","1021326","0.0-369.0","","img/nature/S4.jpg","52","4","Ns4,perform","52","true","",""
"null","","html-keyboard-response","370","1021683","0.0-370.0","","<img src=""img/nature/S4.jpg"" width=""540"" height = ""360"" style=""border:14px solid orange"">","null","","","","","",""
"null","","html-keyboard-response","371","1021888","0.0-371.0","","","null","","","","","",""
"565.5","","image-keyboard-response","372","1022454","0.0-372.0","","img/nature/S3.jpg","51","3","Ns4,perform","51","true","",""
"null","","html-keyboard-response","373","1022819","0.0-373.0","","<img src=""img/nature/S3.jpg"" width=""540"" height = ""360"" style=""border:14px solid orange"">","null","","","","","",""
"null","","html-keyboard-response","374","1023025","0.0-374.0","","","null","","","","","",""
"860.6000000238419","","image-keyboard-response","375","1023886","0.0-375.0","","img/nature/S4.jpg","52","4","Ns4,perform","52","true","",""
"null","","html-keyboard-response","376","1024243","0.0-376.0","","<img src=""img/nature/S4.jpg"" width=""540"" height = ""360"" style=""border:14px solid orange"">","null","","","","","",""
"null","","html-keyboard-response","377","1024449","0.0-377.0","","","null","","","","","",""
"868.5999999642372","","image-keyboard-response","378","1025318","0.0-378.0","","img/nature/S3.jpg","51","3","Ns4,perform","51","true","",""
"null","","html-keyboard-response","379","1025676","0.0-379.0","","<img src=""img/nature/S3.jpg"" width=""540"" height = ""360"" style=""border:14px solid orange"">","null","","","","","",""
"null","","html-keyboard-response","380","1025881","0.0-380.0","","","null","","","","","",""
"1139.8999999761581","","image-keyboard-response","381","1027022","0.0-381.0","","img/nature/S4.jpg","52","4","Ns4,perform","52","true","",""
"null","","html-keyboard-response","382","1027387","0.0-382.0","","<img src=""img/nature/S4.jpg"" width=""540"" height = ""360"" style=""border:14px solid orange"">","null","","","","","",""
"null","","html-keyboard-response","383","1027592","0.0-383.0","","","null","","","","","",""
"525.5","","image-keyboard-response","384","1028118","0.0-384.0","","img/nature/S4.jpg","52","4","Ns4,perform","52","true","",""
"null","","html-keyboard-response","385","1028483","0.0-385.0","","<img src=""img/nature/S4.jpg"" width=""540"" height = ""360"" style=""border:14px solid orange"">","null","","","","","",""
"null","","html-keyboard-response","386","1028686","0.0-386.0","","","null","","","","","",""
"535.3999999761581","","image-keyboard-response","387","1029222","0.0-387.0","","img/nature/S4.jpg","52","4","Ns4,perform","52","true","",""
"null","","html-keyboard-response","388","1029588","0.0-388.0","","<img src=""img/nature/S4.jpg"" width=""540"" height = ""360"" style=""border:14px solid orange"">","null","","","","","",""
"null","","html-keyboard-response","389","1029794","0.0-389.0","","","null","","","","","",""
"643.3000000119209","","image-keyboard-response","390","1030438","0.0-390.0","","img/nature/S2.jpg","50","2","Ns4,perform","50","true","",""
"null","","html-keyboard-response","391","1030804","0.0-391.0","","<img src=""img/nature/S2.jpg"" width=""540"" height = ""360"" style=""border:14px solid orange"">","null","","","","","",""
"null","","html-keyboard-response","392","1031008","0.0-392.0","","","null","","","","","",""
"629.1999999880791","","image-keyboard-response","393","1031638","0.0-393.0","","img/nature/S1.jpg","49","1","Ns4,perform","49","true","",""
"null","","html-keyboard-response","394","1031992","0.0-394.0","","<img src=""img/nature/S1.jpg"" width=""540"" height = ""360"" style=""border:14px solid orange"">","null","","","","","",""
"null","","html-keyboard-response","395","1032197","0.0-395.0","","","null","","","","","",""
"1264","","image-keyboard-response","396","1033462","0.0-396.0","","img/nature/S2.jpg","50","2","Ns4,perform","50","true","",""
"null","","html-keyboard-response","397","1033816","0.0-397.0","","<img src=""img/nature/S2.jpg"" width=""540"" height = ""360"" style=""border:14px solid orange"">","null","","","","","",""
"null","","html-keyboard-response","398","1034021","0.0-398.0","","","null","","","","","",""
"784.8000000119209","","image-keyboard-response","399","1034806","0.0-399.0","","img/nature/S1.jpg","49","1","Ns4,perform","49","true","",""
"null","","html-keyboard-response","400","1035163","0.0-400.0","","<img src=""img/nature/S1.jpg"" width=""540"" height = ""360"" style=""border:14px solid orange"">","null","","","","","",""
"null","","html-keyboard-response","401","1035369","0.0-401.0","","","null","","","","","",""
"524.2999999523163","","image-keyboard-response","402","1035894","0.0-402.0","","img/nature/S4.jpg","52","4","Ns4,perform","52","true","",""
"null","","html-keyboard-response","403","1036256","0.0-403.0","","<img src=""img/nature/S4.jpg"" width=""540"" height = ""360"" style=""border:14px solid orange"">","null","","","","","",""
"null","","html-keyboard-response","404","1036459","0.0-404.0","","","null","","","","","",""
"497.7999999523163","","image-keyboard-response","405","1036958","0.0-405.0","","img/nature/S4.jpg","52","4","Ns4,perform","52","true","",""
"null","","html-keyboard-response","406","1037311","0.0-406.0","","<img src=""img/nature/S4.jpg"" width=""540"" height = ""360"" style=""border:14px solid orange"">","null","","","","","",""
"null","","html-keyboard-response","407","1037516","0.0-407.0","","","null","","","","","",""
"809.0999999642372","","image-keyboard-response","408","1038326","0.0-408.0","","img/nature/S3.jpg","51","3","Ns4,perform","51","true","",""
"null","","html-keyboard-response","409","1038688","0.0-409.0","","<img src=""img/nature/S3.jpg"" width=""540"" height = ""360"" style=""border:14px solid orange"">","null","","","","","",""
"null","","html-keyboard-response","410","1038896","0.0-410.0","","","null","","","","","",""
"629.3999999761581","","image-keyboard-response","411","1039526","0.0-411.0","","img/nature/S4.jpg","52","4","Ns4,perform","52","true","",""
"null","","html-keyboard-response","412","1039892","0.0-412.0","","<img src=""img/nature/S4.jpg"" width=""540"" height = ""360"" style=""border:14px solid orange"">","null","","","","","",""
"null","","html-keyboard-response","413","1040098","0.0-413.0","","","null","","","","","",""
"435.69999998807907","","image-keyboard-response","414","1040534","0.0-414.0","","img/nature/S4.jpg","52","4","Ns4,perform","52","true","",""
"null","","html-keyboard-response","415","1040887","0.0-415.0","","<img src=""img/nature/S4.jpg"" width=""540"" height = ""360"" style=""border:14px solid orange"">","null","","","","","",""
"null","","html-keyboard-response","416","1041092","0.0-416.0","","","null","","","","","",""
"1001.5","","image-keyboard-response","417","1042094","0.0-417.0","","img/nature/S2.jpg","50","2","Ns4,perform","50","true","",""
"null","","html-keyboard-response","418","1042455","0.0-418.0","","<img src=""img/nature/S2.jpg"" width=""540"" height = ""360"" style=""border:14px solid orange"">","null","","","","","",""
"null","","html-keyboard-response","419","1042660","0.0-419.0","","","null","","","","","",""
"608.8999999761581","","image-keyboard-response","420","1043270","0.0-420.0","","img/nature/S1.jpg","49","1","Ns4,perform","49","true","",""
"null","","html-keyboard-response","421","1043629","0.0-421.0","","<img src=""img/nature/S1.jpg"" width=""540"" height = ""360"" style=""border:14px solid orange"">","null","","","","","",""
"null","","html-keyboard-response","422","1043832","0.0-422.0","","","null","","","","","",""
"10301.200000047684","","html-keyboard-response","423","1054134","0.0-423.0","","<p class=""center-content"">You have completed a block! </p><p class=""center-content"">Press any key on the keyboard to continue to the next block,</p><p class=""center-content"">or wait for the automatic progression to the next block after one minute.</p>","32","","","","","",""
"1527.199999988079","","image-keyboard-response","424","1055662","0.0-424.0","","img/nature/S2.jpg","50","2","Ns4,test","50","true","",""
"null","","html-keyboard-response","425","1056015","0.0-425.0","","<img src=""img/nature/S2.jpg"" width=""540"" height = ""360"" style=""border:14px solid orange"">","null","","","","","",""
"null","","html-keyboard-response","426","1056222","0.0-426.0","","","null","","","","","",""
"559.6000000238419","","image-keyboard-response","427","1056782","0.0-427.0","","img/nature/S4.jpg","52","4","Ns4,test","52","true","",""
"null","","html-keyboard-response","428","1057149","0.0-428.0","","<img src=""img/nature/S4.jpg"" width=""540"" height = ""360"" style=""border:14px solid orange"">","null","","","","","",""
"null","","html-keyboard-response","429","1057353","0.0-429.0","","","null","","","","","",""
"540.3000000119209","","image-keyboard-response","430","1057894","0.0-430.0","","img/nature/S4.jpg","52","4","Ns4,test","52","true","",""
"null","","html-keyboard-response","431","1058259","0.0-431.0","","<img src=""img/nature/S4.jpg"" width=""540"" height = ""360"" style=""border:14px solid orange"">","null","","","","","",""
"null","","html-keyboard-response","432","1058461","0.0-432.0","","","null","","","","","",""
"512.1999999880791","","image-keyboard-response","433","1058974","0.0-433.0","","img/nature/S4.jpg","52","4","Ns4,test","52","true","",""
"null","","html-keyboard-response","434","1059335","0.0-434.0","","<img src=""img/nature/S4.jpg"" width=""540"" height = ""360"" style=""border:14px solid orange"">","null","","","","","",""
"null","","html-keyboard-response","435","1059540","0.0-435.0","","","null","","","","","",""
"361.39999997615814","","image-keyboard-response","436","1059902","0.0-436.0","","img/nature/S4.jpg","52","4","Ns4,test","52","true","",""
"null","","html-keyboard-response","437","1060255","0.0-437.0","","<img src=""img/nature/S4.jpg"" width=""540"" height = ""360"" style=""border:14px solid orange"">","null","","","","","",""
"null","","html-keyboard-response","438","1060456","0.0-438.0","","","null","","","","","",""
"588.8999999761581","","image-keyboard-response","439","1061046","0.0-439.0","","img/nature/S3.jpg","51","3","Ns4,test","51","true","",""
"null","","html-keyboard-response","440","1061411","0.0-440.0","","<img src=""img/nature/S3.jpg"" width=""540"" height = ""360"" style=""border:14px solid orange"">","null","","","","","",""
"null","","html-keyboard-response","441","1061613","0.0-441.0","","","null","","","","","",""
"576.1000000238419","","image-keyboard-response","442","1062190","0.0-442.0","","img/nature/S1.jpg","49","1","Ns4,test","49","true","",""
"null","","html-keyboard-response","443","1062549","0.0-443.0","","<img src=""img/nature/S1.jpg"" width=""540"" height = ""360"" style=""border:14px solid orange"">","null","","","","","",""
"null","","html-keyboard-response","444","1062753","0.0-444.0","","","null","","","","","",""
"563.8999999761581","","image-keyboard-response","445","1063318","0.0-445.0","","img/nature/S4.jpg","51","4","Ns4,test","52","false","",""
"null","","html-keyboard-response","446","1063671","0.0-446.0","","<img src=""img/nature/S4.jpg"" width=""540"" height = ""360"">","null","","","","","",""
"null","","html-keyboard-response","447","1063876","0.0-447.0","","","null","","","","","",""
"618.0999999642372","","image-keyboard-response","448","1064494","0.0-448.0","","img/nature/S3.jpg","51","3","Ns4,test","51","true","",""
"null","","html-keyboard-response","449","1064860","0.0-449.0","","<img src=""img/nature/S3.jpg"" width=""540"" height = ""360"" style=""border:14px solid orange"">","null","","","","","",""
"null","","html-keyboard-response","450","1065067","0.0-450.0","","","null","","","","","",""
"514.3999999761581","","image-keyboard-response","451","1065582","0.0-451.0","","img/nature/S4.jpg","52","4","Ns4,test","52","true","",""
"null","","html-keyboard-response","452","1065940","0.0-452.0","","<img src=""img/nature/S4.jpg"" width=""540"" height = ""360"" style=""border:14px solid orange"">","null","","","","","",""
"null","","html-keyboard-response","453","1066146","0.0-453.0","","","null","","","","","",""
"595.6999999880791","","image-keyboard-response","454","1066742","0.0-454.0","","img/nature/S1.jpg","49","1","Ns4,test","49","true","",""
"null","","html-keyboard-response","455","1067104","0.0-455.0","","<img src=""img/nature/S1.jpg"" width=""540"" height = ""360"" style=""border:14px solid orange"">","null","","","","","",""
"null","","html-keyboard-response","456","1067308","0.0-456.0","","","null","","","","","",""
"497.60000002384186","","image-keyboard-response","457","1067806","0.0-457.0","","img/nature/S4.jpg","52","4","Ns4,test","52","true","",""
"null","","html-keyboard-response","458","1068164","0.0-458.0","","<img src=""img/nature/S4.jpg"" width=""540"" height = ""360"" style=""border:14px solid orange"">","null","","","","","",""
"null","","html-keyboard-response","459","1068368","0.0-459.0","","","null","","","","","",""
"525.3000000119209","","image-keyboard-response","460","1068894","0.0-460.0","","img/nature/S1.jpg","49","1","Ns4,test","49","true","",""
"null","","html-keyboard-response","461","1069245","0.0-461.0","","<img src=""img/nature/S1.jpg"" width=""540"" height = ""360"" style=""border:14px solid orange"">","null","","","","","",""
"null","","html-keyboard-response","462","1069449","0.0-462.0","","","null","","","","","",""
"580.2999999523163","","image-keyboard-response","463","1070030","0.0-463.0","","img/nature/S4.jpg","52","4","Ns4,test","52","true","",""
"null","","html-keyboard-response","464","1070395","0.0-464.0","","<img src=""img/nature/S4.jpg"" width=""540"" height = ""360"" style=""border:14px solid orange"">","null","","","","","",""
"null","","html-keyboard-response","465","1070598","0.0-465.0","","","null","","","","","",""
"630.8999999761581","","image-keyboard-response","466","1071230","0.0-466.0","","img/nature/S1.jpg","49","1","Ns4,test","49","true","",""
"null","","html-keyboard-response","467","1071582","0.0-467.0","","<img src=""img/nature/S1.jpg"" width=""540"" height = ""360"" style=""border:14px solid orange"">","null","","","","","",""
"null","","html-keyboard-response","468","1071787","0.0-468.0","","","null","","","","","",""
"554.3999999761581","","image-keyboard-response","469","1072342","0.0-469.0","","img/nature/S1.jpg","49","1","Ns4,test","49","true","",""
"null","","html-keyboard-response","470","1072703","0.0-470.0","","<img src=""img/nature/S1.jpg"" width=""540"" height = ""360"" style=""border:14px solid orange"">","null","","","","","",""
"null","","html-keyboard-response","471","1072907","0.0-471.0","","","null","","","","","",""
"641.8999999761581","","image-keyboard-response","472","1073550","0.0-472.0","","img/nature/S2.jpg","50","2","Ns4,test","50","true","",""
"null","","html-keyboard-response","473","1073904","0.0-473.0","","<img src=""img/nature/S2.jpg"" width=""540"" height = ""360"" style=""border:14px solid orange"">","null","","","","","",""
"null","","html-keyboard-response","474","1074109","0.0-474.0","","","null","","","","","",""
"504.5","","image-keyboard-response","475","1074614","0.0-475.0","","img/nature/S1.jpg","50","1","Ns4,test","49","false","",""
"null","","html-keyboard-response","476","1074977","0.0-476.0","","<img src=""img/nature/S1.jpg"" width=""540"" height = ""360"">","null","","","","","",""
"null","","html-keyboard-response","477","1075179","0.0-477.0","","","null","","","","","",""
"682.5","","image-keyboard-response","478","1075862","0.0-478.0","","img/nature/S4.jpg","49","4","Ns4,test","52","false","",""
"null","","html-keyboard-response","479","1076215","0.0-479.0","","<img src=""img/nature/S4.jpg"" width=""540"" height = ""360"">","null","","","","","",""
"null","","html-keyboard-response","480","1076420","0.0-480.0","","","null","","","","","",""
"640.9000000357628","","image-keyboard-response","481","1077062","0.0-481.0","","img/nature/S2.jpg","50","2","Ns4,test","50","true","",""
"null","","html-keyboard-response","482","1077421","0.0-482.0","","<img src=""img/nature/S2.jpg"" width=""540"" height = ""360"" style=""border:14px solid orange"">","null","","","","","",""
"null","","html-keyboard-response","483","1077624","0.0-483.0","","","null","","","","","",""
"701.3999999761581","","image-keyboard-response","484","1078326","0.0-484.0","","img/nature/S3.jpg","51","3","Ns4,test","51","true","",""
"null","","html-keyboard-response","485","1078689","0.0-485.0","","<img src=""img/nature/S3.jpg"" width=""540"" height = ""360"" style=""border:14px solid orange"">","null","","","","","",""
"null","","html-keyboard-response","486","1078896","0.0-486.0","","","null","","","","","",""
"925.3000000119209","","image-keyboard-response","487","1079822","0.0-487.0","","img/nature/S3.jpg","51","3","Ns4,test","51","true","",""
"null","","html-keyboard-response","488","1080176","0.0-488.0","","<img src=""img/nature/S3.jpg"" width=""540"" height = ""360"" style=""border:14px solid orange"">","null","","","","","",""
"null","","html-keyboard-response","489","1080382","0.0-489.0","","","null","","","","","",""
"1143.2000000476837","","image-keyboard-response","490","1081526","0.0-490.0","","img/nature/S4.jpg","52","4","Ns4,test","52","true","",""
"null","","html-keyboard-response","491","1081885","0.0-491.0","","<img src=""img/nature/S4.jpg"" width=""540"" height = ""360"" style=""border:14px solid orange"">","null","","","","","",""
"null","","html-keyboard-response","492","1082089","0.0-492.0","","","null","","","","","",""
"772.5","","image-keyboard-response","493","1082862","0.0-493.0","","img/nature/S3.jpg","52","3","Ns4,test","51","false","",""
"null","","html-keyboard-response","494","1083215","0.0-494.0","","<img src=""img/nature/S3.jpg"" width=""540"" height = ""360"">","null","","","","","",""
"null","","html-keyboard-response","495","1083418","0.0-495.0","","","null","","","","","",""
"619.1000000238419","","image-keyboard-response","496","1084038","0.0-496.0","","img/nature/S2.jpg","50","2","Ns4,test","50","true","",""
"null","","html-keyboard-response","497","1084399","0.0-497.0","","<img src=""img/nature/S2.jpg"" width=""540"" height = ""360"" style=""border:14px solid orange"">","null","","","","","",""
"null","","html-keyboard-response","498","1084604","0.0-498.0","","","null","","","","","",""
"601.1000000238419","","image-keyboard-response","499","1085206","0.0-499.0","","img/nature/S1.jpg","49","1","Ns4,test","49","true","",""
"null","","html-keyboard-response","500","1085564","0.0-500.0","","<img src=""img/nature/S1.jpg"" width=""540"" height = ""360"" style=""border:14px solid orange"">","null","","","","","",""
"null","","html-keyboard-response","501","1085770","0.0-501.0","","","null","","","","","",""
"603.4000000357628","","image-keyboard-response","502","1086374","0.0-502.0","","img/nature/S1.jpg","49","1","Ns4,test","49","true","",""
"null","","html-keyboard-response","503","1086736","0.0-503.0","","<img src=""img/nature/S1.jpg"" width=""540"" height = ""360"" style=""border:14px solid orange"">","null","","","","","",""
"null","","html-keyboard-response","504","1086943","0.0-504.0","","","null","","","","","",""
"1006.5","","image-keyboard-response","505","1087950","0.0-505.0","","img/nature/S3.jpg","51","3","Ns4,test","51","true","",""
"null","","html-keyboard-response","506","1088305","0.0-506.0","","<img src=""img/nature/S3.jpg"" width=""540"" height = ""360"" style=""border:14px solid orange"">","null","","","","","",""
"null","","html-keyboard-response","507","1088511","0.0-507.0","","","null","","","","","",""
"646.3999999761581","","image-keyboard-response","508","1089158","0.0-508.0","","img/nature/S2.jpg","50","2","Ns4,test","50","true","",""
"null","","html-keyboard-response","509","1089524","0.0-509.0","","<img src=""img/nature/S2.jpg"" width=""540"" height = ""360"" style=""border:14px solid orange"">","null","","","","","",""
"null","","html-keyboard-response","510","1089728","0.0-510.0","","","null","","","","","",""
"636.8000000119209","","image-keyboard-response","511","1090366","0.0-511.0","","img/nature/S4.jpg","52","4","Ns4,test","52","true","",""
"null","","html-keyboard-response","512","1090724","0.0-512.0","","<img src=""img/nature/S4.jpg"" width=""540"" height = ""360"" style=""border:14px solid orange"">","null","","","","","",""
"null","","html-keyboard-response","513","1090928","0.0-513.0","","","null","","","","","",""
"573.3000000119209","","image-keyboard-response","514","1091502","0.0-514.0","","img/nature/S3.jpg","51","3","Ns4,test","51","true","",""
"null","","html-keyboard-response","515","1091859","0.0-515.0","","<img src=""img/nature/S3.jpg"" width=""540"" height = ""360"" style=""border:14px solid orange"">","null","","","","","",""
"null","","html-keyboard-response","516","1092065","0.0-516.0","","","null","","","","","",""
"708.1000000238419","","image-keyboard-response","517","1092774","0.0-517.0","","img/nature/S2.jpg","50","2","Ns4,test","50","true","",""
"null","","html-keyboard-response","518","1093126","0.0-518.0","","<img src=""img/nature/S2.jpg"" width=""540"" height = ""360"" style=""border:14px solid orange"">","null","","","","","",""
"null","","html-keyboard-response","519","1093333","0.0-519.0","","","null","","","","","",""
"624.1999999880791","","image-keyboard-response","520","1093958","0.0-520.0","","img/nature/S1.jpg","49","1","Ns4,test","49","true","",""
"null","","html-keyboard-response","521","1094314","0.0-521.0","","<img src=""img/nature/S1.jpg"" width=""540"" height = ""360"" style=""border:14px solid orange"">","null","","","","","",""
"null","","html-keyboard-response","522","1094519","0.0-522.0","","","null","","","","","",""
"718","","image-keyboard-response","523","1095238","0.0-523.0","","img/nature/S2.jpg","50","2","Ns4,test","50","true","",""
"null","","html-keyboard-response","524","1095602","0.0-524.0","","<img src=""img/nature/S2.jpg"" width=""540"" height = ""360"" style=""border:14px solid orange"">","null","","","","","",""
"null","","html-keyboard-response","525","1095809","0.0-525.0","","","null","","","","","",""
"628.3000000119209","","image-keyboard-response","526","1096438","0.0-526.0","","img/nature/S1.jpg","49","1","Ns4,test","49","true","",""
"null","","html-keyboard-response","527","1096804","0.0-527.0","","<img src=""img/nature/S1.jpg"" width=""540"" height = ""360"" style=""border:14px solid orange"">","null","","","","","",""
"null","","html-keyboard-response","528","1097008","0.0-528.0","","","null","","","","","",""
"541.1999999880791","","image-keyboard-response","529","1097550","0.0-529.0","","img/nature/S3.jpg","51","3","Ns4,test","51","true","",""
"null","","html-keyboard-response","530","1097908","0.0-530.0","","<img src=""img/nature/S3.jpg"" width=""540"" height = ""360"" style=""border:14px solid orange"">","null","","","","","",""
"null","","html-keyboard-response","531","1098114","0.0-531.0","","","null","","","","","",""
"419.30000001192093","","image-keyboard-response","532","1098534","0.0-532.0","","img/nature/S3.jpg","51","3","Ns4,test","51","true","",""
"null","","html-keyboard-response","533","1098893","0.0-533.0","","<img src=""img/nature/S3.jpg"" width=""540"" height = ""360"" style=""border:14px solid orange"">","null","","","","","",""
"null","","html-keyboard-response","534","1099099","0.0-534.0","","","null","","","","","",""
"554.3000000119209","","image-keyboard-response","535","1099654","0.0-535.0","","img/nature/S1.jpg","49","1","Ns4,test","49","true","",""
"null","","html-keyboard-response","536","1100015","0.0-536.0","","<img src=""img/nature/S1.jpg"" width=""540"" height = ""360"" style=""border:14px solid orange"">","null","","","","","",""
"null","","html-keyboard-response","537","1100218","0.0-537.0","","","null","","","","","",""
"675.5","","image-keyboard-response","538","1100894","0.0-538.0","","img/nature/S2.jpg","50","2","Ns4,test","50","true","",""
"null","","html-keyboard-response","539","1101247","0.0-539.0","","<img src=""img/nature/S2.jpg"" width=""540"" height = ""360"" style=""border:14px solid orange"">","null","","","","","",""
"null","","html-keyboard-response","540","1101451","0.0-540.0","","","null","","","","","",""
"618.4000000357628","","image-keyboard-response","541","1102070","0.0-541.0","","img/nature/S1.jpg","49","1","Ns4,test","49","true","",""
"null","","html-keyboard-response","542","1102431","0.0-542.0","","<img src=""img/nature/S1.jpg"" width=""540"" height = ""360"" style=""border:14px solid orange"">","null","","","","","",""
"null","","html-keyboard-response","543","1102633","0.0-543.0","","","null","","","","","",""
"595.8999999761581","","image-keyboard-response","544","1103230","0.0-544.0","","img/nature/S4.jpg","52","4","Ns4,test","52","true","",""
"null","","html-keyboard-response","545","1103582","0.0-545.0","","<img src=""img/nature/S4.jpg"" width=""540"" height = ""360"" style=""border:14px solid orange"">","null","","","","","",""
"null","","html-keyboard-response","546","1103786","0.0-546.0","","","null","","","","","",""
"643.6000000238419","","image-keyboard-response","547","1104430","0.0-547.0","","img/nature/S3.jpg","51","3","Ns4,test","51","true","",""
"null","","html-keyboard-response","548","1104788","0.0-548.0","","<img src=""img/nature/S3.jpg"" width=""540"" height = ""360"" style=""border:14px solid orange"">","null","","","","","",""
"null","","html-keyboard-response","549","1104990","0.0-549.0","","","null","","","","","",""
"830.8000000119209","","image-keyboard-response","550","1105822","0.0-550.0","","img/nature/S3.jpg","51","3","Ns4,test","51","true","",""
"null","","html-keyboard-response","551","1106182","0.0-551.0","","<img src=""img/nature/S3.jpg"" width=""540"" height = ""360"" style=""border:14px solid orange"">","null","","","","","",""
"null","","html-keyboard-response","552","1106385","0.0-552.0","","","null","","","","","",""
"571.6000000238419","","image-keyboard-response","553","1106958","0.0-553.0","","img/nature/S4.jpg","52","4","Ns4,test","52","true","",""
"null","","html-keyboard-response","554","1107316","0.0-554.0","","<img src=""img/nature/S4.jpg"" width=""540"" height = ""360"" style=""border:14px solid orange"">","null","","","","","",""
"null","","html-keyboard-response","555","1107519","0.0-555.0","","","null","","","","","",""
"549.6999999880791","","image-keyboard-response","556","1108070","0.0-556.0","","img/nature/S2.jpg","50","2","Ns4,test","50","true","",""
"null","","html-keyboard-response","557","1108421","0.0-557.0","","<img src=""img/nature/S2.jpg"" width=""540"" height = ""360"" style=""border:14px solid orange"">","null","","","","","",""
"null","","html-keyboard-response","558","1108625","0.0-558.0","","","null","","","","","",""
"428.2000000476837","","image-keyboard-response","559","1109054","0.0-559.0","","img/nature/S2.jpg","50","2","Ns4,test","50","true","",""
"null","","html-keyboard-response","560","1109421","0.0-560.0","","<img src=""img/nature/S2.jpg"" width=""540"" height = ""360"" style=""border:14px solid orange"">","null","","","","","",""
"null","","html-keyboard-response","561","1109624","0.0-561.0","","","null","","","","","",""
"565.3000000119209","","image-keyboard-response","562","1110190","0.0-562.0","","img/nature/S3.jpg","51","3","Ns4,test","51","true","",""
"null","","html-keyboard-response","563","1110544","0.0-563.0","","<img src=""img/nature/S3.jpg"" width=""540"" height = ""360"" style=""border:14px solid orange"">","null","","","","","",""
"null","","html-keyboard-response","564","1110749","0.0-564.0","","","null","","","","","",""
"663.6000000238419","","image-keyboard-response","565","1111414","0.0-565.0","","img/nature/S2.jpg","50","2","Ns4,test","50","true","",""
"null","","html-keyboard-response","566","1111767","0.0-566.0","","<img src=""img/nature/S2.jpg"" width=""540"" height = ""360"" style=""border:14px solid orange"">","null","","","","","",""
"null","","html-keyboard-response","567","1111971","0.0-567.0","","","null","","","","","",""
"617.6999999880791","","image-keyboard-response","568","1112590","0.0-568.0","","img/nature/S1.jpg","49","1","Ns4,test","49","true","",""
"null","","html-keyboard-response","569","1112951","0.0-569.0","","<img src=""img/nature/S1.jpg"" width=""540"" height = ""360"" style=""border:14px solid orange"">","null","","","","","",""
"null","","html-keyboard-response","570","1113156","0.0-570.0","","","null","","","","","",""
"568.7000000476837","","image-keyboard-response","571","1113726","0.0-571.0","","img/nature/S3.jpg","51","3","Ns4,test","51","true","",""
"null","","html-keyboard-response","572","1114092","0.0-572.0","","<img src=""img/nature/S3.jpg"" width=""540"" height = ""360"" style=""border:14px solid orange"">","null","","","","","",""
"null","","html-keyboard-response","573","1114296","0.0-573.0","","","null","","","","","",""
"437.2000000476837","","image-keyboard-response","574","1114734","0.0-574.0","","img/nature/S3.jpg","51","3","Ns4,test","51","true","",""
"null","","html-keyboard-response","575","1115097","0.0-575.0","","<img src=""img/nature/S3.jpg"" width=""540"" height = ""360"" style=""border:14px solid orange"">","null","","","","","",""
"null","","html-keyboard-response","576","1115304","0.0-576.0","","","null","","","","","",""
"629.5999999642372","","image-keyboard-response","577","1115934","0.0-577.0","","img/nature/S1.jpg","49","1","Ns4,test","49","true","",""
"null","","html-keyboard-response","578","1116287","0.0-578.0","","<img src=""img/nature/S1.jpg"" width=""540"" height = ""360"" style=""border:14px solid orange"">","null","","","","","",""
"null","","html-keyboard-response","579","1116490","0.0-579.0","","","null","","","","","",""
"523.6000000238419","","image-keyboard-response","580","1117014","0.0-580.0","","img/nature/S3.jpg","51","3","Ns4,test","51","true","",""
"null","","html-keyboard-response","581","1117379","0.0-581.0","","<img src=""img/nature/S3.jpg"" width=""540"" height = ""360"" style=""border:14px solid orange"">","null","","","","","",""
"null","","html-keyboard-response","582","1117585","0.0-582.0","","","null","","","","","",""
"516.4000000357628","","image-keyboard-response","583","1118102","0.0-583.0","","img/nature/S4.jpg","52","4","Ns4,test","52","true","",""
"null","","html-keyboard-response","584","1118458","0.0-584.0","","<img src=""img/nature/S4.jpg"" width=""540"" height = ""360"" style=""border:14px solid orange"">","null","","","","","",""
"null","","html-keyboard-response","585","1118661","0.0-585.0","","","null","","","","","",""
"503.69999998807907","","image-keyboard-response","586","1119166","0.0-586.0","","img/nature/S2.jpg","50","2","Ns4,test","50","true","",""
"null","","html-keyboard-response","587","1119532","0.0-587.0","","<img src=""img/nature/S2.jpg"" width=""540"" height = ""360"" style=""border:14px solid orange"">","null","","","","","",""
"null","","html-keyboard-response","588","1119737","0.0-588.0","","","null","","","","","",""
"580.3000000119209","","image-keyboard-response","589","1120318","0.0-589.0","","img/nature/S4.jpg","52","4","Ns4,test","52","true","",""
"null","","html-keyboard-response","590","1120678","0.0-590.0","","<img src=""img/nature/S4.jpg"" width=""540"" height = ""360"" style=""border:14px solid orange"">","null","","","","","",""
"null","","html-keyboard-response","591","1120885","0.0-591.0","","","null","","","","","",""
"687.6000000238419","","image-keyboard-response","592","1121574","0.0-592.0","","img/nature/S1.jpg","49","1","Ns4,test","49","true","",""
"null","","html-keyboard-response","593","1121937","0.0-593.0","","<img src=""img/nature/S1.jpg"" width=""540"" height = ""360"" style=""border:14px solid orange"">","null","","","","","",""
"null","","html-keyboard-response","594","1122140","0.0-594.0","","","null","","","","","",""
"489","","image-keyboard-response","595","1122630","0.0-595.0","","img/nature/S2.jpg","50","2","Ns4,test","50","true","",""
"null","","html-keyboard-response","596","1122993","0.0-596.0","","<img src=""img/nature/S2.jpg"" width=""540"" height = ""360"" style=""border:14px solid orange"">","null","","","","","",""
"null","","html-keyboard-response","597","1123197","0.0-597.0","","","null","","","","","",""
"448.80000001192093","","image-keyboard-response","598","1123646","0.0-598.0","","img/nature/S2.jpg","50","2","Ns4,test","50","true","",""
"null","","html-keyboard-response","599","1124007","0.0-599.0","","<img src=""img/nature/S2.jpg"" width=""540"" height = ""360"" style=""border:14px solid orange"">","null","","","","","",""
"null","","html-keyboard-response","600","1124213","0.0-600.0","","","null","","","","","",""
"416.30000001192093","","image-keyboard-response","601","1124630","0.0-601.0","","img/nature/S2.jpg","50","2","Ns4,test","50","true","",""
"null","","html-keyboard-response","602","1124983","0.0-602.0","","<img src=""img/nature/S2.jpg"" width=""540"" height = ""360"" style=""border:14px solid orange"">","null","","","","","",""
"null","","html-keyboard-response","603","1125188","0.0-603.0","","","null","","","","","",""
"20281.30000001192","","instructions","604","1145470","0.0-604.0","[{""page_index"":0,""viewing_time"":20281.200000047684}]","","","","","","","",""
"4191.400000035763","","instructions","605","1149662","0.0-605.0","[{""page_index"":0,""viewing_time"":4191.200000047684}]","","","","","","","",""
"null","","image-keyboard-response","606","1152676","0.0-606.0-0.0","","img/nature/control/S3.jpg","null","3","Ns4,baseline","51","false","",""
"null","","html-keyboard-response","607","1152978","0.0-606.0-1.0","","<img src=""img/nature/control/S3.jpg"" width=""540"" height = ""360"">","null","","","","","",""
"null","","html-keyboard-response","608","1153187","0.0-606.0-2.0","","","null","","","","","",""
"618.2000000476837","","image-keyboard-response","609","1153806","0.0-606.0-0.1","","img/nature/control/S2.jpg","50","2","Ns4,baseline","50","true","",""
"null","","html-keyboard-response","610","1154107","0.0-606.0-1.1","","<img src=""img/nature/control/S2.jpg"" width=""540"" height = ""360"" style=""border:14px solid orange"">","null","","","","","",""
"null","","html-keyboard-response","611","1154314","0.0-606.0-2.1","","","null","","","","","",""
"635.3000000119209","","image-keyboard-response","612","1154950","0.0-606.0-0.2","","img/nature/control/S1.jpg","49","1","Ns4,baseline","49","true","",""
"null","","html-keyboard-response","613","1155263","0.0-606.0-1.2","","<img src=""img/nature/control/S1.jpg"" width=""540"" height = ""360"" style=""border:14px solid orange"">","null","","","","","",""
"null","","html-keyboard-response","614","1155468","0.0-606.0-2.2","","","null","","","","","",""
"664.8000000119209","","image-keyboard-response","615","1156134","0.0-606.0-0.3","","img/nature/control/S4.jpg","52","4","Ns4,baseline","52","true","",""
"null","","html-keyboard-response","616","1156445","0.0-606.0-1.3","","<img src=""img/nature/control/S4.jpg"" width=""540"" height = ""360"" style=""border:14px solid orange"">","null","","","","","",""
"null","","html-keyboard-response","617","1156648","0.0-606.0-2.3","","","null","","","","","",""
"588.8000000119209","","image-keyboard-response","618","1157238","0.0-606.0-0.4","","img/nature/control/S2.jpg","51","2","Ns4,baseline","50","false","",""
"null","","html-keyboard-response","619","1157550","0.0-606.0-1.4","","<img src=""img/nature/control/S2.jpg"" width=""540"" height = ""360"">","null","","","","","",""
"null","","html-keyboard-response","620","1157757","0.0-606.0-2.4","","","null","","","","","",""
"864.5999999642372","","image-keyboard-response","621","1158622","0.0-606.0-0.5","","img/nature/control/S3.jpg","50","3","Ns4,baseline","51","false","",""
"null","","html-keyboard-response","622","1158925","0.0-606.0-1.5","","<img src=""img/nature/control/S3.jpg"" width=""540"" height = ""360"">","null","","","","","",""
"null","","html-keyboard-response","623","1159129","0.0-606.0-2.5","","","null","","","","","",""
"579.9000000357628","","image-keyboard-response","624","1159710","0.0-606.0-0.6","","img/nature/control/S1.jpg","49","1","Ns4,baseline","49","true","",""
"null","","html-keyboard-response","625","1160017","0.0-606.0-1.6","","<img src=""img/nature/control/S1.jpg"" width=""540"" height = ""360"" style=""border:14px solid orange"">","null","","","","","",""
"null","","html-keyboard-response","626","1160224","0.0-606.0-2.6","","","null","","","","","",""
"845.5999999642372","","image-keyboard-response","627","1161070","0.0-606.0-0.7","","img/nature/control/S4.jpg","52","4","Ns4,baseline","52","true","",""
"null","","html-keyboard-response","628","1161376","0.0-606.0-1.7","","<img src=""img/nature/control/S4.jpg"" width=""540"" height = ""360"" style=""border:14px solid orange"">","null","","","","","",""
"null","","html-keyboard-response","629","1161579","0.0-606.0-2.7","","","null","","","","","",""
"1218.300000011921","","image-keyboard-response","630","1162798","0.0-606.0-0.8","","img/nature/control/S2.jpg","50","2","Ns4,baseline","50","true","",""
"null","","html-keyboard-response","631","1163103","0.0-606.0-1.8","","<img src=""img/nature/control/S2.jpg"" width=""540"" height = ""360"" style=""border:14px solid orange"">","null","","","","","",""
"null","","html-keyboard-response","632","1163308","0.0-606.0-2.8","","","null","","","","","",""
"713.3000000119209","","image-keyboard-response","633","1164022","0.0-606.0-0.9","","img/nature/control/S4.jpg","52","4","Ns4,baseline","52","true","",""
"null","","html-keyboard-response","634","1164329","0.0-606.0-1.9","","<img src=""img/nature/control/S4.jpg"" width=""540"" height = ""360"" style=""border:14px solid orange"">","null","","","","","",""
"null","","html-keyboard-response","635","1164535","0.0-606.0-2.9","","","null","","","","","",""
"726.0999999642372","","image-keyboard-response","636","1165262","0.0-606.0-0.10","","img/nature/control/S1.jpg","49","1","Ns4,baseline","49","true","",""
"null","","html-keyboard-response","637","1165567","0.0-606.0-1.10","","<img src=""img/nature/control/S1.jpg"" width=""540"" height = ""360"" style=""border:14px solid orange"">","null","","","","","",""
"null","","html-keyboard-response","638","1165771","0.0-606.0-2.10","","","null","","","","","",""
"722.0999999642372","","image-keyboard-response","639","1166494","0.0-606.0-0.11","","img/nature/control/S3.jpg","51","3","Ns4,baseline","51","true","",""
"null","","html-keyboard-response","640","1166803","0.0-606.0-1.11","","<img src=""img/nature/control/S3.jpg"" width=""540"" height = ""360"" style=""border:14px solid orange"">","null","","","","","",""
"null","","html-keyboard-response","641","1167008","0.0-606.0-2.11","","","null","","","","","",""
"861.2000000476837","","image-keyboard-response","642","1167870","0.0-606.0-0.12","","img/nature/control/S3.jpg","51","3","Ns4,baseline","51","true","",""
"null","","html-keyboard-response","643","1168184","0.0-606.0-1.12","","<img src=""img/nature/control/S3.jpg"" width=""540"" height = ""360"" style=""border:14px solid orange"">","null","","","","","",""
"null","","html-keyboard-response","644","1168387","0.0-606.0-2.12","","","null","","","","","",""
"954.3000000119209","","image-keyboard-response","645","1169342","0.0-606.0-0.13","","img/nature/control/S1.jpg","49","1","Ns4,baseline","49","true","",""
"null","","html-keyboard-response","646","1169652","0.0-606.0-1.13","","<img src=""img/nature/control/S1.jpg"" width=""540"" height = ""360"" style=""border:14px solid orange"">","null","","","","","",""
"null","","html-keyboard-response","647","1169857","0.0-606.0-2.13","","","null","","","","","",""
"1323.800000011921","","image-keyboard-response","648","1171182","0.0-606.0-0.14","","img/nature/control/S2.jpg","52","2","Ns4,baseline","50","false","",""
"null","","html-keyboard-response","649","1171491","0.0-606.0-1.14","","<img src=""img/nature/control/S2.jpg"" width=""540"" height = ""360"">","null","","","","","",""
"null","","html-keyboard-response","650","1171697","0.0-606.0-2.14","","","null","","","","","",""
"611.8000000119209","","image-keyboard-response","651","1172310","0.0-606.0-0.15","","img/nature/control/S4.jpg","52","4","Ns4,baseline","52","true","",""
"null","","html-keyboard-response","652","1172613","0.0-606.0-1.15","","<img src=""img/nature/control/S4.jpg"" width=""540"" height = ""360"" style=""border:14px solid orange"">","null","","","","","",""
"null","","html-keyboard-response","653","1172821","0.0-606.0-2.15","","","null","","","","","",""
"688.6000000238419","","image-keyboard-response","654","1173510","0.0-606.0-0.16","","img/nature/control/S4.jpg","52","4","Ns4,baseline","52","true","",""
"null","","html-keyboard-response","655","1173815","0.0-606.0-1.16","","<img src=""img/nature/control/S4.jpg"" width=""540"" height = ""360"" style=""border:14px solid orange"">","null","","","","","",""
"null","","html-keyboard-response","656","1174021","0.0-606.0-2.16","","","null","","","","","",""
"848","","image-keyboard-response","657","1174870","0.0-606.0-0.17","","img/nature/control/S1.jpg","49","1","Ns4,baseline","49","true","",""
"null","","html-keyboard-response","658","1175173","0.0-606.0-1.17","","<img src=""img/nature/control/S1.jpg"" width=""540"" height = ""360"" style=""border:14px solid orange"">","null","","","","","",""
"null","","html-keyboard-response","659","1175378","0.0-606.0-2.17","","","null","","","","","",""
"747.5","","image-keyboard-response","660","1176126","0.0-606.0-0.18","","img/nature/control/S3.jpg","51","3","Ns4,baseline","51","true","",""
"null","","html-keyboard-response","661","1176441","0.0-606.0-1.18","","<img src=""img/nature/control/S3.jpg"" width=""540"" height = ""360"" style=""border:14px solid orange"">","null","","","","","",""
"null","","html-keyboard-response","662","1176647","0.0-606.0-2.18","","","null","","","","","",""
"621.8999999761581","","image-keyboard-response","663","1177270","0.0-606.0-0.19","","img/nature/control/S2.jpg","50","2","Ns4,baseline","50","true","",""
"null","","html-keyboard-response","664","1177579","0.0-606.0-1.19","","<img src=""img/nature/control/S2.jpg"" width=""540"" height = ""360"" style=""border:14px solid orange"">","null","","","","","",""
"null","","html-keyboard-response","665","1177782","0.0-606.0-2.19","","","null","","","","","",""
"558.8000000119209","","image-keyboard-response","666","1178342","0.0-606.0-0.20","","img/nature/control/S2.jpg","50","2","Ns4,baseline","50","true","",""
"null","","html-keyboard-response","667","1178654","0.0-606.0-1.20","","<img src=""img/nature/control/S2.jpg"" width=""540"" height = ""360"" style=""border:14px solid orange"">","null","","","","","",""
"null","","html-keyboard-response","668","1178861","0.0-606.0-2.20","","","null","","","","","",""
"520.6000000238419","","image-keyboard-response","669","1179382","0.0-606.0-0.21","","img/nature/control/S3.jpg","50","3","Ns4,baseline","51","false","",""
"null","","html-keyboard-response","670","1179698","0.0-606.0-1.21","","<img src=""img/nature/control/S3.jpg"" width=""540"" height = ""360"">","null","","","","","",""
"null","","html-keyboard-response","671","1179905","0.0-606.0-2.21","","","null","","","","","",""
"788.5","","image-keyboard-response","672","1180694","0.0-606.0-0.22","","img/nature/control/S4.jpg","52","4","Ns4,baseline","52","true","",""
"null","","html-keyboard-response","673","1180997","0.0-606.0-1.22","","<img src=""img/nature/control/S4.jpg"" width=""540"" height = ""360"" style=""border:14px solid orange"">","null","","","","","",""
"null","","html-keyboard-response","674","1181204","0.0-606.0-2.22","","","null","","","","","",""
"729.4000000357628","","image-keyboard-response","675","1181934","0.0-606.0-0.23","","img/nature/control/S1.jpg","49","1","Ns4,baseline","49","true","",""
"null","","html-keyboard-response","676","1182243","0.0-606.0-1.23","","<img src=""img/nature/control/S1.jpg"" width=""540"" height = ""360"" style=""border:14px solid orange"">","null","","","","","",""
"null","","html-keyboard-response","677","1182447","0.0-606.0-2.23","","","null","","","","","",""
"765.9000000357628","","image-keyboard-response","678","1183214","0.0-606.0-0.24","","img/nature/control/S2.jpg","50","2","Ns4,baseline","50","true","",""
"null","","html-keyboard-response","679","1183522","0.0-606.0-1.24","","<img src=""img/nature/control/S2.jpg"" width=""540"" height = ""360"" style=""border:14px solid orange"">","null","","","","","",""
"null","","html-keyboard-response","680","1183729","0.0-606.0-2.24","","","null","","","","","",""
"1523.9000000357628","","image-keyboard-response","681","1185254","0.0-606.0-0.25","","img/nature/control/S4.jpg","52","4","Ns4,baseline","52","true","",""
"null","","html-keyboard-response","682","1185568","0.0-606.0-1.25","","<img src=""img/nature/control/S4.jpg"" width=""540"" height = ""360"" style=""border:14px solid orange"">","null","","","","","",""
"null","","html-keyboard-response","683","1185773","0.0-606.0-2.25","","","null","","","","","",""
"600.1000000238419","","image-keyboard-response","684","1186374","0.0-606.0-0.26","","img/nature/control/S3.jpg","51","3","Ns4,baseline","51","true","",""
"null","","html-keyboard-response","685","1186678","0.0-606.0-1.26","","<img src=""img/nature/control/S3.jpg"" width=""540"" height = ""360"" style=""border:14px solid orange"">","null","","","","","",""
"null","","html-keyboard-response","686","1186884","0.0-606.0-2.26","","","null","","","","","",""
"641.8000000119209","","image-keyboard-response","687","1187526","0.0-606.0-0.27","","img/nature/control/S1.jpg","49","1","Ns4,baseline","49","true","",""
"null","","html-keyboard-response","688","1187829","0.0-606.0-1.27","","<img src=""img/nature/control/S1.jpg"" width=""540"" height = ""360"" style=""border:14px solid orange"">","null","","","","","",""
"null","","html-keyboard-response","689","1188033","0.0-606.0-2.27","","","null","","","","","",""
"708.3999999761581","","image-keyboard-response","690","1188742","0.0-606.0-0.28","","img/nature/control/S4.jpg","52","4","Ns4,baseline","52","true","",""
"null","","html-keyboard-response","691","1189044","0.0-606.0-1.28","","<img src=""img/nature/control/S4.jpg"" width=""540"" height = ""360"" style=""border:14px solid orange"">","null","","","","","",""
"null","","html-keyboard-response","692","1189246","0.0-606.0-2.28","","","null","","","","","",""
"767.1999999880791","","image-keyboard-response","693","1190014","0.0-606.0-0.29","","img/nature/control/S1.jpg","49","1","Ns4,baseline","49","true","",""
"null","","html-keyboard-response","694","1190325","0.0-606.0-1.29","","<img src=""img/nature/control/S1.jpg"" width=""540"" height = ""360"" style=""border:14px solid orange"">","null","","","","","",""
"null","","html-keyboard-response","695","1190531","0.0-606.0-2.29","","","null","","","","","",""
"514.3000000119209","","image-keyboard-response","696","1191046","0.0-606.0-0.30","","img/nature/control/S2.jpg","50","2","Ns4,baseline","50","true","",""
"null","","html-keyboard-response","697","1191357","0.0-606.0-1.30","","<img src=""img/nature/control/S2.jpg"" width=""540"" height = ""360"" style=""border:14px solid orange"">","null","","","","","",""
"null","","html-keyboard-response","698","1191562","0.0-606.0-2.30","","","null","","","","","",""
