"rt","url","trial_type","trial_index","time_elapsed","internal_node_id","view_history","stimulus","key_press","state","test_part","correct_response","correct","bonus","responses"
"3134.5","consent.html","external-html","0","3253","0.0-0.0","","","","","","","","",""
"58662.59999996424","","instructions","1","61918","0.0-1.0","[{""page_index"":0,""viewing_time"":3773.399999976158},{""page_index"":1,""viewing_time"":5559.199999988079},{""page_index"":2,""viewing_time"":7440.5},{""page_index"":3,""viewing_time"":11391.699999988079},{""page_index"":4,""viewing_time"":6763.100000023842},{""page_index"":5,""viewing_time"":7755.300000011921},{""page_index"":6,""viewing_time"":7710.699999988079},{""page_index"":7,""viewing_time"":8267.899999976158}]","","","","","","","",""
"1023.2999999523163","","image-keyboard-response","2","62944","0.0-2.0-0.0","","img/nature/control/S4.jpg","49","4","Ns4,baseline","52","false","",""
"null","","html-keyboard-response","3","63254","0.0-2.0-1.0","","<img src=""img/nature/control/S4.jpg"" width=""540"" height = ""360"">","null","","","","","",""
"null","","html-keyboard-response","4","63471","0.0-2.0-2.0","","","null","","","","","",""
"974.7999999523163","","image-keyboard-response","5","64448","0.0-2.0-0.1","","img/nature/control/S1.jpg","50","1","Ns4,baseline","49","false","",""
"null","","html-keyboard-response","6","64756","0.0-2.0-1.1","","<img src=""img/nature/control/S1.jpg"" width=""540"" height = ""360"">","null","","","","","",""
"null","","html-keyboard-response","7","64957","0.0-2.0-2.1","","","null","","","","","",""
"741.5","","image-keyboard-response","8","65701","0.0-2.0-0.2","","img/nature/control/S2.jpg","51","2","Ns4,baseline","50","false","",""
"null","","html-keyboard-response","9","66005","0.0-2.0-1.2","","<img src=""img/nature/control/S2.jpg"" width=""540"" height = ""360"">","null","","","","","",""
"null","","html-keyboard-response","10","66221","0.0-2.0-2.2","","","null","","","","","",""
"469.5","","image-keyboard-response","11","66692","0.0-2.0-0.3","","img/nature/control/S3.jpg","52","3","Ns4,baseline","51","false","",""
"null","","html-keyboard-response","12","67005","0.0-2.0-1.3","","<img src=""img/nature/control/S3.jpg"" width=""540"" height = ""360"">","null","","","","","",""
"null","","html-keyboard-response","13","67220","0.0-2.0-2.3","","","null","","","","","",""
"1274.699999988079","","image-keyboard-response","14","68496","0.0-2.0-0.4","","img/nature/control/S3.jpg","51","3","Ns4,baseline","51","true","",""
"null","","html-keyboard-response","15","68812","0.0-2.0-1.4","","<img src=""img/nature/control/S3.jpg"" width=""540"" height = ""360"" style=""border:14px solid orange"">","null","","","","","",""
"null","","html-keyboard-response","16","69027","0.0-2.0-2.4","","","null","","","","","",""
"1230.199999988079","","image-keyboard-response","17","70259","0.0-2.0-0.5","","img/nature/control/S2.jpg","50","2","Ns4,baseline","50","true","",""
"null","","html-keyboard-response","18","70566","0.0-2.0-1.5","","<img src=""img/nature/control/S2.jpg"" width=""540"" height = ""360"" style=""border:14px solid orange"">","null","","","","","",""
"null","","html-keyboard-response","19","70783","0.0-2.0-2.5","","","null","","","","","",""
"1125","","image-keyboard-response","20","71910","0.0-2.0-0.6","","img/nature/control/S4.jpg","52","4","Ns4,baseline","52","true","",""
"null","","html-keyboard-response","21","72223","0.0-2.0-1.6","","<img src=""img/nature/control/S4.jpg"" width=""540"" height = ""360"" style=""border:14px solid orange"">","null","","","","","",""
"null","","html-keyboard-response","22","72439","0.0-2.0-2.6","","","null","","","","","",""
"814.8000000119209","","image-keyboard-response","23","73255","0.0-2.0-0.7","","img/nature/control/S1.jpg","51","1","Ns4,baseline","49","false","",""
"null","","html-keyboard-response","24","73567","0.0-2.0-1.7","","<img src=""img/nature/control/S1.jpg"" width=""540"" height = ""360"">","null","","","","","",""
"null","","html-keyboard-response","25","73768","0.0-2.0-2.7","","","null","","","","","",""
"29.600000023841858","","image-keyboard-response","26","73799","0.0-2.0-0.8","","img/nature/control/S3.jpg","50","3","Ns4,baseline","51","false","",""
"null","","html-keyboard-response","27","74108","0.0-2.0-1.8","","<img src=""img/nature/control/S3.jpg"" width=""540"" height = ""360"">","null","","","","","",""
"null","","html-keyboard-response","28","74309","0.0-2.0-2.8","","","null","","","","","",""
"1504.300000011921","","image-keyboard-response","29","75814","0.0-2.0-0.9","","img/nature/control/S1.jpg","49","1","Ns4,baseline","49","true","",""
"null","","html-keyboard-response","30","76121","0.0-2.0-1.9","","<img src=""img/nature/control/S1.jpg"" width=""540"" height = ""360"" style=""border:14px solid orange"">","null","","","","","",""
"null","","html-keyboard-response","31","76322","0.0-2.0-2.9","","","null","","","","","",""
"954.1999999880791","","image-keyboard-response","32","77277","0.0-2.0-0.10","","img/nature/control/S4.jpg","52","4","Ns4,baseline","52","true","",""
"null","","html-keyboard-response","33","77592","0.0-2.0-1.10","","<img src=""img/nature/control/S4.jpg"" width=""540"" height = ""360"" style=""border:14px solid orange"">","null","","","","","",""
"null","","html-keyboard-response","34","77809","0.0-2.0-2.10","","","null","","","","","",""
"741.3999999761581","","image-keyboard-response","35","78551","0.0-2.0-0.11","","img/nature/control/S2.jpg","51","2","Ns4,baseline","50","false","",""
"null","","html-keyboard-response","36","78863","0.0-2.0-1.11","","<img src=""img/nature/control/S2.jpg"" width=""540"" height = ""360"">","null","","","","","",""
"null","","html-keyboard-response","37","79064","0.0-2.0-2.11","","","null","","","","","",""
"812.4000000357628","","image-keyboard-response","38","79878","0.0-2.0-0.12","","img/nature/control/S1.jpg","50","1","Ns4,baseline","49","false","",""
"null","","html-keyboard-response","39","80179","0.0-2.0-1.12","","<img src=""img/nature/control/S1.jpg"" width=""540"" height = ""360"">","null","","","","","",""
"null","","html-keyboard-response","40","80381","0.0-2.0-2.12","","","null","","","","","",""
"857.1000000238419","","image-keyboard-response","41","81239","0.0-2.0-0.13","","img/nature/control/S2.jpg","51","2","Ns4,baseline","50","false","",""
"null","","html-keyboard-response","42","81541","0.0-2.0-1.13","","<img src=""img/nature/control/S2.jpg"" width=""540"" height = ""360"">","null","","","","","",""
"null","","html-keyboard-response","43","81743","0.0-2.0-2.13","","","null","","","","","",""
"994.5","","image-keyboard-response","44","82739","0.0-2.0-0.14","","img/nature/control/S4.jpg","52","4","Ns4,baseline","52","true","",""
"null","","html-keyboard-response","45","83045","0.0-2.0-1.14","","<img src=""img/nature/control/S4.jpg"" width=""540"" height = ""360"" style=""border:14px solid orange"">","null","","","","","",""
"null","","html-keyboard-response","46","83249","0.0-2.0-2.14","","","null","","","","","",""
"1751.0999999642372","","image-keyboard-response","47","85001","0.0-2.0-0.15","","img/nature/control/S3.jpg","51","3","Ns4,baseline","51","true","",""
"null","","html-keyboard-response","48","85317","0.0-2.0-1.15","","<img src=""img/nature/control/S3.jpg"" width=""540"" height = ""360"" style=""border:14px solid orange"">","null","","","","","",""
"null","","html-keyboard-response","49","85533","0.0-2.0-2.15","","","null","","","","","",""
"1766.5999999642372","","image-keyboard-response","50","87300","0.0-2.0-0.16","","img/nature/control/S1.jpg","50","1","Ns4,baseline","49","false","",""
"null","","html-keyboard-response","51","87612","0.0-2.0-1.16","","<img src=""img/nature/control/S1.jpg"" width=""540"" height = ""360"">","null","","","","","",""
"null","","html-keyboard-response","52","87813","0.0-2.0-2.16","","","null","","","","","",""
"958.7000000476837","","image-keyboard-response","53","88773","0.0-2.0-0.17","","img/nature/control/S3.jpg","50","3","Ns4,baseline","51","false","",""
"null","","html-keyboard-response","54","89078","0.0-2.0-1.17","","<img src=""img/nature/control/S3.jpg"" width=""540"" height = ""360"">","null","","","","","",""
"null","","html-keyboard-response","55","89280","0.0-2.0-2.17","","","null","","","","","",""
"1836.2999999523163","","image-keyboard-response","56","91117","0.0-2.0-0.18","","img/nature/control/S2.jpg","51","2","Ns4,baseline","50","false","",""
"null","","html-keyboard-response","57","91422","0.0-2.0-1.18","","<img src=""img/nature/control/S2.jpg"" width=""540"" height = ""360"">","null","","","","","",""
"null","","html-keyboard-response","58","91638","0.0-2.0-2.18","","","null","","","","","",""
"1092.0999999642372","","image-keyboard-response","59","92732","0.0-2.0-0.19","","img/nature/control/S4.jpg","52","4","Ns4,baseline","52","true","",""
"null","","html-keyboard-response","60","93034","0.0-2.0-1.19","","<img src=""img/nature/control/S4.jpg"" width=""540"" height = ""360"" style=""border:14px solid orange"">","null","","","","","",""
"null","","html-keyboard-response","61","93250","0.0-2.0-2.19","","","null","","","","","",""
"1425.6000000238419","","image-keyboard-response","62","94677","0.0-2.0-0.20","","img/nature/control/S1.jpg","50","1","Ns4,baseline","49","false","",""
"null","","html-keyboard-response","63","94979","0.0-2.0-1.20","","<img src=""img/nature/control/S1.jpg"" width=""540"" height = ""360"">","null","","","","","",""
"null","","html-keyboard-response","64","95194","0.0-2.0-2.20","","","null","","","","","",""
"1690.7999999523163","","image-keyboard-response","65","96886","0.0-2.0-0.21","","img/nature/control/S3.jpg","51","3","Ns4,baseline","51","true","",""
"null","","html-keyboard-response","66","97203","0.0-2.0-1.21","","<img src=""img/nature/control/S3.jpg"" width=""540"" height = ""360"" style=""border:14px solid orange"">","null","","","","","",""
"null","","html-keyboard-response","67","97404","0.0-2.0-2.21","","","null","","","","","",""
"766.8999999761581","","image-keyboard-response","68","98173","0.0-2.0-0.22","","img/nature/control/S4.jpg","52","4","Ns4,baseline","52","true","",""
"null","","html-keyboard-response","69","98478","0.0-2.0-1.22","","<img src=""img/nature/control/S4.jpg"" width=""540"" height = ""360"" style=""border:14px solid orange"">","null","","","","","",""
"null","","html-keyboard-response","70","98694","0.0-2.0-2.22","","","null","","","","","",""
"851.6000000238419","","image-keyboard-response","71","99547","0.0-2.0-0.23","","img/nature/control/S2.jpg","49","2","Ns4,baseline","50","false","",""
"null","","html-keyboard-response","72","99851","0.0-2.0-1.23","","<img src=""img/nature/control/S2.jpg"" width=""540"" height = ""360"">","null","","","","","",""
"null","","html-keyboard-response","73","100067","0.0-2.0-2.23","","","null","","","","","",""
"685.8000000119209","","image-keyboard-response","74","100754","0.0-2.0-0.24","","img/nature/control/S2.jpg","50","2","Ns4,baseline","50","true","",""
"null","","html-keyboard-response","75","101069","0.0-2.0-1.24","","<img src=""img/nature/control/S2.jpg"" width=""540"" height = ""360"" style=""border:14px solid orange"">","null","","","","","",""
"null","","html-keyboard-response","76","101270","0.0-2.0-2.24","","","null","","","","","",""
"714","","image-keyboard-response","77","101985","0.0-2.0-0.25","","img/nature/control/S3.jpg","49","3","Ns4,baseline","51","false","",""
"null","","html-keyboard-response","78","102291","0.0-2.0-1.25","","<img src=""img/nature/control/S3.jpg"" width=""540"" height = ""360"">","null","","","","","",""
"null","","html-keyboard-response","79","102508","0.0-2.0-2.25","","","null","","","","","",""
"1615.8999999761581","","image-keyboard-response","80","104125","0.0-2.0-0.26","","img/nature/control/S1.jpg","49","1","Ns4,baseline","49","true","",""
"null","","html-keyboard-response","81","104449","0.0-2.0-1.26","","<img src=""img/nature/control/S1.jpg"" width=""540"" height = ""360"" style=""border:14px solid orange"">","null","","","","","",""
"null","","html-keyboard-response","82","104654","0.0-2.0-2.26","","","null","","","","","",""
"968.5","","image-keyboard-response","83","105624","0.0-2.0-0.27","","img/nature/control/S4.jpg","52","4","Ns4,baseline","52","true","",""
"null","","html-keyboard-response","84","105939","0.0-2.0-1.27","","<img src=""img/nature/control/S4.jpg"" width=""540"" height = ""360"" style=""border:14px solid orange"">","null","","","","","",""
"null","","html-keyboard-response","85","106155","0.0-2.0-2.27","","","null","","","","","",""
"656.5","","image-keyboard-response","86","106813","0.0-2.0-0.28","","img/nature/control/S4.jpg","52","4","Ns4,baseline","52","true","",""
"null","","html-keyboard-response","87","107131","0.0-2.0-1.28","","<img src=""img/nature/control/S4.jpg"" width=""540"" height = ""360"" style=""border:14px solid orange"">","null","","","","","",""
"null","","html-keyboard-response","88","107346","0.0-2.0-2.28","","","null","","","","","",""
"1496.800000011921","","image-keyboard-response","89","108844","0.0-2.0-0.29","","img/nature/control/S2.jpg","50","2","Ns4,baseline","50","true","",""
"null","","html-keyboard-response","90","109158","0.0-2.0-1.29","","<img src=""img/nature/control/S2.jpg"" width=""540"" height = ""360"" style=""border:14px solid orange"">","null","","","","","",""
"null","","html-keyboard-response","91","109360","0.0-2.0-2.29","","","null","","","","","",""
"1107.199999988079","","image-keyboard-response","92","110468","0.0-2.0-0.30","","img/nature/control/S1.jpg","49","1","Ns4,baseline","49","true","",""
"null","","html-keyboard-response","93","110784","0.0-2.0-1.30","","<img src=""img/nature/control/S1.jpg"" width=""540"" height = ""360"" style=""border:14px solid orange"">","null","","","","","",""
"null","","html-keyboard-response","94","110986","0.0-2.0-2.30","","","null","","","","","",""
"1059.5","","image-keyboard-response","95","112047","0.0-2.0-0.31","","img/nature/control/S3.jpg","51","3","Ns4,baseline","51","true","",""
"null","","html-keyboard-response","96","112350","0.0-2.0-1.31","","<img src=""img/nature/control/S3.jpg"" width=""540"" height = ""360"" style=""border:14px solid orange"">","null","","","","","",""
"null","","html-keyboard-response","97","112567","0.0-2.0-2.31","","","null","","","","","",""
"2484.5","","image-keyboard-response","98","115052","0.0-2.0-0.32","","img/nature/control/S2.jpg","49","2","Ns4,baseline","50","false","",""
"null","","html-keyboard-response","99","115358","0.0-2.0-1.32","","<img src=""img/nature/control/S2.jpg"" width=""540"" height = ""360"">","null","","","","","",""
"null","","html-keyboard-response","100","115560","0.0-2.0-2.32","","","null","","","","","",""
"1285.6000000238419","","image-keyboard-response","101","116847","0.0-2.0-0.33","","img/nature/control/S3.jpg","49","3","Ns4,baseline","51","false","",""
"null","","html-keyboard-response","102","117153","0.0-2.0-1.33","","<img src=""img/nature/control/S3.jpg"" width=""540"" height = ""360"">","null","","","","","",""
"null","","html-keyboard-response","103","117354","0.0-2.0-2.33","","","null","","","","","",""
"696.2999999523163","","image-keyboard-response","104","118051","0.0-2.0-0.34","","img/nature/control/S4.jpg","52","4","Ns4,baseline","52","true","",""
"null","","html-keyboard-response","105","118354","0.0-2.0-1.34","","<img src=""img/nature/control/S4.jpg"" width=""540"" height = ""360"" style=""border:14px solid orange"">","null","","","","","",""
"null","","html-keyboard-response","106","118568","0.0-2.0-2.34","","","null","","","","","",""
"1521","","image-keyboard-response","107","120090","0.0-2.0-0.35","","img/nature/control/S1.jpg","49","1","Ns4,baseline","49","true","",""
"null","","html-keyboard-response","108","120405","0.0-2.0-1.35","","<img src=""img/nature/control/S1.jpg"" width=""540"" height = ""360"" style=""border:14px solid orange"">","null","","","","","",""
"null","","html-keyboard-response","109","120621","0.0-2.0-2.35","","","null","","","","","",""
"819.6999999880791","","image-keyboard-response","110","121442","0.0-2.0-0.36","","img/nature/control/S1.jpg","49","1","Ns4,baseline","49","true","",""
"null","","html-keyboard-response","111","121753","0.0-2.0-1.36","","<img src=""img/nature/control/S1.jpg"" width=""540"" height = ""360"" style=""border:14px solid orange"">","null","","","","","",""
"null","","html-keyboard-response","112","121970","0.0-2.0-2.36","","","null","","","","","",""
"1833.3999999761581","","image-keyboard-response","113","123804","0.0-2.0-0.37","","img/nature/control/S3.jpg","51","3","Ns4,baseline","51","true","",""
"null","","html-keyboard-response","114","124120","0.0-2.0-1.37","","<img src=""img/nature/control/S3.jpg"" width=""540"" height = ""360"" style=""border:14px solid orange"">","null","","","","","",""
"null","","html-keyboard-response","115","124334","0.0-2.0-2.37","","","null","","","","","",""
"1062.699999988079","","image-keyboard-response","116","125399","0.0-2.0-0.38","","img/nature/control/S2.jpg","50","2","Ns4,baseline","50","true","",""
"null","","html-keyboard-response","117","125703","0.0-2.0-1.38","","<img src=""img/nature/control/S2.jpg"" width=""540"" height = ""360"" style=""border:14px solid orange"">","null","","","","","",""
"null","","html-keyboard-response","118","125918","0.0-2.0-2.38","","","null","","","","","",""
"619.8000000119209","","image-keyboard-response","119","126539","0.0-2.0-0.39","","img/nature/control/S4.jpg","52","4","Ns4,baseline","52","true","",""
"null","","html-keyboard-response","120","126856","0.0-2.0-1.39","","<img src=""img/nature/control/S4.jpg"" width=""540"" height = ""360"" style=""border:14px solid orange"">","null","","","","","",""
"null","","html-keyboard-response","121","127073","0.0-2.0-2.39","","","null","","","","","",""
"980.7000000476837","","image-keyboard-response","122","128054","0.0-2.0-0.40","","img/nature/control/S2.jpg","50","2","Ns4,baseline","50","true","",""
"null","","html-keyboard-response","123","128361","0.0-2.0-1.40","","<img src=""img/nature/control/S2.jpg"" width=""540"" height = ""360"" style=""border:14px solid orange"">","null","","","","","",""
"null","","html-keyboard-response","124","128577","0.0-2.0-2.40","","","null","","","","","",""
"629.1000000238419","","image-keyboard-response","125","129207","0.0-2.0-0.41","","img/nature/control/S3.jpg","51","3","Ns4,baseline","51","true","",""
"null","","html-keyboard-response","126","129521","0.0-2.0-1.41","","<img src=""img/nature/control/S3.jpg"" width=""540"" height = ""360"" style=""border:14px solid orange"">","null","","","","","",""
"null","","html-keyboard-response","127","129722","0.0-2.0-2.41","","","null","","","","","",""
"561.7999999523163","","image-keyboard-response","128","130285","0.0-2.0-0.42","","img/nature/control/S4.jpg","52","4","Ns4,baseline","52","true","",""
"null","","html-keyboard-response","129","130587","0.0-2.0-1.42","","<img src=""img/nature/control/S4.jpg"" width=""540"" height = ""360"" style=""border:14px solid orange"">","null","","","","","",""
"null","","html-keyboard-response","130","130791","0.0-2.0-2.42","","","null","","","","","",""
"657.5","","image-keyboard-response","131","131451","0.0-2.0-0.43","","img/nature/control/S1.jpg","49","1","Ns4,baseline","49","true","",""
"null","","html-keyboard-response","132","131764","0.0-2.0-1.43","","<img src=""img/nature/control/S1.jpg"" width=""540"" height = ""360"" style=""border:14px solid orange"">","null","","","","","",""
"null","","html-keyboard-response","133","131966","0.0-2.0-2.43","","","null","","","","","",""
"563.8000000119209","","image-keyboard-response","134","132531","0.0-2.0-0.44","","img/nature/control/S4.jpg","52","4","Ns4,baseline","52","true","",""
"null","","html-keyboard-response","135","132846","0.0-2.0-1.44","","<img src=""img/nature/control/S4.jpg"" width=""540"" height = ""360"" style=""border:14px solid orange"">","null","","","","","",""
"null","","html-keyboard-response","136","133062","0.0-2.0-2.44","","","null","","","","","",""
"1085.5","","image-keyboard-response","137","134149","0.0-2.0-0.45","","img/nature/control/S2.jpg","50","2","Ns4,baseline","50","true","",""
"null","","html-keyboard-response","138","134466","0.0-2.0-1.45","","<img src=""img/nature/control/S2.jpg"" width=""540"" height = ""360"" style=""border:14px solid orange"">","null","","","","","",""
"null","","html-keyboard-response","139","134667","0.0-2.0-2.45","","","null","","","","","",""
"1330.6000000238419","","image-keyboard-response","140","135999","0.0-2.0-0.46","","img/nature/control/S1.jpg","49","1","Ns4,baseline","49","true","",""
"null","","html-keyboard-response","141","136313","0.0-2.0-1.46","","<img src=""img/nature/control/S1.jpg"" width=""540"" height = ""360"" style=""border:14px solid orange"">","null","","","","","",""
"null","","html-keyboard-response","142","136528","0.0-2.0-2.46","","","null","","","","","",""
"734.0999999642372","","image-keyboard-response","143","137263","0.0-2.0-0.47","","img/nature/control/S3.jpg","51","3","Ns4,baseline","51","true","",""
"null","","html-keyboard-response","144","137565","0.0-2.0-1.47","","<img src=""img/nature/control/S3.jpg"" width=""540"" height = ""360"" style=""border:14px solid orange"">","null","","","","","",""
"null","","html-keyboard-response","145","137766","0.0-2.0-2.47","","","null","","","","","",""
"875.5999999642372","","image-keyboard-response","146","138644","0.0-2.0-0.48","","img/nature/control/S2.jpg","50","2","Ns4,baseline","50","true","",""
"null","","html-keyboard-response","147","138959","0.0-2.0-1.48","","<img src=""img/nature/control/S2.jpg"" width=""540"" height = ""360"" style=""border:14px solid orange"">","null","","","","","",""
"null","","html-keyboard-response","148","139162","0.0-2.0-2.48","","","null","","","","","",""
"1583.699999988079","","image-keyboard-response","149","140747","0.0-2.0-0.49","","img/nature/control/S1.jpg","49","1","Ns4,baseline","49","true","",""
"null","","html-keyboard-response","150","141064","0.0-2.0-1.49","","<img src=""img/nature/control/S1.jpg"" width=""540"" height = ""360"" style=""border:14px solid orange"">","null","","","","","",""
"null","","html-keyboard-response","151","141280","0.0-2.0-2.49","","","null","","","","","",""
"611.1999999880791","","image-keyboard-response","152","141892","0.0-2.0-0.50","","img/nature/control/S3.jpg","51","3","Ns4,baseline","51","true","",""
"null","","html-keyboard-response","153","142203","0.0-2.0-1.50","","<img src=""img/nature/control/S3.jpg"" width=""540"" height = ""360"" style=""border:14px solid orange"">","null","","","","","",""
"null","","html-keyboard-response","154","142405","0.0-2.0-2.50","","","null","","","","","",""
"400","","image-keyboard-response","155","142806","0.0-2.0-0.51","","img/nature/control/S4.jpg","52","4","Ns4,baseline","52","true","",""
"null","","html-keyboard-response","156","143112","0.0-2.0-1.51","","<img src=""img/nature/control/S4.jpg"" width=""540"" height = ""360"" style=""border:14px solid orange"">","null","","","","","",""
"null","","html-keyboard-response","157","143314","0.0-2.0-2.51","","","null","","","","","",""
"568.1999999880791","","image-keyboard-response","158","143883","0.0-2.0-0.52","","img/nature/control/S4.jpg","52","4","Ns4,baseline","52","true","",""
"null","","html-keyboard-response","159","144191","0.0-2.0-1.52","","<img src=""img/nature/control/S4.jpg"" width=""540"" height = ""360"" style=""border:14px solid orange"">","null","","","","","",""
"null","","html-keyboard-response","160","144405","0.0-2.0-2.52","","","null","","","","","",""
"1629.699999988079","","image-keyboard-response","161","146036","0.0-2.0-0.53","","img/nature/control/S2.jpg","50","2","Ns4,baseline","50","true","",""
"null","","html-keyboard-response","162","146351","0.0-2.0-1.53","","<img src=""img/nature/control/S2.jpg"" width=""540"" height = ""360"" style=""border:14px solid orange"">","null","","","","","",""
"null","","html-keyboard-response","163","146566","0.0-2.0-2.53","","","null","","","","","",""
"442","","image-keyboard-response","164","147009","0.0-2.0-0.54","","img/nature/control/S3.jpg","49","3","Ns4,baseline","51","false","",""
"null","","html-keyboard-response","165","147311","0.0-2.0-1.54","","<img src=""img/nature/control/S3.jpg"" width=""540"" height = ""360"">","null","","","","","",""
"null","","html-keyboard-response","166","147526","0.0-2.0-2.54","","","null","","","","","",""
"1203.6000000238419","","image-keyboard-response","167","148730","0.0-2.0-0.55","","img/nature/control/S1.jpg","49","1","Ns4,baseline","49","true","",""
"null","","html-keyboard-response","168","149036","0.0-2.0-1.55","","<img src=""img/nature/control/S1.jpg"" width=""540"" height = ""360"" style=""border:14px solid orange"">","null","","","","","",""
"null","","html-keyboard-response","169","149238","0.0-2.0-2.55","","","null","","","","","",""
"1378.699999988079","","image-keyboard-response","170","150620","0.0-2.0-0.56","","img/nature/control/S2.jpg","50","2","Ns4,baseline","50","true","",""
"null","","html-keyboard-response","171","150927","0.0-2.0-1.56","","<img src=""img/nature/control/S2.jpg"" width=""540"" height = ""360"" style=""border:14px solid orange"">","null","","","","","",""
"null","","html-keyboard-response","172","151143","0.0-2.0-2.56","","","null","","","","","",""
"690.6000000238419","","image-keyboard-response","173","151835","0.0-2.0-0.57","","img/nature/control/S1.jpg","51","1","Ns4,baseline","49","false","",""
"null","","html-keyboard-response","174","152148","0.0-2.0-1.57","","<img src=""img/nature/control/S1.jpg"" width=""540"" height = ""360"">","null","","","","","",""
"null","","html-keyboard-response","175","152351","0.0-2.0-2.57","","","null","","","","","",""
"610.1000000238419","","image-keyboard-response","176","152962","0.0-2.0-0.58","","img/nature/control/S4.jpg","52","4","Ns4,baseline","52","true","",""
"null","","html-keyboard-response","177","153278","0.0-2.0-1.58","","<img src=""img/nature/control/S4.jpg"" width=""540"" height = ""360"" style=""border:14px solid orange"">","null","","","","","",""
"null","","html-keyboard-response","178","153494","0.0-2.0-2.58","","","null","","","","","",""
"1154","","image-keyboard-response","179","154649","0.0-2.0-0.59","","img/nature/control/S3.jpg","51","3","Ns4,baseline","51","true","",""
"null","","html-keyboard-response","180","154964","0.0-2.0-1.59","","<img src=""img/nature/control/S3.jpg"" width=""540"" height = ""360"" style=""border:14px solid orange"">","null","","","","","",""
"null","","html-keyboard-response","181","155177","0.0-2.0-2.59","","","null","","","","","",""
"1287.800000011921","","image-keyboard-response","182","156466","0.0-2.0-0.60","","img/nature/control/S2.jpg","49","2","Ns4,baseline","50","false","",""
"null","","html-keyboard-response","183","156782","0.0-2.0-1.60","","<img src=""img/nature/control/S2.jpg"" width=""540"" height = ""360"">","null","","","","","",""
"null","","html-keyboard-response","184","156996","0.0-2.0-2.60","","","null","","","","","",""
"1592.0999999642372","","image-keyboard-response","185","158589","0.0-2.0-0.61","","img/nature/control/S1.jpg","50","1","Ns4,baseline","49","false","",""
"null","","html-keyboard-response","186","158905","0.0-2.0-1.61","","<img src=""img/nature/control/S1.jpg"" width=""540"" height = ""360"">","null","","","","","",""
"null","","html-keyboard-response","187","159121","0.0-2.0-2.61","","","null","","","","","",""
"512.8000000119209","","image-keyboard-response","188","159635","0.0-2.0-0.62","","img/nature/control/S4.jpg","52","4","Ns4,baseline","52","true","",""
"null","","html-keyboard-response","189","159951","0.0-2.0-1.62","","<img src=""img/nature/control/S4.jpg"" width=""540"" height = ""360"" style=""border:14px solid orange"">","null","","","","","",""
"null","","html-keyboard-response","190","160166","0.0-2.0-2.62","","","null","","","","","",""
"1552.4000000357628","","image-keyboard-response","191","161719","0.0-2.0-0.63","","img/nature/control/S3.jpg","51","3","Ns4,baseline","51","true","",""
"null","","html-keyboard-response","192","162030","0.0-2.0-1.63","","<img src=""img/nature/control/S3.jpg"" width=""540"" height = ""360"" style=""border:14px solid orange"">","null","","","","","",""
"null","","html-keyboard-response","193","162245","0.0-2.0-2.63","","","null","","","","","",""
"573.6999999880791","","image-keyboard-response","194","162820","0.0-2.0-0.64","","img/nature/control/S4.jpg","52","4","Ns4,baseline","52","true","",""
"null","","html-keyboard-response","195","163126","0.0-2.0-1.64","","<img src=""img/nature/control/S4.jpg"" width=""540"" height = ""360"" style=""border:14px solid orange"">","null","","","","","",""
"null","","html-keyboard-response","196","163342","0.0-2.0-2.64","","","null","","","","","",""
"786.5999999642372","","image-keyboard-response","197","164129","0.0-2.0-0.65","","img/nature/control/S1.jpg","49","1","Ns4,baseline","49","true","",""
"null","","html-keyboard-response","198","164438","0.0-2.0-1.65","","<img src=""img/nature/control/S1.jpg"" width=""540"" height = ""360"" style=""border:14px solid orange"">","null","","","","","",""
"null","","html-keyboard-response","199","164654","0.0-2.0-2.65","","","null","","","","","",""
"975.9000000357628","","image-keyboard-response","200","165631","0.0-2.0-0.66","","img/nature/control/S3.jpg","50","3","Ns4,baseline","51","false","",""
"null","","html-keyboard-response","201","165937","0.0-2.0-1.66","","<img src=""img/nature/control/S3.jpg"" width=""540"" height = ""360"">","null","","","","","",""
"null","","html-keyboard-response","202","166151","0.0-2.0-2.66","","","null","","","","","",""
"1069","","image-keyboard-response","203","167221","0.0-2.0-0.67","","img/nature/control/S2.jpg","50","2","Ns4,baseline","50","true","",""
"null","","html-keyboard-response","204","167528","0.0-2.0-1.67","","<img src=""img/nature/control/S2.jpg"" width=""540"" height = ""360"" style=""border:14px solid orange"">","null","","","","","",""
"null","","html-keyboard-response","205","167743","0.0-2.0-2.67","","","null","","","","","",""
"604.5","","image-keyboard-response","206","168349","0.0-2.0-0.68","","img/nature/control/S3.jpg","51","3","Ns4,baseline","51","true","",""
"null","","html-keyboard-response","207","168656","0.0-2.0-1.68","","<img src=""img/nature/control/S3.jpg"" width=""540"" height = ""360"" style=""border:14px solid orange"">","null","","","","","",""
"null","","html-keyboard-response","208","168872","0.0-2.0-2.68","","","null","","","","","",""
"593.3999999761581","","image-keyboard-response","209","169466","0.0-2.0-0.69","","img/nature/control/S4.jpg","52","4","Ns4,baseline","52","true","",""
"null","","html-keyboard-response","210","169781","0.0-2.0-1.69","","<img src=""img/nature/control/S4.jpg"" width=""540"" height = ""360"" style=""border:14px solid orange"">","null","","","","","",""
"null","","html-keyboard-response","211","169983","0.0-2.0-2.69","","","null","","","","","",""
"868.6000000238419","","image-keyboard-response","212","170852","0.0-2.0-0.70","","img/nature/control/S1.jpg","49","1","Ns4,baseline","49","true","",""
"null","","html-keyboard-response","213","171158","0.0-2.0-1.70","","<img src=""img/nature/control/S1.jpg"" width=""540"" height = ""360"" style=""border:14px solid orange"">","null","","","","","",""
"null","","html-keyboard-response","214","171361","0.0-2.0-2.70","","","null","","","","","",""
"1037.6000000238419","","image-keyboard-response","215","172399","0.0-2.0-0.71","","img/nature/control/S2.jpg","50","2","Ns4,baseline","50","true","",""
"null","","html-keyboard-response","216","172702","0.0-2.0-1.71","","<img src=""img/nature/control/S2.jpg"" width=""540"" height = ""360"" style=""border:14px solid orange"">","null","","","","","",""
"null","","html-keyboard-response","217","172918","0.0-2.0-2.71","","","null","","","","","",""
"566.6999999880791","","image-keyboard-response","218","173486","0.0-2.0-0.72","","img/nature/control/S3.jpg","51","3","Ns4,baseline","51","true","",""
"null","","html-keyboard-response","219","173795","0.0-2.0-1.72","","<img src=""img/nature/control/S3.jpg"" width=""540"" height = ""360"" style=""border:14px solid orange"">","null","","","","","",""
"null","","html-keyboard-response","220","173996","0.0-2.0-2.72","","","null","","","","","",""
"809.8999999761581","","image-keyboard-response","221","174807","0.0-2.0-0.73","","img/nature/control/S1.jpg","49","1","Ns4,baseline","49","true","",""
"null","","html-keyboard-response","222","175110","0.0-2.0-1.73","","<img src=""img/nature/control/S1.jpg"" width=""540"" height = ""360"" style=""border:14px solid orange"">","null","","","","","",""
"null","","html-keyboard-response","223","175328","0.0-2.0-2.73","","","null","","","","","",""
"586.2000000476837","","image-keyboard-response","224","175916","0.0-2.0-0.74","","img/nature/control/S4.jpg","52","4","Ns4,baseline","52","true","",""
"null","","html-keyboard-response","225","176220","0.0-2.0-1.74","","<img src=""img/nature/control/S4.jpg"" width=""540"" height = ""360"" style=""border:14px solid orange"">","null","","","","","",""
"null","","html-keyboard-response","226","176422","0.0-2.0-2.74","","","null","","","","","",""
"2198.2999999523163","","image-keyboard-response","227","178622","0.0-2.0-0.75","","img/nature/control/S2.jpg","50","2","Ns4,baseline","50","true","",""
"null","","html-keyboard-response","228","178926","0.0-2.0-1.75","","<img src=""img/nature/control/S2.jpg"" width=""540"" height = ""360"" style=""border:14px solid orange"">","null","","","","","",""
"null","","html-keyboard-response","229","179128","0.0-2.0-2.75","","","null","","","","","",""
"634.8999999761581","","image-keyboard-response","230","179764","0.0-2.0-0.76","","img/nature/control/S1.jpg","49","1","Ns4,baseline","49","true","",""
"null","","html-keyboard-response","231","180070","0.0-2.0-1.76","","<img src=""img/nature/control/S1.jpg"" width=""540"" height = ""360"" style=""border:14px solid orange"">","null","","","","","",""
"null","","html-keyboard-response","232","180272","0.0-2.0-2.76","","","null","","","","","",""
"977","","image-keyboard-response","233","181250","0.0-2.0-0.77","","img/nature/control/S3.jpg","51","3","Ns4,baseline","51","true","",""
"null","","html-keyboard-response","234","181556","0.0-2.0-1.77","","<img src=""img/nature/control/S3.jpg"" width=""540"" height = ""360"" style=""border:14px solid orange"">","null","","","","","",""
"null","","html-keyboard-response","235","181771","0.0-2.0-2.77","","","null","","","","","",""
"428.30000001192093","","image-keyboard-response","236","182200","0.0-2.0-0.78","","img/nature/control/S4.jpg","52","4","Ns4,baseline","52","true","",""
"null","","html-keyboard-response","237","182513","0.0-2.0-1.78","","<img src=""img/nature/control/S4.jpg"" width=""540"" height = ""360"" style=""border:14px solid orange"">","null","","","","","",""
"null","","html-keyboard-response","238","182728","0.0-2.0-2.78","","","null","","","","","",""
"906.6999999880791","","image-keyboard-response","239","183637","0.0-2.0-0.79","","img/nature/control/S2.jpg","50","2","Ns4,baseline","50","true","",""
"null","","html-keyboard-response","240","183952","0.0-2.0-1.79","","<img src=""img/nature/control/S2.jpg"" width=""540"" height = ""360"" style=""border:14px solid orange"">","null","","","","","",""
"null","","html-keyboard-response","241","184168","0.0-2.0-2.79","","","null","","","","","",""
"6232.399999976158","","instructions","242","190402","0.0-3.0","[{""page_index"":0,""viewing_time"":6232.199999988079}]","","","","","","","",""
"2667","","instructions","243","193070","0.0-4.0","[{""page_index"":0,""viewing_time"":2666.800000011921}]","","","","","","","",""
"1142.0999999642372","","image-keyboard-response","244","194213","0.0-5.0","","img/nature/S4.jpg","52","4","Ns4,train","52","true","",""
"null","","html-keyboard-response","245","194569","0.0-6.0","","<img src=""img/nature/S4.jpg"" width=""540"" height = ""360"" style=""border:14px solid orange"">","null","","","","","",""
"null","","html-keyboard-response","246","194770","0.0-7.0","","","null","","","","","",""
"753.2000000476837","","image-keyboard-response","247","195525","0.0-8.0","","img/nature/S4.jpg","52","4","Ns4,train","52","true","",""
"null","","html-keyboard-response","248","195885","0.0-9.0","","<img src=""img/nature/S4.jpg"" width=""540"" height = ""360"" style=""border:14px solid orange"">","null","","","","","",""
"null","","html-keyboard-response","249","196100","0.0-10.0","","","null","","","","","",""
"866.7999999523163","","image-keyboard-response","250","196968","0.0-11.0","","img/nature/S2.jpg","51","2","Ns4,train","50","false","",""
"null","","html-keyboard-response","251","197323","0.0-12.0","","<img src=""img/nature/S2.jpg"" width=""540"" height = ""360"">","null","","","","","",""
"null","","html-keyboard-response","252","197539","0.0-13.0","","","null","","","","","",""
"1271.699999988079","","image-keyboard-response","253","198812","0.0-14.0","","img/nature/S1.jpg","51","1","Ns4,train","49","false","",""
"null","","html-keyboard-response","254","199166","0.0-15.0","","<img src=""img/nature/S1.jpg"" width=""540"" height = ""360"">","null","","","","","",""
"null","","html-keyboard-response","255","199382","0.0-16.0","","","null","","","","","",""
"840.5","","image-keyboard-response","256","200224","0.0-17.0","","img/nature/S4.jpg","52","4","Ns4,train","52","true","",""
"null","","html-keyboard-response","257","200590","0.0-18.0","","<img src=""img/nature/S4.jpg"" width=""540"" height = ""360"" style=""border:14px solid orange"">","null","","","","","",""
"null","","html-keyboard-response","258","200806","0.0-19.0","","","null","","","","","",""
"828.5999999642372","","image-keyboard-response","259","201636","0.0-20.0","","img/nature/S4.jpg","52","4","Ns4,train","52","true","",""
"null","","html-keyboard-response","260","202002","0.0-21.0","","<img src=""img/nature/S4.jpg"" width=""540"" height = ""360"" style=""border:14px solid orange"">","null","","","","","",""
"null","","html-keyboard-response","261","202218","0.0-22.0","","","null","","","","","",""
"745.3000000119209","","image-keyboard-response","262","202964","0.0-23.0","","img/nature/S2.jpg","49","2","Ns4,train","50","false","",""
"null","","html-keyboard-response","263","203316","0.0-24.0","","<img src=""img/nature/S2.jpg"" width=""540"" height = ""360"">","null","","","","","",""
"null","","html-keyboard-response","264","203532","0.0-25.0","","","null","","","","","",""
"1413.199999988079","","image-keyboard-response","265","204946","0.0-26.0","","img/nature/S1.jpg","49","1","Ns4,train","49","true","",""
"null","","html-keyboard-response","266","205307","0.0-27.0","","<img src=""img/nature/S1.jpg"" width=""540"" height = ""360"" style=""border:14px solid orange"">","null","","","","","",""
"null","","html-keyboard-response","267","205522","0.0-28.0","","","null","","","","","",""
"1098.699999988079","","image-keyboard-response","268","206622","0.0-29.0","","img/nature/S2.jpg","50","2","Ns4,train","50","true","",""
"null","","html-keyboard-response","269","206975","0.0-30.0","","<img src=""img/nature/S2.jpg"" width=""540"" height = ""360"" style=""border:14px solid orange"">","null","","","","","",""
"null","","html-keyboard-response","270","207190","0.0-31.0","","","null","","","","","",""
"698.6000000238419","","image-keyboard-response","271","207891","0.0-32.0","","img/nature/S1.jpg","49","1","Ns4,train","49","true","",""
"null","","html-keyboard-response","272","208252","0.0-33.0","","<img src=""img/nature/S1.jpg"" width=""540"" height = ""360"" style=""border:14px solid orange"">","null","","","","","",""
"null","","html-keyboard-response","273","208454","0.0-34.0","","","null","","","","","",""
"1179","","image-keyboard-response","274","209634","0.0-35.0","","img/nature/S3.jpg","51","3","Ns4,train","51","true","",""
"null","","html-keyboard-response","275","209996","0.0-36.0","","<img src=""img/nature/S3.jpg"" width=""540"" height = ""360"" style=""border:14px solid orange"">","null","","","","","",""
"null","","html-keyboard-response","276","210198","0.0-37.0","","","null","","","","","",""
"613.8999999761581","","image-keyboard-response","277","210813","0.0-38.0","","img/nature/S3.jpg","51","3","Ns4,train","51","true","",""
"null","","html-keyboard-response","278","211170","0.0-39.0","","<img src=""img/nature/S3.jpg"" width=""540"" height = ""360"" style=""border:14px solid orange"">","null","","","","","",""
"null","","html-keyboard-response","279","211388","0.0-40.0","","","null","","","","","",""
"1011.4000000357628","","image-keyboard-response","280","212402","0.0-41.0","","img/nature/S2.jpg","49","2","Ns4,train","50","false","",""
"null","","html-keyboard-response","281","212765","0.0-42.0","","<img src=""img/nature/S2.jpg"" width=""540"" height = ""360"">","null","","","","","",""
"null","","html-keyboard-response","282","212967","0.0-43.0","","","null","","","","","",""
"1133.1000000238419","","image-keyboard-response","283","214101","0.0-44.0","","img/nature/S1.jpg","49","1","Ns4,train","49","true","",""
"null","","html-keyboard-response","284","214475","0.0-45.0","","<img src=""img/nature/S1.jpg"" width=""540"" height = ""360"" style=""border:14px solid orange"">","null","","","","","",""
"null","","html-keyboard-response","285","214681","0.0-46.0","","","null","","","","","",""
"1392.199999988079","","image-keyboard-response","286","216074","0.0-47.0","","img/nature/S3.jpg","51","3","Ns4,train","51","true","",""
"null","","html-keyboard-response","287","216427","0.0-48.0","","<img src=""img/nature/S3.jpg"" width=""540"" height = ""360"" style=""border:14px solid orange"">","null","","","","","",""
"null","","html-keyboard-response","288","216643","0.0-49.0","","","null","","","","","",""
"482.9000000357628","","image-keyboard-response","289","217127","0.0-50.0","","img/nature/S3.jpg","51","3","Ns4,train","51","true","",""
"null","","html-keyboard-response","290","217488","0.0-51.0","","<img src=""img/nature/S3.jpg"" width=""540"" height = ""360"" style=""border:14px solid orange"">","null","","","","","",""
"null","","html-keyboard-response","291","217705","0.0-52.0","","","null","","","","","",""
"830.6000000238419","","image-keyboard-response","292","218537","0.0-53.0","","img/nature/S2.jpg","50","2","Ns4,train","50","true","",""
"null","","html-keyboard-response","293","218891","0.0-54.0","","<img src=""img/nature/S2.jpg"" width=""540"" height = ""360"" style=""border:14px solid orange"">","null","","","","","",""
"null","","html-keyboard-response","294","219106","0.0-55.0","","","null","","","","","",""
"829.3999999761581","","image-keyboard-response","295","219936","0.0-56.0","","img/nature/S1.jpg","49","1","Ns4,train","49","true","",""
"null","","html-keyboard-response","296","220293","0.0-57.0","","<img src=""img/nature/S1.jpg"" width=""540"" height = ""360"" style=""border:14px solid orange"">","null","","","","","",""
"null","","html-keyboard-response","297","220505","0.0-58.0","","","null","","","","","",""
"795.8000000119209","","image-keyboard-response","298","221303","0.0-59.0","","img/nature/S3.jpg","51","3","Ns4,train","51","true","",""
"null","","html-keyboard-response","299","221658","0.0-60.0","","<img src=""img/nature/S3.jpg"" width=""540"" height = ""360"" style=""border:14px solid orange"">","null","","","","","",""
"null","","html-keyboard-response","300","221873","0.0-61.0","","","null","","","","","",""
"623.5","","image-keyboard-response","301","222497","0.0-62.0","","img/nature/S4.jpg","52","4","Ns4,train","52","true","",""
"null","","html-keyboard-response","302","222861","0.0-63.0","","<img src=""img/nature/S4.jpg"" width=""540"" height = ""360"" style=""border:14px solid orange"">","null","","","","","",""
"null","","html-keyboard-response","303","223077","0.0-64.0","","","null","","","","","",""
"1479.5","","image-keyboard-response","304","224558","0.0-65.0","","img/nature/S3.jpg","51","3","Ns4,train","51","true","",""
"null","","html-keyboard-response","305","224916","0.0-66.0","","<img src=""img/nature/S3.jpg"" width=""540"" height = ""360"" style=""border:14px solid orange"">","null","","","","","",""
"null","","html-keyboard-response","306","225117","0.0-67.0","","","null","","","","","",""
"547","","image-keyboard-response","307","225666","0.0-68.0","","img/nature/S3.jpg","51","3","Ns4,train","51","true","",""
"null","","html-keyboard-response","308","226031","0.0-69.0","","<img src=""img/nature/S3.jpg"" width=""540"" height = ""360"" style=""border:14px solid orange"">","null","","","","","",""
"null","","html-keyboard-response","309","226233","0.0-70.0","","","null","","","","","",""
"794.8000000119209","","image-keyboard-response","310","227029","0.0-71.0","","img/nature/S2.jpg","49","2","Ns4,train","50","false","",""
"null","","html-keyboard-response","311","227382","0.0-72.0","","<img src=""img/nature/S2.jpg"" width=""540"" height = ""360"">","null","","","","","",""
"null","","html-keyboard-response","312","227584","0.0-73.0","","","null","","","","","",""
"1017.5","","image-keyboard-response","313","228602","0.0-74.0","","img/nature/S1.jpg","49","1","Ns4,train","49","true","",""
"null","","html-keyboard-response","314","228962","0.0-75.0","","<img src=""img/nature/S1.jpg"" width=""540"" height = ""360"" style=""border:14px solid orange"">","null","","","","","",""
"null","","html-keyboard-response","315","229178","0.0-76.0","","","null","","","","","",""
"1356.6000000238419","","image-keyboard-response","316","230535","0.0-77.0","","img/nature/S3.jpg","51","3","Ns4,train","51","true","",""
"null","","html-keyboard-response","317","230900","0.0-78.0","","<img src=""img/nature/S3.jpg"" width=""540"" height = ""360"" style=""border:14px solid orange"">","null","","","","","",""
"null","","html-keyboard-response","318","231102","0.0-79.0","","","null","","","","","",""
"1420.699999988079","","image-keyboard-response","319","232524","0.0-80.0","","img/nature/S2.jpg","50","2","Ns4,train","50","true","",""
"null","","html-keyboard-response","320","232882","0.0-81.0","","<img src=""img/nature/S2.jpg"" width=""540"" height = ""360"" style=""border:14px solid orange"">","null","","","","","",""
"null","","html-keyboard-response","321","233100","0.0-82.0","","","null","","","","","",""
"584.9000000357628","","image-keyboard-response","322","233687","0.0-83.0","","img/nature/S1.jpg","49","1","Ns4,train","49","true","",""
"null","","html-keyboard-response","323","234043","0.0-84.0","","<img src=""img/nature/S1.jpg"" width=""540"" height = ""360"" style=""border:14px solid orange"">","null","","","","","",""
"null","","html-keyboard-response","324","234246","0.0-85.0","","","null","","","","","",""
"860","","image-keyboard-response","325","235107","0.0-86.0","","img/nature/S3.jpg","51","3","Ns4,train","51","true","",""
"null","","html-keyboard-response","326","235470","0.0-87.0","","<img src=""img/nature/S3.jpg"" width=""540"" height = ""360"" style=""border:14px solid orange"">","null","","","","","",""
"null","","html-keyboard-response","327","235686","0.0-88.0","","","null","","","","","",""
"762.5","","image-keyboard-response","328","236449","0.0-89.0","","img/nature/S2.jpg","50","2","Ns4,train","50","true","",""
"null","","html-keyboard-response","329","236814","0.0-90.0","","<img src=""img/nature/S2.jpg"" width=""540"" height = ""360"" style=""border:14px solid orange"">","null","","","","","",""
"null","","html-keyboard-response","330","237029","0.0-91.0","","","null","","","","","",""
"1299.300000011921","","image-keyboard-response","331","238330","0.0-92.0","","img/nature/S1.jpg","49","1","Ns4,train","49","true","",""
"null","","html-keyboard-response","332","238694","0.0-93.0","","<img src=""img/nature/S1.jpg"" width=""540"" height = ""360"" style=""border:14px solid orange"">","null","","","","","",""
"null","","html-keyboard-response","333","238911","0.0-94.0","","","null","","","","","",""
"853.6999999880791","","image-keyboard-response","334","239766","0.0-95.0","","img/nature/S3.jpg","51","3","Ns4,train","51","true","",""
"null","","html-keyboard-response","335","240119","0.0-96.0","","<img src=""img/nature/S3.jpg"" width=""540"" height = ""360"" style=""border:14px solid orange"">","null","","","","","",""
"null","","html-keyboard-response","336","240336","0.0-97.0","","","null","","","","","",""
"539.9000000357628","","image-keyboard-response","337","240877","0.0-98.0","","img/nature/S4.jpg","52","4","Ns4,train","52","true","",""
"null","","html-keyboard-response","338","241229","0.0-99.0","","<img src=""img/nature/S4.jpg"" width=""540"" height = ""360"" style=""border:14px solid orange"">","null","","","","","",""
"null","","html-keyboard-response","339","241432","0.0-100.0","","","null","","","","","",""
"559","","image-keyboard-response","340","241992","0.0-101.0","","img/nature/S4.jpg","52","4","Ns4,train","52","true","",""
"null","","html-keyboard-response","341","242346","0.0-102.0","","<img src=""img/nature/S4.jpg"" width=""540"" height = ""360"" style=""border:14px solid orange"">","null","","","","","",""
"null","","html-keyboard-response","342","242563","0.0-103.0","","","null","","","","","",""
"1353.3999999761581","","image-keyboard-response","343","243918","0.0-104.0","","img/nature/S2.jpg","50","2","Ns4,train","50","true","",""
"null","","html-keyboard-response","344","244281","0.0-105.0","","<img src=""img/nature/S2.jpg"" width=""540"" height = ""360"" style=""border:14px solid orange"">","null","","","","","",""
"null","","html-keyboard-response","345","244482","0.0-106.0","","","null","","","","","",""
"498.80000001192093","","image-keyboard-response","346","244983","0.0-107.0","","img/nature/S1.jpg","49","1","Ns4,train","49","true","",""
"null","","html-keyboard-response","347","245349","0.0-108.0","","<img src=""img/nature/S1.jpg"" width=""540"" height = ""360"" style=""border:14px solid orange"">","null","","","","","",""
"null","","html-keyboard-response","348","245564","0.0-109.0","","","null","","","","","",""
"804.7999999523163","","image-keyboard-response","349","246370","0.0-110.0","","img/nature/S3.jpg","51","3","Ns4,train","51","true","",""
"null","","html-keyboard-response","350","246728","0.0-111.0","","<img src=""img/nature/S3.jpg"" width=""540"" height = ""360"" style=""border:14px solid orange"">","null","","","","","",""
"null","","html-keyboard-response","351","246944","0.0-112.0","","","null","","","","","",""
"397.39999997615814","","image-keyboard-response","352","247342","0.0-113.0","","img/nature/S4.jpg","52","4","Ns4,train","52","true","",""
"null","","html-keyboard-response","353","247703","0.0-114.0","","<img src=""img/nature/S4.jpg"" width=""540"" height = ""360"" style=""border:14px solid orange"">","null","","","","","",""
"null","","html-keyboard-response","354","247919","0.0-115.0","","","null","","","","","",""
"499.5","","image-keyboard-response","355","248419","0.0-116.0","","img/nature/S4.jpg","52","4","Ns4,train","52","true","",""
"null","","html-keyboard-response","356","248779","0.0-117.0","","<img src=""img/nature/S4.jpg"" width=""540"" height = ""360"" style=""border:14px solid orange"">","null","","","","","",""
"null","","html-keyboard-response","357","248995","0.0-118.0","","","null","","","","","",""
"1586.199999988079","","image-keyboard-response","358","250582","0.0-119.0","","img/nature/S2.jpg","50","2","Ns4,train","50","true","",""
"null","","html-keyboard-response","359","250935","0.0-120.0","","<img src=""img/nature/S2.jpg"" width=""540"" height = ""360"" style=""border:14px solid orange"">","null","","","","","",""
"null","","html-keyboard-response","360","251151","0.0-121.0","","","null","","","","","",""
"412.69999998807907","","image-keyboard-response","361","251565","0.0-122.0","","img/nature/S1.jpg","49","1","Ns4,train","49","true","",""
"null","","html-keyboard-response","362","251921","0.0-123.0","","<img src=""img/nature/S1.jpg"" width=""540"" height = ""360"" style=""border:14px solid orange"">","null","","","","","",""
"null","","html-keyboard-response","363","252137","0.0-124.0","","","null","","","","","",""
"624.3999999761581","","image-keyboard-response","364","252763","0.0-125.0","","img/nature/S4.jpg","52","4","Ns4,train","52","true","",""
"null","","html-keyboard-response","365","253126","0.0-126.0","","<img src=""img/nature/S4.jpg"" width=""540"" height = ""360"" style=""border:14px solid orange"">","null","","","","","",""
"null","","html-keyboard-response","366","253342","0.0-127.0","","","null","","","","","",""
"491.69999998807907","","image-keyboard-response","367","253835","0.0-128.0","","img/nature/S4.jpg","52","4","Ns4,train","52","true","",""
"null","","html-keyboard-response","368","254192","0.0-129.0","","<img src=""img/nature/S4.jpg"" width=""540"" height = ""360"" style=""border:14px solid orange"">","null","","","","","",""
"null","","html-keyboard-response","369","254408","0.0-130.0","","","null","","","","","",""
"970.8999999761581","","image-keyboard-response","370","255380","0.0-131.0","","img/nature/S2.jpg","49","2","Ns4,train","50","false","",""
"null","","html-keyboard-response","371","255734","0.0-132.0","","<img src=""img/nature/S2.jpg"" width=""540"" height = ""360"">","null","","","","","",""
"null","","html-keyboard-response","372","255952","0.0-133.0","","","null","","","","","",""
"723.7999999523163","","image-keyboard-response","373","256676","0.0-134.0","","img/nature/S1.jpg","49","1","Ns4,train","49","true","",""
"null","","html-keyboard-response","374","257031","0.0-135.0","","<img src=""img/nature/S1.jpg"" width=""540"" height = ""360"" style=""border:14px solid orange"">","null","","","","","",""
"null","","html-keyboard-response","375","257232","0.0-136.0","","","null","","","","","",""
"610.9000000357628","","image-keyboard-response","376","257844","0.0-137.0","","img/nature/S3.jpg","51","3","Ns4,train","51","true","",""
"null","","html-keyboard-response","377","258207","0.0-138.0","","<img src=""img/nature/S3.jpg"" width=""540"" height = ""360"" style=""border:14px solid orange"">","null","","","","","",""
"null","","html-keyboard-response","378","258422","0.0-139.0","","","null","","","","","",""
"441.10000002384186","","image-keyboard-response","379","258864","0.0-140.0","","img/nature/S3.jpg","51","3","Ns4,train","51","true","",""
"null","","html-keyboard-response","380","259228","0.0-141.0","","<img src=""img/nature/S3.jpg"" width=""540"" height = ""360"" style=""border:14px solid orange"">","null","","","","","",""
"null","","html-keyboard-response","381","259460","0.0-142.0","","","null","","","","","",""
"464.69999998807907","","image-keyboard-response","382","259926","0.0-143.0","","img/nature/S3.jpg","51","3","Ns4,train","51","true","",""
"null","","html-keyboard-response","383","260292","0.0-144.0","","<img src=""img/nature/S3.jpg"" width=""540"" height = ""360"" style=""border:14px solid orange"">","null","","","","","",""
"null","","html-keyboard-response","384","260508","0.0-145.0","","","null","","","","","",""
"465.7999999523163","","image-keyboard-response","385","260975","0.0-146.0","","img/nature/S4.jpg","52","4","Ns4,train","52","true","",""
"null","","html-keyboard-response","386","261328","0.0-147.0","","<img src=""img/nature/S4.jpg"" width=""540"" height = ""360"" style=""border:14px solid orange"">","null","","","","","",""
"null","","html-keyboard-response","387","261543","0.0-148.0","","","null","","","","","",""
"647.8000000119209","","image-keyboard-response","388","262192","0.0-149.0","","img/nature/S3.jpg","51","3","Ns4,train","51","true","",""
"null","","html-keyboard-response","389","262549","0.0-150.0","","<img src=""img/nature/S3.jpg"" width=""540"" height = ""360"" style=""border:14px solid orange"">","null","","","","","",""
"null","","html-keyboard-response","390","262749","0.0-151.0","","","null","","","","","",""
"629.6000000238419","","image-keyboard-response","391","263380","0.0-152.0","","img/nature/S4.jpg","52","4","Ns4,train","52","true","",""
"null","","html-keyboard-response","392","263737","0.0-153.0","","<img src=""img/nature/S4.jpg"" width=""540"" height = ""360"" style=""border:14px solid orange"">","null","","","","","",""
"null","","html-keyboard-response","393","263952","0.0-154.0","","","null","","","","","",""
"1757.3999999761581","","image-keyboard-response","394","265711","0.0-155.0","","img/nature/S2.jpg","50","2","Ns4,train","50","true","",""
"null","","html-keyboard-response","395","266074","0.0-156.0","","<img src=""img/nature/S2.jpg"" width=""540"" height = ""360"" style=""border:14px solid orange"">","null","","","","","",""
"null","","html-keyboard-response","396","266289","0.0-157.0","","","null","","","","","",""
"518.8999999761581","","image-keyboard-response","397","266809","0.0-158.0","","img/nature/S1.jpg","49","1","Ns4,train","49","true","",""
"null","","html-keyboard-response","398","267170","0.0-159.0","","<img src=""img/nature/S1.jpg"" width=""540"" height = ""360"" style=""border:14px solid orange"">","null","","","","","",""
"null","","html-keyboard-response","399","267386","0.0-160.0","","","null","","","","","",""
"667.1999999880791","","image-keyboard-response","400","268054","0.0-161.0","","img/nature/S3.jpg","51","3","Ns4,train","51","true","",""
"null","","html-keyboard-response","401","268407","0.0-162.0","","<img src=""img/nature/S3.jpg"" width=""540"" height = ""360"" style=""border:14px solid orange"">","null","","","","","",""
"null","","html-keyboard-response","402","268609","0.0-163.0","","","null","","","","","",""
"485.60000002384186","","image-keyboard-response","403","269096","0.0-164.0","","img/nature/S4.jpg","52","4","Ns4,train","52","true","",""
"null","","html-keyboard-response","404","269458","0.0-165.0","","<img src=""img/nature/S4.jpg"" width=""540"" height = ""360"" style=""border:14px solid orange"">","null","","","","","",""
"null","","html-keyboard-response","405","269675","0.0-166.0","","","null","","","","","",""
"679.3999999761581","","image-keyboard-response","406","270356","0.0-167.0","","img/nature/S2.jpg","50","2","Ns4,train","50","true","",""
"null","","html-keyboard-response","407","270723","0.0-168.0","","<img src=""img/nature/S2.jpg"" width=""540"" height = ""360"" style=""border:14px solid orange"">","null","","","","","",""
"null","","html-keyboard-response","408","270939","0.0-169.0","","","null","","","","","",""
"865.8000000119209","","image-keyboard-response","409","271806","0.0-170.0","","img/nature/S1.jpg","49","1","Ns4,train","49","true","",""
"null","","html-keyboard-response","410","272159","0.0-171.0","","<img src=""img/nature/S1.jpg"" width=""540"" height = ""360"" style=""border:14px solid orange"">","null","","","","","",""
"null","","html-keyboard-response","411","272361","0.0-172.0","","","null","","","","","",""
"673.5999999642372","","image-keyboard-response","412","273035","0.0-173.0","","img/nature/S3.jpg","51","3","Ns4,train","51","true","",""
"null","","html-keyboard-response","413","273396","0.0-174.0","","<img src=""img/nature/S3.jpg"" width=""540"" height = ""360"" style=""border:14px solid orange"">","null","","","","","",""
"null","","html-keyboard-response","414","273599","0.0-175.0","","","null","","","","","",""
"779.4000000357628","","image-keyboard-response","415","274380","0.0-176.0","","img/nature/S2.jpg","50","2","Ns4,train","50","true","",""
"null","","html-keyboard-response","416","274742","0.0-177.0","","<img src=""img/nature/S2.jpg"" width=""540"" height = ""360"" style=""border:14px solid orange"">","null","","","","","",""
"null","","html-keyboard-response","417","274945","0.0-178.0","","","null","","","","","",""
"398.80000001192093","","image-keyboard-response","418","275345","0.0-179.0","","img/nature/S1.jpg","49","1","Ns4,train","49","true","",""
"null","","html-keyboard-response","419","275702","0.0-180.0","","<img src=""img/nature/S1.jpg"" width=""540"" height = ""360"" style=""border:14px solid orange"">","null","","","","","",""
"null","","html-keyboard-response","420","275919","0.0-181.0","","","null","","","","","",""
"781.5","","image-keyboard-response","421","276701","0.0-182.0","","img/nature/S2.jpg","50","2","Ns4,train","50","true","",""
"null","","html-keyboard-response","422","277063","0.0-183.0","","<img src=""img/nature/S2.jpg"" width=""540"" height = ""360"" style=""border:14px solid orange"">","null","","","","","",""
"null","","html-keyboard-response","423","277264","0.0-184.0","","","null","","","","","",""
"678.5","","image-keyboard-response","424","277944","0.0-185.0","","img/nature/S1.jpg","50","1","Ns4,train","49","false","",""
"null","","html-keyboard-response","425","278299","0.0-186.0","","<img src=""img/nature/S1.jpg"" width=""540"" height = ""360"">","null","","","","","",""
"null","","html-keyboard-response","426","278502","0.0-187.0","","","null","","","","","",""
"1715.5","","image-keyboard-response","427","280219","0.0-188.0","","img/nature/S2.jpg","50","2","Ns4,train","50","true","",""
"null","","html-keyboard-response","428","280581","0.0-189.0","","<img src=""img/nature/S2.jpg"" width=""540"" height = ""360"" style=""border:14px solid orange"">","null","","","","","",""
"null","","html-keyboard-response","429","280796","0.0-190.0","","","null","","","","","",""
"842.6000000238419","","image-keyboard-response","430","281639","0.0-191.0","","img/nature/S1.jpg","49","1","Ns4,train","49","true","",""
"null","","html-keyboard-response","431","281997","0.0-192.0","","<img src=""img/nature/S1.jpg"" width=""540"" height = ""360"" style=""border:14px solid orange"">","null","","","","","",""
"null","","html-keyboard-response","432","282213","0.0-193.0","","","null","","","","","",""
"704.9000000357628","","image-keyboard-response","433","282919","0.0-194.0","","img/nature/S3.jpg","51","3","Ns4,train","51","true","",""
"null","","html-keyboard-response","434","283280","0.0-195.0","","<img src=""img/nature/S3.jpg"" width=""540"" height = ""360"" style=""border:14px solid orange"">","null","","","","","",""
"null","","html-keyboard-response","435","283496","0.0-196.0","","","null","","","","","",""
"505.80000001192093","","image-keyboard-response","436","284003","0.0-197.0","","img/nature/S4.jpg","52","4","Ns4,train","52","true","",""
"null","","html-keyboard-response","437","284360","0.0-198.0","","<img src=""img/nature/S4.jpg"" width=""540"" height = ""360"" style=""border:14px solid orange"">","null","","","","","",""
"null","","html-keyboard-response","438","284576","0.0-199.0","","","null","","","","","",""
"1803","","image-keyboard-response","439","286380","0.0-200.0","","img/nature/S3.jpg","51","3","Ns4,train","51","true","",""
"null","","html-keyboard-response","440","286741","0.0-201.0","","<img src=""img/nature/S3.jpg"" width=""540"" height = ""360"" style=""border:14px solid orange"">","null","","","","","",""
"null","","html-keyboard-response","441","286958","0.0-202.0","","","null","","","","","",""
"624.9000000357628","","image-keyboard-response","442","287585","0.0-203.0","","img/nature/S4.jpg","52","4","Ns4,train","52","true","",""
"null","","html-keyboard-response","443","287945","0.0-204.0","","<img src=""img/nature/S4.jpg"" width=""540"" height = ""360"" style=""border:14px solid orange"">","null","","","","","",""
"null","","html-keyboard-response","444","288146","0.0-205.0","","","null","","","","","",""
"458.69999998807907","","image-keyboard-response","445","288606","0.0-206.0","","img/nature/S4.jpg","52","4","Ns4,train","52","true","",""
"null","","html-keyboard-response","446","288969","0.0-207.0","","<img src=""img/nature/S4.jpg"" width=""540"" height = ""360"" style=""border:14px solid orange"">","null","","","","","",""
"null","","html-keyboard-response","447","289173","0.0-208.0","","","null","","","","","",""
"1193.8999999761581","","image-keyboard-response","448","290368","0.0-209.0","","img/nature/S2.jpg","49","2","Ns4,train","50","false","",""
"null","","html-keyboard-response","449","290720","0.0-210.0","","<img src=""img/nature/S2.jpg"" width=""540"" height = ""360"">","null","","","","","",""
"null","","html-keyboard-response","450","290937","0.0-211.0","","","null","","","","","",""
"701.1000000238419","","image-keyboard-response","451","291639","0.0-212.0","","img/nature/S1.jpg","49","1","Ns4,train","49","true","",""
"null","","html-keyboard-response","452","292005","0.0-213.0","","<img src=""img/nature/S1.jpg"" width=""540"" height = ""360"" style=""border:14px solid orange"">","null","","","","","",""
"null","","html-keyboard-response","453","292207","0.0-214.0","","","null","","","","","",""
"825.3000000119209","","image-keyboard-response","454","293034","0.0-215.0","","img/nature/S2.jpg","50","2","Ns4,train","50","true","",""
"null","","html-keyboard-response","455","293398","0.0-216.0","","<img src=""img/nature/S2.jpg"" width=""540"" height = ""360"" style=""border:14px solid orange"">","null","","","","","",""
"null","","html-keyboard-response","456","293614","0.0-217.0","","","null","","","","","",""
"671.4000000357628","","image-keyboard-response","457","294286","0.0-218.0","","img/nature/S1.jpg","49","1","Ns4,train","49","true","",""
"null","","html-keyboard-response","458","294647","0.0-219.0","","<img src=""img/nature/S1.jpg"" width=""540"" height = ""360"" style=""border:14px solid orange"">","null","","","","","",""
"null","","html-keyboard-response","459","294848","0.0-220.0","","","null","","","","","",""
"516.9000000357628","","image-keyboard-response","460","295367","0.0-221.0","","img/nature/S4.jpg","52","4","Ns4,train","52","true","",""
"null","","html-keyboard-response","461","295727","0.0-222.0","","<img src=""img/nature/S4.jpg"" width=""540"" height = ""360"" style=""border:14px solid orange"">","null","","","","","",""
"null","","html-keyboard-response","462","295929","0.0-223.0","","","null","","","","","",""
"846","","image-keyboard-response","463","296777","0.0-224.0","","img/nature/S4.jpg","52","4","Ns4,train","52","true","",""
"null","","html-keyboard-response","464","297129","0.0-225.0","","<img src=""img/nature/S4.jpg"" width=""540"" height = ""360"" style=""border:14px solid orange"">","null","","","","","",""
"null","","html-keyboard-response","465","297344","0.0-226.0","","","null","","","","","",""
"1200.699999988079","","image-keyboard-response","466","298546","0.0-227.0","","img/nature/S2.jpg","50","2","Ns4,train","50","true","",""
"null","","html-keyboard-response","467","298907","0.0-228.0","","<img src=""img/nature/S2.jpg"" width=""540"" height = ""360"" style=""border:14px solid orange"">","null","","","","","",""
"null","","html-keyboard-response","468","299123","0.0-229.0","","","null","","","","","",""
"676.6000000238419","","image-keyboard-response","469","299801","0.0-230.0","","img/nature/S1.jpg","49","1","Ns4,train","49","true","",""
"null","","html-keyboard-response","470","300158","0.0-231.0","","<img src=""img/nature/S1.jpg"" width=""540"" height = ""360"" style=""border:14px solid orange"">","null","","","","","",""
"null","","html-keyboard-response","471","300375","0.0-232.0","","","null","","","","","",""
"565.2999999523163","","image-keyboard-response","472","300942","0.0-233.0","","img/nature/S4.jpg","52","4","Ns4,train","52","true","",""
"null","","html-keyboard-response","473","301307","0.0-234.0","","<img src=""img/nature/S4.jpg"" width=""540"" height = ""360"" style=""border:14px solid orange"">","null","","","","","",""
"null","","html-keyboard-response","474","301509","0.0-235.0","","","null","","","","","",""
"732.3000000119209","","image-keyboard-response","475","302243","0.0-236.0","","img/nature/S3.jpg","51","3","Ns4,train","51","true","",""
"null","","html-keyboard-response","476","302604","0.0-237.0","","<img src=""img/nature/S3.jpg"" width=""540"" height = ""360"" style=""border:14px solid orange"">","null","","","","","",""
"null","","html-keyboard-response","477","302819","0.0-238.0","","","null","","","","","",""
"1276.3999999761581","","image-keyboard-response","478","304097","0.0-239.0","","img/nature/S2.jpg","50","2","Ns4,train","50","true","",""
"null","","html-keyboard-response","479","304456","0.0-240.0","","<img src=""img/nature/S2.jpg"" width=""540"" height = ""360"" style=""border:14px solid orange"">","null","","","","","",""
"null","","html-keyboard-response","480","304657","0.0-241.0","","","null","","","","","",""
"880.3000000119209","","image-keyboard-response","481","305540","0.0-242.0","","img/nature/S1.jpg","49","1","Ns4,train","49","true","",""
"null","","html-keyboard-response","482","305897","0.0-243.0","","<img src=""img/nature/S1.jpg"" width=""540"" height = ""360"" style=""border:14px solid orange"">","null","","","","","",""
"null","","html-keyboard-response","483","306112","0.0-244.0","","","null","","","","","",""
"3789.7999999523163","","html-keyboard-response","484","309904","0.0-245.0","","<p class=""center-content"">You have completed a block! </p><p class=""center-content"">Press any key on the keyboard to continue to the next block,</p><p class=""center-content"">or wait for the automatic progression to the next block after one minute.</p>","32","","","","","",""
"1426.9000000357628","","image-keyboard-response","485","311333","0.0-246.0","","img/nature/S2.jpg","50","2","Ns4,perform","50","true","",""
"null","","html-keyboard-response","486","311694","0.0-247.0","","<img src=""img/nature/S2.jpg"" width=""540"" height = ""360"" style=""border:14px solid orange"">","null","","","","","",""
"null","","html-keyboard-response","487","311910","0.0-248.0","","","null","","","","","",""
"513.3999999761581","","image-keyboard-response","488","312426","0.0-249.0","","img/nature/S1.jpg","49","1","Ns4,perform","49","true","",""
"null","","html-keyboard-response","489","312784","0.0-250.0","","<img src=""img/nature/S1.jpg"" width=""540"" height = ""360"" style=""border:14px solid orange"">","null","","","","","",""
"null","","html-keyboard-response","490","313000","0.0-251.0","","","null","","","","","",""
"1253.3999999761581","","image-keyboard-response","491","314255","0.0-252.0","","img/nature/S3.jpg","51","3","Ns4,perform","51","true","",""
"null","","html-keyboard-response","492","314617","0.0-253.0","","<img src=""img/nature/S3.jpg"" width=""540"" height = ""360"" style=""border:14px solid orange"">","null","","","","","",""
"null","","html-keyboard-response","493","314818","0.0-254.0","","","null","","","","","",""
"522.2999999523163","","image-keyboard-response","494","315342","0.0-255.0","","img/nature/S3.jpg","51","3","Ns4,perform","51","true","",""
"null","","html-keyboard-response","495","315704","0.0-256.0","","<img src=""img/nature/S3.jpg"" width=""540"" height = ""360"" style=""border:14px solid orange"">","null","","","","","",""
"null","","html-keyboard-response","496","315918","0.0-257.0","","","null","","","","","",""
"760.5","","image-keyboard-response","497","316680","0.0-258.0","","img/nature/S2.jpg","50","2","Ns4,perform","50","true","",""
"null","","html-keyboard-response","498","317047","0.0-259.0","","<img src=""img/nature/S2.jpg"" width=""540"" height = ""360"" style=""border:14px solid orange"">","null","","","","","",""
"null","","html-keyboard-response","499","317265","0.0-260.0","","","null","","","","","",""
"582","","image-keyboard-response","500","317848","0.0-261.0","","img/nature/S1.jpg","49","1","Ns4,perform","49","true","",""
"null","","html-keyboard-response","501","318205","0.0-262.0","","<img src=""img/nature/S1.jpg"" width=""540"" height = ""360"" style=""border:14px solid orange"">","null","","","","","",""
"null","","html-keyboard-response","502","318407","0.0-263.0","","","null","","","","","",""
"639.1999999880791","","image-keyboard-response","503","319047","0.0-264.0","","img/nature/S2.jpg","50","2","Ns4,perform","50","true","",""
"null","","html-keyboard-response","504","319412","0.0-265.0","","<img src=""img/nature/S2.jpg"" width=""540"" height = ""360"" style=""border:14px solid orange"">","null","","","","","",""
"null","","html-keyboard-response","505","319628","0.0-266.0","","","null","","","","","",""
"826.7999999523163","","image-keyboard-response","506","320456","0.0-267.0","","img/nature/S1.jpg","49","1","Ns4,perform","49","true","",""
"null","","html-keyboard-response","507","320818","0.0-268.0","","<img src=""img/nature/S1.jpg"" width=""540"" height = ""360"" style=""border:14px solid orange"">","null","","","","","",""
"null","","html-keyboard-response","508","321033","0.0-269.0","","","null","","","","","",""
"684.6000000238419","","image-keyboard-response","509","321719","0.0-270.0","","img/nature/S2.jpg","50","2","Ns4,perform","50","true","",""
"null","","html-keyboard-response","510","322085","0.0-271.0","","<img src=""img/nature/S2.jpg"" width=""540"" height = ""360"" style=""border:14px solid orange"">","null","","","","","",""
"null","","html-keyboard-response","511","322302","0.0-272.0","","","null","","","","","",""
"548.0999999642372","","image-keyboard-response","512","322852","0.0-273.0","","img/nature/S1.jpg","49","1","Ns4,perform","49","true","",""
"null","","html-keyboard-response","513","323212","0.0-274.0","","<img src=""img/nature/S1.jpg"" width=""540"" height = ""360"" style=""border:14px solid orange"">","null","","","","","",""
"null","","html-keyboard-response","514","323429","0.0-275.0","","","null","","","","","",""
"543.3999999761581","","image-keyboard-response","515","323974","0.0-276.0","","img/nature/S4.jpg","52","4","Ns4,perform","52","true","",""
"null","","html-keyboard-response","516","324325","0.0-277.0","","<img src=""img/nature/S4.jpg"" width=""540"" height = ""360"" style=""border:14px solid orange"">","null","","","","","",""
"null","","html-keyboard-response","517","324540","0.0-278.0","","","null","","","","","",""
"891.5999999642372","","image-keyboard-response","518","325433","0.0-279.0","","img/nature/S3.jpg","51","3","Ns4,perform","51","true","",""
"null","","html-keyboard-response","519","325788","0.0-280.0","","<img src=""img/nature/S3.jpg"" width=""540"" height = ""360"" style=""border:14px solid orange"">","null","","","","","",""
"null","","html-keyboard-response","520","326003","0.0-281.0","","","null","","","","","",""
"487.89999997615814","","image-keyboard-response","521","326492","0.0-282.0","","img/nature/S3.jpg","51","3","Ns4,perform","51","true","",""
"null","","html-keyboard-response","522","326856","0.0-283.0","","<img src=""img/nature/S3.jpg"" width=""540"" height = ""360"" style=""border:14px solid orange"">","null","","","","","",""
"null","","html-keyboard-response","523","327072","0.0-284.0","","","null","","","","","",""
"923.2999999523163","","image-keyboard-response","524","327997","0.0-285.0","","img/nature/S2.jpg","50","2","Ns4,perform","50","true","",""
"null","","html-keyboard-response","525","328358","0.0-286.0","","<img src=""img/nature/S2.jpg"" width=""540"" height = ""360"" style=""border:14px solid orange"">","null","","","","","",""
"null","","html-keyboard-response","526","328560","0.0-287.0","","","null","","","","","",""
"593","","image-keyboard-response","527","329154","0.0-288.0","","img/nature/S1.jpg","49","1","Ns4,perform","49","true","",""
"null","","html-keyboard-response","528","329519","0.0-289.0","","<img src=""img/nature/S1.jpg"" width=""540"" height = ""360"" style=""border:14px solid orange"">","null","","","","","",""
"null","","html-keyboard-response","529","329735","0.0-290.0","","","null","","","","","",""
"497.0999999642372","","image-keyboard-response","530","330233","0.0-291.0","","img/nature/S4.jpg","52","4","Ns4,perform","52","true","",""
"null","","html-keyboard-response","531","330595","0.0-292.0","","<img src=""img/nature/S4.jpg"" width=""540"" height = ""360"" style=""border:14px solid orange"">","null","","","","","",""
"null","","html-keyboard-response","532","330799","0.0-293.0","","","null","","","","","",""
"781.5","","image-keyboard-response","533","331581","0.0-294.0","","img/nature/S2.jpg","50","2","Ns4,perform","50","true","",""
"null","","html-keyboard-response","534","331943","0.0-295.0","","<img src=""img/nature/S2.jpg"" width=""540"" height = ""360"" style=""border:14px solid orange"">","null","","","","","",""
"null","","html-keyboard-response","535","332144","0.0-296.0","","","null","","","","","",""
"706.6999999880791","","image-keyboard-response","536","332852","0.0-297.0","","img/nature/S1.jpg","49","1","Ns4,perform","49","true","",""
"null","","html-keyboard-response","537","333211","0.0-298.0","","<img src=""img/nature/S1.jpg"" width=""540"" height = ""360"" style=""border:14px solid orange"">","null","","","","","",""
"null","","html-keyboard-response","538","333427","0.0-299.0","","","null","","","","","",""
"508.89999997615814","","image-keyboard-response","539","333937","0.0-300.0","","img/nature/S4.jpg","52","4","Ns4,perform","52","true","",""
"null","","html-keyboard-response","540","334297","0.0-301.0","","<img src=""img/nature/S4.jpg"" width=""540"" height = ""360"" style=""border:14px solid orange"">","null","","","","","",""
"null","","html-keyboard-response","541","334498","0.0-302.0","","","null","","","","","",""
"870.6999999880791","","image-keyboard-response","542","335370","0.0-303.0","","img/nature/S2.jpg","50","2","Ns4,perform","50","true","",""
"null","","html-keyboard-response","543","335721","0.0-304.0","","<img src=""img/nature/S2.jpg"" width=""540"" height = ""360"" style=""border:14px solid orange"">","null","","","","","",""
"null","","html-keyboard-response","544","335922","0.0-305.0","","","null","","","","","",""
"554.8000000119209","","image-keyboard-response","545","336478","0.0-306.0","","img/nature/S1.jpg","49","1","Ns4,perform","49","true","",""
"null","","html-keyboard-response","546","336835","0.0-307.0","","<img src=""img/nature/S1.jpg"" width=""540"" height = ""360"" style=""border:14px solid orange"">","null","","","","","",""
"null","","html-keyboard-response","547","337037","0.0-308.0","","","null","","","","","",""
"2068.5","","image-keyboard-response","548","339107","0.0-309.0","","img/nature/S2.jpg","50","2","Ns4,perform","50","true","",""
"null","","html-keyboard-response","549","339467","0.0-310.0","","<img src=""img/nature/S2.jpg"" width=""540"" height = ""360"" style=""border:14px solid orange"">","null","","","","","",""
"null","","html-keyboard-response","550","339681","0.0-311.0","","","null","","","","","",""
"679.9000000357628","","image-keyboard-response","551","340362","0.0-312.0","","img/nature/S1.jpg","49","1","Ns4,perform","49","true","",""
"null","","html-keyboard-response","552","340715","0.0-313.0","","<img src=""img/nature/S1.jpg"" width=""540"" height = ""360"" style=""border:14px solid orange"">","null","","","","","",""
"null","","html-keyboard-response","553","340917","0.0-314.0","","","null","","","","","",""
"563.3000000119209","","image-keyboard-response","554","341482","0.0-315.0","","img/nature/S2.jpg","50","2","Ns4,perform","50","true","",""
"null","","html-keyboard-response","555","341839","0.0-316.0","","<img src=""img/nature/S2.jpg"" width=""540"" height = ""360"" style=""border:14px solid orange"">","null","","","","","",""
"null","","html-keyboard-response","556","342054","0.0-317.0","","","null","","","","","",""
"461.39999997615814","","image-keyboard-response","557","342517","0.0-318.0","","img/nature/S1.jpg","49","1","Ns4,perform","49","true","",""
"null","","html-keyboard-response","558","342873","0.0-319.0","","<img src=""img/nature/S1.jpg"" width=""540"" height = ""360"" style=""border:14px solid orange"">","null","","","","","",""
"null","","html-keyboard-response","559","343087","0.0-320.0","","","null","","","","","",""
"480.80000001192093","","image-keyboard-response","560","343569","0.0-321.0","","img/nature/S4.jpg","52","4","Ns4,perform","52","true","",""
"null","","html-keyboard-response","561","343932","0.0-322.0","","<img src=""img/nature/S4.jpg"" width=""540"" height = ""360"" style=""border:14px solid orange"">","null","","","","","",""
"null","","html-keyboard-response","562","344145","0.0-323.0","","","null","","","","","",""
"410.10000002384186","","image-keyboard-response","563","344558","0.0-324.0","","img/nature/S4.jpg","52","4","Ns4,perform","52","true","",""
"null","","html-keyboard-response","564","344917","0.0-325.0","","<img src=""img/nature/S4.jpg"" width=""540"" height = ""360"" style=""border:14px solid orange"">","null","","","","","",""
"null","","html-keyboard-response","565","345120","0.0-326.0","","","null","","","","","",""
"807.3999999761581","","image-keyboard-response","566","345929","0.0-327.0","","img/nature/S2.jpg","50","2","Ns4,perform","50","true","",""
"null","","html-keyboard-response","567","346291","0.0-328.0","","<img src=""img/nature/S2.jpg"" width=""540"" height = ""360"" style=""border:14px solid orange"">","null","","","","","",""
"null","","html-keyboard-response","568","346508","0.0-329.0","","","null","","","","","",""
"400.30000001192093","","image-keyboard-response","569","346909","0.0-330.0","","img/nature/S1.jpg","49","1","Ns4,perform","49","true","",""
"null","","html-keyboard-response","570","347266","0.0-331.0","","<img src=""img/nature/S1.jpg"" width=""540"" height = ""360"" style=""border:14px solid orange"">","null","","","","","",""
"null","","html-keyboard-response","571","347469","0.0-332.0","","","null","","","","","",""
"674.8999999761581","","image-keyboard-response","572","348146","0.0-333.0","","img/nature/S3.jpg","52","3","Ns4,perform","51","false","",""
"null","","html-keyboard-response","573","348505","0.0-334.0","","<img src=""img/nature/S3.jpg"" width=""540"" height = ""360"">","null","","","","","",""
"null","","html-keyboard-response","574","348707","0.0-335.0","","","null","","","","","",""
"1363.4000000357628","","image-keyboard-response","575","350072","0.0-336.0","","img/nature/S2.jpg","50","2","Ns4,perform","50","true","",""
"null","","html-keyboard-response","576","350429","0.0-337.0","","<img src=""img/nature/S2.jpg"" width=""540"" height = ""360"" style=""border:14px solid orange"">","null","","","","","",""
"null","","html-keyboard-response","577","350644","0.0-338.0","","","null","","","","","",""
"681.5","","image-keyboard-response","578","351328","0.0-339.0","","img/nature/S1.jpg","49","1","Ns4,perform","49","true","",""
"null","","html-keyboard-response","579","351693","0.0-340.0","","<img src=""img/nature/S1.jpg"" width=""540"" height = ""360"" style=""border:14px solid orange"">","null","","","","","",""
"null","","html-keyboard-response","580","351897","0.0-341.0","","","null","","","","","",""
"471.2999999523163","","image-keyboard-response","581","352369","0.0-342.0","","img/nature/S4.jpg","52","4","Ns4,perform","52","true","",""
"null","","html-keyboard-response","582","352730","0.0-343.0","","<img src=""img/nature/S4.jpg"" width=""540"" height = ""360"" style=""border:14px solid orange"">","null","","","","","",""
"null","","html-keyboard-response","583","352945","0.0-344.0","","","null","","","","","",""
"649.8999999761581","","image-keyboard-response","584","353596","0.0-345.0","","img/nature/S4.jpg","52","4","Ns4,perform","52","true","",""
"null","","html-keyboard-response","585","353960","0.0-346.0","","<img src=""img/nature/S4.jpg"" width=""540"" height = ""360"" style=""border:14px solid orange"">","null","","","","","",""
"null","","html-keyboard-response","586","354177","0.0-347.0","","","null","","","","","",""
"427.39999997615814","","image-keyboard-response","587","354605","0.0-348.0","","img/nature/S4.jpg","52","4","Ns4,perform","52","true","",""
"null","","html-keyboard-response","588","354964","0.0-349.0","","<img src=""img/nature/S4.jpg"" width=""540"" height = ""360"" style=""border:14px solid orange"">","null","","","","","",""
"null","","html-keyboard-response","589","355180","0.0-350.0","","","null","","","","","",""
"1036.4000000357628","","image-keyboard-response","590","356218","0.0-351.0","","img/nature/S2.jpg","50","2","Ns4,perform","50","true","",""
"null","","html-keyboard-response","591","356581","0.0-352.0","","<img src=""img/nature/S2.jpg"" width=""540"" height = ""360"" style=""border:14px solid orange"">","null","","","","","",""
"null","","html-keyboard-response","592","356797","0.0-353.0","","","null","","","","","",""
"599.8000000119209","","image-keyboard-response","593","357398","0.0-354.0","","img/nature/S1.jpg","49","1","Ns4,perform","49","true","",""
"null","","html-keyboard-response","594","357752","0.0-355.0","","<img src=""img/nature/S1.jpg"" width=""540"" height = ""360"" style=""border:14px solid orange"">","null","","","","","",""
"null","","html-keyboard-response","595","357967","0.0-356.0","","","null","","","","","",""
"1434.300000011921","","image-keyboard-response","596","359403","0.0-357.0","","img/nature/S3.jpg","52","3","Ns4,perform","51","false","",""
"null","","html-keyboard-response","597","359755","0.0-358.0","","<img src=""img/nature/S3.jpg"" width=""540"" height = ""360"">","null","","","","","",""
"null","","html-keyboard-response","598","359972","0.0-359.0","","","null","","","","","",""
"1968.2999999523163","","image-keyboard-response","599","361941","0.0-360.0","","img/nature/S4.jpg","52","4","Ns4,perform","52","true","",""
"null","","html-keyboard-response","600","362304","0.0-361.0","","<img src=""img/nature/S4.jpg"" width=""540"" height = ""360"" style=""border:14px solid orange"">","null","","","","","",""
"null","","html-keyboard-response","601","362506","0.0-362.0","","","null","","","","","",""
"1586.7000000476837","","image-keyboard-response","602","364094","0.0-363.0","","img/nature/S3.jpg","51","3","Ns4,perform","51","true","",""
"null","","html-keyboard-response","603","364452","0.0-364.0","","<img src=""img/nature/S3.jpg"" width=""540"" height = ""360"" style=""border:14px solid orange"">","null","","","","","",""
"null","","html-keyboard-response","604","364667","0.0-365.0","","","null","","","","","",""
"552.5","","image-keyboard-response","605","365220","0.0-366.0","","img/nature/S4.jpg","52","4","Ns4,perform","52","true","",""
"null","","html-keyboard-response","606","365580","0.0-367.0","","<img src=""img/nature/S4.jpg"" width=""540"" height = ""360"" style=""border:14px solid orange"">","null","","","","","",""
"null","","html-keyboard-response","607","365784","0.0-368.0","","","null","","","","","",""
"441","","image-keyboard-response","608","366226","0.0-369.0","","img/nature/S3.jpg","51","3","Ns4,perform","51","true","",""
"null","","html-keyboard-response","609","366589","0.0-370.0","","<img src=""img/nature/S3.jpg"" width=""540"" height = ""360"" style=""border:14px solid orange"">","null","","","","","",""
"null","","html-keyboard-response","610","366805","0.0-371.0","","","null","","","","","",""
"825.0999999642372","","image-keyboard-response","611","367633","0.0-372.0","","img/nature/S2.jpg","50","2","Ns4,perform","50","true","",""
"null","","html-keyboard-response","612","367996","0.0-373.0","","<img src=""img/nature/S2.jpg"" width=""540"" height = ""360"" style=""border:14px solid orange"">","null","","","","","",""
"null","","html-keyboard-response","613","368212","0.0-374.0","","","null","","","","","",""
"597","","image-keyboard-response","614","368810","0.0-375.0","","img/nature/S1.jpg","49","1","Ns4,perform","49","true","",""
"null","","html-keyboard-response","615","369168","0.0-376.0","","<img src=""img/nature/S1.jpg"" width=""540"" height = ""360"" style=""border:14px solid orange"">","null","","","","","",""
"null","","html-keyboard-response","616","369384","0.0-377.0","","","null","","","","","",""
"789.3999999761581","","image-keyboard-response","617","370175","0.0-378.0","","img/nature/S3.jpg","51","3","Ns4,perform","51","true","",""
"null","","html-keyboard-response","618","370540","0.0-379.0","","<img src=""img/nature/S3.jpg"" width=""540"" height = ""360"" style=""border:14px solid orange"">","null","","","","","",""
"null","","html-keyboard-response","619","370757","0.0-380.0","","","null","","","","","",""
"619.6000000238419","","image-keyboard-response","620","371379","0.0-381.0","","img/nature/S4.jpg","52","4","Ns4,perform","52","true","",""
"null","","html-keyboard-response","621","371733","0.0-382.0","","<img src=""img/nature/S4.jpg"" width=""540"" height = ""360"" style=""border:14px solid orange"">","null","","","","","",""
"null","","html-keyboard-response","622","371935","0.0-383.0","","","null","","","","","",""
"473.69999998807907","","image-keyboard-response","623","372411","0.0-384.0","","img/nature/S3.jpg","51","3","Ns4,perform","51","true","",""
"null","","html-keyboard-response","624","372765","0.0-385.0","","<img src=""img/nature/S3.jpg"" width=""540"" height = ""360"" style=""border:14px solid orange"">","null","","","","","",""
"null","","html-keyboard-response","625","372980","0.0-386.0","","","null","","","","","",""
"596.1999999880791","","image-keyboard-response","626","373579","0.0-387.0","","img/nature/S3.jpg","51","3","Ns4,perform","51","true","",""
"null","","html-keyboard-response","627","373937","0.0-388.0","","<img src=""img/nature/S3.jpg"" width=""540"" height = ""360"" style=""border:14px solid orange"">","null","","","","","",""
"null","","html-keyboard-response","628","374152","0.0-389.0","","","null","","","","","",""
"387.10000002384186","","image-keyboard-response","629","374540","0.0-390.0","","img/nature/S3.jpg","51","3","Ns4,perform","51","true","",""
"null","","html-keyboard-response","630","374894","0.0-391.0","","<img src=""img/nature/S3.jpg"" width=""540"" height = ""360"" style=""border:14px solid orange"">","null","","","","","",""
"null","","html-keyboard-response","631","375109","0.0-392.0","","","null","","","","","",""
"528.1000000238419","","image-keyboard-response","632","375638","0.0-393.0","","img/nature/S4.jpg","52","4","Ns4,perform","52","true","",""
"null","","html-keyboard-response","633","376002","0.0-394.0","","<img src=""img/nature/S4.jpg"" width=""540"" height = ""360"" style=""border:14px solid orange"">","null","","","","","",""
"null","","html-keyboard-response","634","376218","0.0-395.0","","","null","","","","","",""
"787.7000000476837","","image-keyboard-response","635","377008","0.0-396.0","","img/nature/S2.jpg","50","2","Ns4,perform","50","true","",""
"null","","html-keyboard-response","636","377367","0.0-397.0","","<img src=""img/nature/S2.jpg"" width=""540"" height = ""360"" style=""border:14px solid orange"">","null","","","","","",""
"null","","html-keyboard-response","637","377569","0.0-398.0","","","null","","","","","",""
"493.5999999642372","","image-keyboard-response","638","378064","0.0-399.0","","img/nature/S1.jpg","49","1","Ns4,perform","49","true","",""
"null","","html-keyboard-response","639","378417","0.0-400.0","","<img src=""img/nature/S1.jpg"" width=""540"" height = ""360"" style=""border:14px solid orange"">","null","","","","","",""
"null","","html-keyboard-response","640","378618","0.0-401.0","","","null","","","","","",""
"557.6999999880791","","image-keyboard-response","641","379177","0.0-402.0","","img/nature/S4.jpg","52","4","Ns4,perform","52","true","",""
"null","","html-keyboard-response","642","379532","0.0-403.0","","<img src=""img/nature/S4.jpg"" width=""540"" height = ""360"" style=""border:14px solid orange"">","null","","","","","",""
"null","","html-keyboard-response","643","379747","0.0-404.0","","","null","","","","","",""
"837.5","","image-keyboard-response","644","380585","0.0-405.0","","img/nature/S3.jpg","51","3","Ns4,perform","51","true","",""
"null","","html-keyboard-response","645","380943","0.0-406.0","","<img src=""img/nature/S3.jpg"" width=""540"" height = ""360"" style=""border:14px solid orange"">","null","","","","","",""
"null","","html-keyboard-response","646","381145","0.0-407.0","","","null","","","","","",""
"401","","image-keyboard-response","647","381547","0.0-408.0","","img/nature/S3.jpg","51","3","Ns4,perform","51","true","",""
"null","","html-keyboard-response","648","381901","0.0-409.0","","<img src=""img/nature/S3.jpg"" width=""540"" height = ""360"" style=""border:14px solid orange"">","null","","","","","",""
"null","","html-keyboard-response","649","382117","0.0-410.0","","","null","","","","","",""
"523.8000000119209","","image-keyboard-response","650","382642","0.0-411.0","","img/nature/S4.jpg","52","4","Ns4,perform","52","true","",""
"null","","html-keyboard-response","651","382998","0.0-412.0","","<img src=""img/nature/S4.jpg"" width=""540"" height = ""360"" style=""border:14px solid orange"">","null","","","","","",""
"null","","html-keyboard-response","652","383216","0.0-413.0","","","null","","","","","",""
"535.7000000476837","","image-keyboard-response","653","383754","0.0-414.0","","img/nature/S3.jpg","51","3","Ns4,perform","51","true","",""
"null","","html-keyboard-response","654","384112","0.0-415.0","","<img src=""img/nature/S3.jpg"" width=""540"" height = ""360"" style=""border:14px solid orange"">","null","","","","","",""
"null","","html-keyboard-response","655","384327","0.0-416.0","","","null","","","","","",""
"588.0999999642372","","image-keyboard-response","656","384917","0.0-417.0","","img/nature/S4.jpg","52","4","Ns4,perform","52","true","",""
"null","","html-keyboard-response","657","385270","0.0-418.0","","<img src=""img/nature/S4.jpg"" width=""540"" height = ""360"" style=""border:14px solid orange"">","null","","","","","",""
"null","","html-keyboard-response","658","385472","0.0-419.0","","","null","","","","","",""
"685.8000000119209","","image-keyboard-response","659","386159","0.0-420.0","","img/nature/S2.jpg","50","2","Ns4,perform","50","true","",""
"null","","html-keyboard-response","660","386520","0.0-421.0","","<img src=""img/nature/S2.jpg"" width=""540"" height = ""360"" style=""border:14px solid orange"">","null","","","","","",""
"null","","html-keyboard-response","661","386722","0.0-422.0","","","null","","","","","",""
"456.9000000357628","","image-keyboard-response","662","387181","0.0-423.0","","img/nature/S1.jpg","49","1","Ns4,perform","49","true","",""
"null","","html-keyboard-response","663","387541","0.0-424.0","","<img src=""img/nature/S1.jpg"" width=""540"" height = ""360"" style=""border:14px solid orange"">","null","","","","","",""
"null","","html-keyboard-response","664","387758","0.0-425.0","","","null","","","","","",""
"1994.6000000238419","","html-keyboard-response","665","389753","0.0-426.0","","<p class=""center-content"">You have completed a block! </p><p class=""center-content"">Press any key on the keyboard to continue to the next block,</p><p class=""center-content"">or wait for the automatic progression to the next block after one minute.</p>","88","","","","","",""
"1653.199999988079","","image-keyboard-response","666","391408","0.0-427.0","","img/nature/S1.jpg","49","1","Ns4,test","49","true","",""
"null","","html-keyboard-response","667","391760","0.0-428.0","","<img src=""img/nature/S1.jpg"" width=""540"" height = ""360"" style=""border:14px solid orange"">","null","","","","","",""
"null","","html-keyboard-response","668","391976","0.0-429.0","","","null","","","","","",""
"1023.1999999880791","","image-keyboard-response","669","393001","0.0-430.0","","img/nature/S3.jpg","51","3","Ns4,test","51","true","",""
"null","","html-keyboard-response","670","393366","0.0-431.0","","<img src=""img/nature/S3.jpg"" width=""540"" height = ""360"" style=""border:14px solid orange"">","null","","","","","",""
"null","","html-keyboard-response","671","393582","0.0-432.0","","","null","","","","","",""
"581.6999999880791","","image-keyboard-response","672","394165","0.0-433.0","","img/nature/S4.jpg","52","4","Ns4,test","52","true","",""
"null","","html-keyboard-response","673","394525","0.0-434.0","","<img src=""img/nature/S4.jpg"" width=""540"" height = ""360"" style=""border:14px solid orange"">","null","","","","","",""
"null","","html-keyboard-response","674","394726","0.0-435.0","","","null","","","","","",""
"597.1999999880791","","image-keyboard-response","675","395325","0.0-436.0","","img/nature/S2.jpg","50","2","Ns4,test","50","true","",""
"null","","html-keyboard-response","676","395686","0.0-437.0","","<img src=""img/nature/S2.jpg"" width=""540"" height = ""360"" style=""border:14px solid orange"">","null","","","","","",""
"null","","html-keyboard-response","677","395890","0.0-438.0","","","null","","","","","",""
"523.6999999880791","","image-keyboard-response","678","396415","0.0-439.0","","img/nature/S3.jpg","51","3","Ns4,test","51","true","",""
"null","","html-keyboard-response","679","396773","0.0-440.0","","<img src=""img/nature/S3.jpg"" width=""540"" height = ""360"" style=""border:14px solid orange"">","null","","","","","",""
"null","","html-keyboard-response","680","396990","0.0-441.0","","","null","","","","","",""
"966.5","","image-keyboard-response","681","397957","0.0-442.0","","img/nature/S2.jpg","49","2","Ns4,test","50","false","",""
"null","","html-keyboard-response","682","398313","0.0-443.0","","<img src=""img/nature/S2.jpg"" width=""540"" height = ""360"">","null","","","","","",""
"null","","html-keyboard-response","683","398529","0.0-444.0","","","null","","","","","",""
"840.3000000119209","","image-keyboard-response","684","399371","0.0-445.0","","img/nature/S1.jpg","49","1","Ns4,test","49","true","",""
"null","","html-keyboard-response","685","399733","0.0-446.0","","<img src=""img/nature/S1.jpg"" width=""540"" height = ""360"" style=""border:14px solid orange"">","null","","","","","",""
"null","","html-keyboard-response","686","399935","0.0-447.0","","","null","","","","","",""
"789.6000000238419","","image-keyboard-response","687","400726","0.0-448.0","","img/nature/S3.jpg","51","3","Ns4,test","51","true","",""
"null","","html-keyboard-response","688","401086","0.0-449.0","","<img src=""img/nature/S3.jpg"" width=""540"" height = ""360"" style=""border:14px solid orange"">","null","","","","","",""
"null","","html-keyboard-response","689","401303","0.0-450.0","","","null","","","","","",""
"1178.0999999642372","","image-keyboard-response","690","402482","0.0-451.0","","img/nature/S1.jpg","49","1","Ns4,test","49","true","",""
"null","","html-keyboard-response","691","402849","0.0-452.0","","<img src=""img/nature/S1.jpg"" width=""540"" height = ""360"" style=""border:14px solid orange"">","null","","","","","",""
"null","","html-keyboard-response","692","403064","0.0-453.0","","","null","","","","","",""
"530.8000000119209","","image-keyboard-response","693","403596","0.0-454.0","","img/nature/S4.jpg","52","4","Ns4,test","52","true","",""
"null","","html-keyboard-response","694","403957","0.0-455.0","","<img src=""img/nature/S4.jpg"" width=""540"" height = ""360"" style=""border:14px solid orange"">","null","","","","","",""
"null","","html-keyboard-response","695","404172","0.0-456.0","","","null","","","","","",""
"717.1999999880791","","image-keyboard-response","696","404890","0.0-457.0","","img/nature/S1.jpg","49","1","Ns4,test","49","true","",""
