"rt","url","trial_type","trial_index","time_elapsed","internal_node_id","view_history","stimulus","key_press","state","test_part","correct_response","correct","bonus","responses"
"121006","consent.html","external-html","0","121161","0.0-0.0","","","","","","","","",""
"229326","","instructions","1","350501","0.0-1.0","[{""page_index"":0,""viewing_time"":17739},{""page_index"":1,""viewing_time"":17489},{""page_index"":2,""viewing_time"":21820},{""page_index"":3,""viewing_time"":18422},{""page_index"":4,""viewing_time"":59610},{""page_index"":5,""viewing_time"":27495},{""page_index"":6,""viewing_time"":39722},{""page_index"":7,""viewing_time"":27028}]","","","","","","","",""
"909","","image-keyboard-response","2","351413","0.0-2.0-0.0","","img/nature/control/S2.jpg","49","2","Ns4,baseline","50","false","",""
"null","","html-keyboard-response","3","351719","0.0-2.0-1.0","","<img src=""img/nature/control/S2.jpg"" width=""540"" height = ""360"">","null","","","","","",""
"null","","html-keyboard-response","4","351920","0.0-2.0-2.0","","","null","","","","","",""
"45","","image-keyboard-response","5","351967","0.0-2.0-0.1","","img/nature/control/S4.jpg","49","4","Ns4,baseline","52","false","",""
"null","","html-keyboard-response","6","352270","0.0-2.0-1.1","","<img src=""img/nature/control/S4.jpg"" width=""540"" height = ""360"">","null","","","","","",""
"null","","html-keyboard-response","7","352472","0.0-2.0-2.1","","","null","","","","","",""
"82","","image-keyboard-response","8","352555","0.0-2.0-0.2","","img/nature/control/S3.jpg","50","3","Ns4,baseline","51","false","",""
"null","","html-keyboard-response","9","352858","0.0-2.0-1.2","","<img src=""img/nature/control/S3.jpg"" width=""540"" height = ""360"">","null","","","","","",""
"null","","html-keyboard-response","10","353061","0.0-2.0-2.2","","","null","","","","","",""
"826","","image-keyboard-response","11","353889","0.0-2.0-0.3","","img/nature/control/S1.jpg","52","1","Ns4,baseline","49","false","",""
"null","","html-keyboard-response","12","354190","0.0-2.0-1.3","","<img src=""img/nature/control/S1.jpg"" width=""540"" height = ""360"">","null","","","","","",""
"null","","html-keyboard-response","13","354390","0.0-2.0-2.3","","","null","","","","","",""
"776","","image-keyboard-response","14","355168","0.0-2.0-0.4","","img/nature/control/S1.jpg","52","1","Ns4,baseline","49","false","",""
"null","","html-keyboard-response","15","355469","0.0-2.0-1.4","","<img src=""img/nature/control/S1.jpg"" width=""540"" height = ""360"">","null","","","","","",""
"null","","html-keyboard-response","16","355670","0.0-2.0-2.4","","","null","","","","","",""
"781","","image-keyboard-response","17","356453","0.0-2.0-0.5","","img/nature/control/S2.jpg","49","2","Ns4,baseline","50","false","",""
"null","","html-keyboard-response","18","356755","0.0-2.0-1.5","","<img src=""img/nature/control/S2.jpg"" width=""540"" height = ""360"">","null","","","","","",""
"null","","html-keyboard-response","19","356956","0.0-2.0-2.5","","","null","","","","","",""
"780","","image-keyboard-response","20","357737","0.0-2.0-0.6","","img/nature/control/S3.jpg","49","3","Ns4,baseline","51","false","",""
"null","","html-keyboard-response","21","358038","0.0-2.0-1.6","","<img src=""img/nature/control/S3.jpg"" width=""540"" height = ""360"">","null","","","","","",""
"null","","html-keyboard-response","22","358239","0.0-2.0-2.6","","","null","","","","","",""
"1424","","image-keyboard-response","23","359665","0.0-2.0-0.7","","img/nature/control/S4.jpg","50","4","Ns4,baseline","52","false","",""
"null","","html-keyboard-response","24","359966","0.0-2.0-1.7","","<img src=""img/nature/control/S4.jpg"" width=""540"" height = ""360"">","null","","","","","",""
"null","","html-keyboard-response","25","360166","0.0-2.0-2.7","","","null","","","","","",""
"1960","","image-keyboard-response","26","362128","0.0-2.0-0.8","","img/nature/control/S4.jpg","50","4","Ns4,baseline","52","false","",""
"null","","html-keyboard-response","27","362445","0.0-2.0-1.8","","<img src=""img/nature/control/S4.jpg"" width=""540"" height = ""360"">","null","","","","","",""
"null","","html-keyboard-response","28","362645","0.0-2.0-2.8","","","null","","","","","",""
"1956","","image-keyboard-response","29","364603","0.0-2.0-0.9","","img/nature/control/S3.jpg","49","3","Ns4,baseline","51","false","",""
"null","","html-keyboard-response","30","364904","0.0-2.0-1.9","","<img src=""img/nature/control/S3.jpg"" width=""540"" height = ""360"">","null","","","","","",""
"null","","html-keyboard-response","31","365104","0.0-2.0-2.9","","","null","","","","","",""
"708","","image-keyboard-response","32","365815","0.0-2.0-0.10","","img/nature/control/S2.jpg","51","2","Ns4,baseline","50","false","",""
"null","","html-keyboard-response","33","366116","0.0-2.0-1.10","","<img src=""img/nature/control/S2.jpg"" width=""540"" height = ""360"">","null","","","","","",""
"null","","html-keyboard-response","34","366320","0.0-2.0-2.10","","","null","","","","","",""
"543","","image-keyboard-response","35","366863","0.0-2.0-0.11","","img/nature/control/S1.jpg","52","1","Ns4,baseline","49","false","",""
"null","","html-keyboard-response","36","367165","0.0-2.0-1.11","","<img src=""img/nature/control/S1.jpg"" width=""540"" height = ""360"">","null","","","","","",""
"null","","html-keyboard-response","37","367365","0.0-2.0-2.11","","","null","","","","","",""
"1223","","image-keyboard-response","38","368589","0.0-2.0-0.12","","img/nature/control/S4.jpg","49","4","Ns4,baseline","52","false","",""
"null","","html-keyboard-response","39","368890","0.0-2.0-1.12","","<img src=""img/nature/control/S4.jpg"" width=""540"" height = ""360"">","null","","","","","",""
"null","","html-keyboard-response","40","369091","0.0-2.0-2.12","","","null","","","","","",""
"1177","","image-keyboard-response","41","370269","0.0-2.0-0.13","","img/nature/control/S1.jpg","51","1","Ns4,baseline","49","false","",""
"null","","html-keyboard-response","42","370571","0.0-2.0-1.13","","<img src=""img/nature/control/S1.jpg"" width=""540"" height = ""360"">","null","","","","","",""
"null","","html-keyboard-response","43","370772","0.0-2.0-2.13","","","null","","","","","",""
"824","","image-keyboard-response","44","371597","0.0-2.0-0.14","","img/nature/control/S2.jpg","50","2","Ns4,baseline","50","true","",""
"null","","html-keyboard-response","45","371899","0.0-2.0-1.14","","<img src=""img/nature/control/S2.jpg"" width=""540"" height = ""360"" style=""border:14px solid orange"">","null","","","","","",""
"null","","html-keyboard-response","46","372108","0.0-2.0-2.14","","","null","","","","","",""
"2056","","image-keyboard-response","47","374166","0.0-2.0-0.15","","img/nature/control/S3.jpg","51","3","Ns4,baseline","51","true","",""
"null","","html-keyboard-response","48","374467","0.0-2.0-1.15","","<img src=""img/nature/control/S3.jpg"" width=""540"" height = ""360"" style=""border:14px solid orange"">","null","","","","","",""
"null","","html-keyboard-response","49","374667","0.0-2.0-2.15","","","null","","","","","",""
"885","","image-keyboard-response","50","375555","0.0-2.0-0.16","","img/nature/control/S3.jpg","51","3","Ns4,baseline","51","true","",""
"null","","html-keyboard-response","51","375856","0.0-2.0-1.16","","<img src=""img/nature/control/S3.jpg"" width=""540"" height = ""360"" style=""border:14px solid orange"">","null","","","","","",""
"null","","html-keyboard-response","52","376057","0.0-2.0-2.16","","","null","","","","","",""
"785","","image-keyboard-response","53","376844","0.0-2.0-0.17","","img/nature/control/S2.jpg","49","2","Ns4,baseline","50","false","",""
"null","","html-keyboard-response","54","377146","0.0-2.0-1.17","","<img src=""img/nature/control/S2.jpg"" width=""540"" height = ""360"">","null","","","","","",""
"null","","html-keyboard-response","55","377347","0.0-2.0-2.17","","","null","","","","","",""
"1287","","image-keyboard-response","56","378636","0.0-2.0-0.18","","img/nature/control/S4.jpg","52","4","Ns4,baseline","52","true","",""
"null","","html-keyboard-response","57","378938","0.0-2.0-1.18","","<img src=""img/nature/control/S4.jpg"" width=""540"" height = ""360"" style=""border:14px solid orange"">","null","","","","","",""
"null","","html-keyboard-response","58","379139","0.0-2.0-2.18","","","null","","","","","",""
"1613","","image-keyboard-response","59","380753","0.0-2.0-0.19","","img/nature/control/S1.jpg","50","1","Ns4,baseline","49","false","",""
"null","","html-keyboard-response","60","381056","0.0-2.0-1.19","","<img src=""img/nature/control/S1.jpg"" width=""540"" height = ""360"">","null","","","","","",""
"null","","html-keyboard-response","61","381259","0.0-2.0-2.19","","","null","","","","","",""
"975","","image-keyboard-response","62","382235","0.0-2.0-0.20","","img/nature/control/S1.jpg","49","1","Ns4,baseline","49","true","",""
"null","","html-keyboard-response","63","382536","0.0-2.0-1.20","","<img src=""img/nature/control/S1.jpg"" width=""540"" height = ""360"" style=""border:14px solid orange"">","null","","","","","",""
"null","","html-keyboard-response","64","382744","0.0-2.0-2.20","","","null","","","","","",""
"1834","","image-keyboard-response","65","384580","0.0-2.0-0.21","","img/nature/control/S4.jpg","51","4","Ns4,baseline","52","false","",""
"null","","html-keyboard-response","66","384881","0.0-2.0-1.21","","<img src=""img/nature/control/S4.jpg"" width=""540"" height = ""360"">","null","","","","","",""
"null","","html-keyboard-response","67","385083","0.0-2.0-2.21","","","null","","","","","",""
"1219","","image-keyboard-response","68","386303","0.0-2.0-0.22","","img/nature/control/S3.jpg","49","3","Ns4,baseline","51","false","",""
"null","","html-keyboard-response","69","386604","0.0-2.0-1.22","","<img src=""img/nature/control/S3.jpg"" width=""540"" height = ""360"">","null","","","","","",""
"null","","html-keyboard-response","70","386807","0.0-2.0-2.22","","","null","","","","","",""
"1929","","image-keyboard-response","71","388737","0.0-2.0-0.23","","img/nature/control/S2.jpg","52","2","Ns4,baseline","50","false","",""
"null","","html-keyboard-response","72","389038","0.0-2.0-1.23","","<img src=""img/nature/control/S2.jpg"" width=""540"" height = ""360"">","null","","","","","",""
"null","","html-keyboard-response","73","389238","0.0-2.0-2.23","","","null","","","","","",""
"1864","","image-keyboard-response","74","391103","0.0-2.0-0.24","","img/nature/control/S3.jpg","52","3","Ns4,baseline","51","false","",""
"null","","html-keyboard-response","75","391404","0.0-2.0-1.24","","<img src=""img/nature/control/S3.jpg"" width=""540"" height = ""360"">","null","","","","","",""
"null","","html-keyboard-response","76","391604","0.0-2.0-2.24","","","null","","","","","",""
"1732","","image-keyboard-response","77","393337","0.0-2.0-0.25","","img/nature/control/S4.jpg","51","4","Ns4,baseline","52","false","",""
"null","","html-keyboard-response","78","393638","0.0-2.0-1.25","","<img src=""img/nature/control/S4.jpg"" width=""540"" height = ""360"">","null","","","","","",""
"null","","html-keyboard-response","79","393838","0.0-2.0-2.25","","","null","","","","","",""
"1720","","image-keyboard-response","80","395559","0.0-2.0-0.26","","img/nature/control/S2.jpg","49","2","Ns4,baseline","50","false","",""
"null","","html-keyboard-response","81","395862","0.0-2.0-1.26","","<img src=""img/nature/control/S2.jpg"" width=""540"" height = ""360"">","null","","","","","",""
"null","","html-keyboard-response","82","396063","0.0-2.0-2.26","","","null","","","","","",""
"1727","","image-keyboard-response","83","397791","0.0-2.0-0.27","","img/nature/control/S1.jpg","50","1","Ns4,baseline","49","false","",""
"null","","html-keyboard-response","84","398092","0.0-2.0-1.27","","<img src=""img/nature/control/S1.jpg"" width=""540"" height = ""360"">","null","","","","","",""
"null","","html-keyboard-response","85","398293","0.0-2.0-2.27","","","null","","","","","",""
"1548","","image-keyboard-response","86","399843","0.0-2.0-0.28","","img/nature/control/S1.jpg","49","1","Ns4,baseline","49","true","",""
"null","","html-keyboard-response","87","400145","0.0-2.0-1.28","","<img src=""img/nature/control/S1.jpg"" width=""540"" height = ""360"" style=""border:14px solid orange"">","null","","","","","",""
"null","","html-keyboard-response","88","400347","0.0-2.0-2.28","","","null","","","","","",""
"1667","","image-keyboard-response","89","402015","0.0-2.0-0.29","","img/nature/control/S3.jpg","51","3","Ns4,baseline","51","true","",""
"null","","html-keyboard-response","90","402321","0.0-2.0-1.29","","<img src=""img/nature/control/S3.jpg"" width=""540"" height = ""360"" style=""border:14px solid orange"">","null","","","","","",""
"null","","html-keyboard-response","91","402523","0.0-2.0-2.29","","","null","","","","","",""
"1681","","image-keyboard-response","92","404208","0.0-2.0-0.30","","img/nature/control/S2.jpg","52","2","Ns4,baseline","50","false","",""
"null","","html-keyboard-response","93","404509","0.0-2.0-1.30","","<img src=""img/nature/control/S2.jpg"" width=""540"" height = ""360"">","null","","","","","",""
"null","","html-keyboard-response","94","404709","0.0-2.0-2.30","","","null","","","","","",""
"1521","","image-keyboard-response","95","406232","0.0-2.0-0.31","","img/nature/control/S4.jpg","52","4","Ns4,baseline","52","true","",""
"null","","html-keyboard-response","96","406534","0.0-2.0-1.31","","<img src=""img/nature/control/S4.jpg"" width=""540"" height = ""360"" style=""border:14px solid orange"">","null","","","","","",""
"null","","html-keyboard-response","97","406734","0.0-2.0-2.31","","","null","","","","","",""
"777","","image-keyboard-response","98","407513","0.0-2.0-0.32","","img/nature/control/S4.jpg","52","4","Ns4,baseline","52","true","",""
"null","","html-keyboard-response","99","407815","0.0-2.0-1.32","","<img src=""img/nature/control/S4.jpg"" width=""540"" height = ""360"" style=""border:14px solid orange"">","null","","","","","",""
"null","","html-keyboard-response","100","408017","0.0-2.0-2.32","","","null","","","","","",""
"null","","image-keyboard-response","101","411019","0.0-2.0-0.33","","img/nature/control/S2.jpg","null","2","Ns4,baseline","50","false","",""
"null","","html-keyboard-response","102","411322","0.0-2.0-1.33","","<img src=""img/nature/control/S2.jpg"" width=""540"" height = ""360"">","null","","","","","",""
"null","","html-keyboard-response","103","411525","0.0-2.0-2.33","","","null","","","","","",""
"2813","","image-keyboard-response","104","414339","0.0-2.0-0.34","","img/nature/control/S3.jpg","51","3","Ns4,baseline","51","true","",""
"null","","html-keyboard-response","105","414641","0.0-2.0-1.34","","<img src=""img/nature/control/S3.jpg"" width=""540"" height = ""360"" style=""border:14px solid orange"">","null","","","","","",""
"null","","html-keyboard-response","106","414848","0.0-2.0-2.34","","","null","","","","","",""
"848","","image-keyboard-response","107","415697","0.0-2.0-0.35","","img/nature/control/S1.jpg","49","1","Ns4,baseline","49","true","",""
"null","","html-keyboard-response","108","416009","0.0-2.0-1.35","","<img src=""img/nature/control/S1.jpg"" width=""540"" height = ""360"" style=""border:14px solid orange"">","null","","","","","",""
"null","","html-keyboard-response","109","416210","0.0-2.0-2.35","","","null","","","","","",""
"1428","","image-keyboard-response","110","417640","0.0-2.0-0.36","","img/nature/control/S2.jpg","52","2","Ns4,baseline","50","false","",""
"null","","html-keyboard-response","111","417942","0.0-2.0-1.36","","<img src=""img/nature/control/S2.jpg"" width=""540"" height = ""360"">","null","","","","","",""
"null","","html-keyboard-response","112","418159","0.0-2.0-2.36","","","null","","","","","",""
"1033","","image-keyboard-response","113","419195","0.0-2.0-0.37","","img/nature/control/S4.jpg","52","4","Ns4,baseline","52","true","",""
"null","","html-keyboard-response","114","419499","0.0-2.0-1.37","","<img src=""img/nature/control/S4.jpg"" width=""540"" height = ""360"" style=""border:14px solid orange"">","null","","","","","",""
"null","","html-keyboard-response","115","419700","0.0-2.0-2.37","","","null","","","","","",""
"1566","","image-keyboard-response","116","421267","0.0-2.0-0.38","","img/nature/control/S1.jpg","49","1","Ns4,baseline","49","true","",""
"null","","html-keyboard-response","117","421568","0.0-2.0-1.38","","<img src=""img/nature/control/S1.jpg"" width=""540"" height = ""360"" style=""border:14px solid orange"">","null","","","","","",""
"null","","html-keyboard-response","118","421768","0.0-2.0-2.38","","","null","","","","","",""
"2288","","image-keyboard-response","119","424057","0.0-2.0-0.39","","img/nature/control/S3.jpg","51","3","Ns4,baseline","51","true","",""
"null","","html-keyboard-response","120","424359","0.0-2.0-1.39","","<img src=""img/nature/control/S3.jpg"" width=""540"" height = ""360"" style=""border:14px solid orange"">","null","","","","","",""
"null","","html-keyboard-response","121","424568","0.0-2.0-2.39","","","null","","","","","",""
"1282","","image-keyboard-response","122","425852","0.0-2.0-0.40","","img/nature/control/S2.jpg","50","2","Ns4,baseline","50","true","",""
"null","","html-keyboard-response","123","426155","0.0-2.0-1.40","","<img src=""img/nature/control/S2.jpg"" width=""540"" height = ""360"" style=""border:14px solid orange"">","null","","","","","",""
"null","","html-keyboard-response","124","426360","0.0-2.0-2.40","","","null","","","","","",""
"1959","","image-keyboard-response","125","428321","0.0-2.0-0.41","","img/nature/control/S3.jpg","51","3","Ns4,baseline","51","true","",""
"null","","html-keyboard-response","126","428622","0.0-2.0-1.41","","<img src=""img/nature/control/S3.jpg"" width=""540"" height = ""360"" style=""border:14px solid orange"">","null","","","","","",""
"null","","html-keyboard-response","127","428836","0.0-2.0-2.41","","","null","","","","","",""
"842","","image-keyboard-response","128","429679","0.0-2.0-0.42","","img/nature/control/S1.jpg","49","1","Ns4,baseline","49","true","",""
"null","","html-keyboard-response","129","429981","0.0-2.0-1.42","","<img src=""img/nature/control/S1.jpg"" width=""540"" height = ""360"" style=""border:14px solid orange"">","null","","","","","",""
"null","","html-keyboard-response","130","430211","0.0-2.0-2.42","","","null","","","","","",""
"956","","image-keyboard-response","131","431168","0.0-2.0-0.43","","img/nature/control/S4.jpg","52","4","Ns4,baseline","52","true","",""
"null","","html-keyboard-response","132","431470","0.0-2.0-1.43","","<img src=""img/nature/control/S4.jpg"" width=""540"" height = ""360"" style=""border:14px solid orange"">","null","","","","","",""
"null","","html-keyboard-response","133","431671","0.0-2.0-2.43","","","null","","","","","",""
"1755","","image-keyboard-response","134","433428","0.0-2.0-0.44","","img/nature/control/S3.jpg","51","3","Ns4,baseline","51","true","",""
"null","","html-keyboard-response","135","433730","0.0-2.0-1.44","","<img src=""img/nature/control/S3.jpg"" width=""540"" height = ""360"" style=""border:14px solid orange"">","null","","","","","",""
"null","","html-keyboard-response","136","433932","0.0-2.0-2.44","","","null","","","","","",""
"1610","","image-keyboard-response","137","435543","0.0-2.0-0.45","","img/nature/control/S1.jpg","49","1","Ns4,baseline","49","true","",""
"null","","html-keyboard-response","138","435844","0.0-2.0-1.45","","<img src=""img/nature/control/S1.jpg"" width=""540"" height = ""360"" style=""border:14px solid orange"">","null","","","","","",""
"null","","html-keyboard-response","139","436045","0.0-2.0-2.45","","","null","","","","","",""
"995","","image-keyboard-response","140","437042","0.0-2.0-0.46","","img/nature/control/S2.jpg","52","2","Ns4,baseline","50","false","",""
"null","","html-keyboard-response","141","437346","0.0-2.0-1.46","","<img src=""img/nature/control/S2.jpg"" width=""540"" height = ""360"">","null","","","","","",""
"null","","html-keyboard-response","142","437546","0.0-2.0-2.46","","","null","","","","","",""
"912","","image-keyboard-response","143","438460","0.0-2.0-0.47","","img/nature/control/S4.jpg","52","4","Ns4,baseline","52","true","",""
"null","","html-keyboard-response","144","438762","0.0-2.0-1.47","","<img src=""img/nature/control/S4.jpg"" width=""540"" height = ""360"" style=""border:14px solid orange"">","null","","","","","",""
"null","","html-keyboard-response","145","438966","0.0-2.0-2.47","","","null","","","","","",""
"1053","","image-keyboard-response","146","440021","0.0-2.0-0.48","","img/nature/control/S1.jpg","49","1","Ns4,baseline","49","true","",""
"null","","html-keyboard-response","147","440332","0.0-2.0-1.48","","<img src=""img/nature/control/S1.jpg"" width=""540"" height = ""360"" style=""border:14px solid orange"">","null","","","","","",""
"null","","html-keyboard-response","148","440533","0.0-2.0-2.48","","","null","","","","","",""
"1290","","image-keyboard-response","149","441825","0.0-2.0-0.49","","img/nature/control/S2.jpg","50","2","Ns4,baseline","50","true","",""
"null","","html-keyboard-response","150","442126","0.0-2.0-1.49","","<img src=""img/nature/control/S2.jpg"" width=""540"" height = ""360"" style=""border:14px solid orange"">","null","","","","","",""
"null","","html-keyboard-response","151","442329","0.0-2.0-2.49","","","null","","","","","",""
"944","","image-keyboard-response","152","443276","0.0-2.0-0.50","","img/nature/control/S4.jpg","52","4","Ns4,baseline","52","true","",""
"null","","html-keyboard-response","153","443579","0.0-2.0-1.50","","<img src=""img/nature/control/S4.jpg"" width=""540"" height = ""360"" style=""border:14px solid orange"">","null","","","","","",""
"null","","html-keyboard-response","154","443779","0.0-2.0-2.50","","","null","","","","","",""
"2377","","image-keyboard-response","155","446157","0.0-2.0-0.51","","img/nature/control/S3.jpg","50","3","Ns4,baseline","51","false","",""
"null","","html-keyboard-response","156","446463","0.0-2.0-1.51","","<img src=""img/nature/control/S3.jpg"" width=""540"" height = ""360"">","null","","","","","",""
"null","","html-keyboard-response","157","446665","0.0-2.0-2.51","","","null","","","","","",""
"1614","","image-keyboard-response","158","448281","0.0-2.0-0.52","","img/nature/control/S2.jpg","50","2","Ns4,baseline","50","true","",""
"null","","html-keyboard-response","159","448593","0.0-2.0-1.52","","<img src=""img/nature/control/S2.jpg"" width=""540"" height = ""360"" style=""border:14px solid orange"">","null","","","","","",""
"null","","html-keyboard-response","160","448795","0.0-2.0-2.52","","","null","","","","","",""
"1258","","image-keyboard-response","161","450054","0.0-2.0-0.53","","img/nature/control/S3.jpg","51","3","Ns4,baseline","51","true","",""
"null","","html-keyboard-response","162","450357","0.0-2.0-1.53","","<img src=""img/nature/control/S3.jpg"" width=""540"" height = ""360"" style=""border:14px solid orange"">","null","","","","","",""
"null","","html-keyboard-response","163","450557","0.0-2.0-2.53","","","null","","","","","",""
"851","","image-keyboard-response","164","451409","0.0-2.0-0.54","","img/nature/control/S1.jpg","49","1","Ns4,baseline","49","true","",""
"null","","html-keyboard-response","165","451711","0.0-2.0-1.54","","<img src=""img/nature/control/S1.jpg"" width=""540"" height = ""360"" style=""border:14px solid orange"">","null","","","","","",""
"null","","html-keyboard-response","166","451913","0.0-2.0-2.54","","","null","","","","","",""
"885","","image-keyboard-response","167","452799","0.0-2.0-0.55","","img/nature/control/S4.jpg","52","4","Ns4,baseline","52","true","",""
"null","","html-keyboard-response","168","453100","0.0-2.0-1.55","","<img src=""img/nature/control/S4.jpg"" width=""540"" height = ""360"" style=""border:14px solid orange"">","null","","","","","",""
"null","","html-keyboard-response","169","453301","0.0-2.0-2.55","","","null","","","","","",""
"973","","image-keyboard-response","170","454276","0.0-2.0-0.56","","img/nature/control/S3.jpg","51","3","Ns4,baseline","51","true","",""
"null","","html-keyboard-response","171","454578","0.0-2.0-1.56","","<img src=""img/nature/control/S3.jpg"" width=""540"" height = ""360"" style=""border:14px solid orange"">","null","","","","","",""
"null","","html-keyboard-response","172","454779","0.0-2.0-2.56","","","null","","","","","",""
"1666","","image-keyboard-response","173","456447","0.0-2.0-0.57","","img/nature/control/S4.jpg","52","4","Ns4,baseline","52","true","",""
"null","","html-keyboard-response","174","456748","0.0-2.0-1.57","","<img src=""img/nature/control/S4.jpg"" width=""540"" height = ""360"" style=""border:14px solid orange"">","null","","","","","",""
"null","","html-keyboard-response","175","456949","0.0-2.0-2.57","","","null","","","","","",""
"745","","image-keyboard-response","176","457696","0.0-2.0-0.58","","img/nature/control/S1.jpg","49","1","Ns4,baseline","49","true","",""
"null","","html-keyboard-response","177","457998","0.0-2.0-1.58","","<img src=""img/nature/control/S1.jpg"" width=""540"" height = ""360"" style=""border:14px solid orange"">","null","","","","","",""
"null","","html-keyboard-response","178","458201","0.0-2.0-2.58","","","null","","","","","",""
"1332","","image-keyboard-response","179","459535","0.0-2.0-0.59","","img/nature/control/S2.jpg","50","2","Ns4,baseline","50","true","",""
"null","","html-keyboard-response","180","459835","0.0-2.0-1.59","","<img src=""img/nature/control/S2.jpg"" width=""540"" height = ""360"" style=""border:14px solid orange"">","null","","","","","",""
"null","","html-keyboard-response","181","460036","0.0-2.0-2.59","","","null","","","","","",""
"2718","","image-keyboard-response","182","462755","0.0-2.0-0.60","","img/nature/control/S3.jpg","51","3","Ns4,baseline","51","true","",""
"null","","html-keyboard-response","183","463057","0.0-2.0-1.60","","<img src=""img/nature/control/S3.jpg"" width=""540"" height = ""360"" style=""border:14px solid orange"">","null","","","","","",""
"null","","html-keyboard-response","184","463267","0.0-2.0-2.60","","","null","","","","","",""
"932","","image-keyboard-response","185","464201","0.0-2.0-0.61","","img/nature/control/S4.jpg","52","4","Ns4,baseline","52","true","",""
"null","","html-keyboard-response","186","464502","0.0-2.0-1.61","","<img src=""img/nature/control/S4.jpg"" width=""540"" height = ""360"" style=""border:14px solid orange"">","null","","","","","",""
"null","","html-keyboard-response","187","464704","0.0-2.0-2.61","","","null","","","","","",""
"1025","","image-keyboard-response","188","465731","0.0-2.0-0.62","","img/nature/control/S1.jpg","49","1","Ns4,baseline","49","true","",""
"null","","html-keyboard-response","189","466033","0.0-2.0-1.62","","<img src=""img/nature/control/S1.jpg"" width=""540"" height = ""360"" style=""border:14px solid orange"">","null","","","","","",""
"null","","html-keyboard-response","190","466235","0.0-2.0-2.62","","","null","","","","","",""
"2197","","image-keyboard-response","191","468434","0.0-2.0-0.63","","img/nature/control/S2.jpg","50","2","Ns4,baseline","50","true","",""
"null","","html-keyboard-response","192","468736","0.0-2.0-1.63","","<img src=""img/nature/control/S2.jpg"" width=""540"" height = ""360"" style=""border:14px solid orange"">","null","","","","","",""
"null","","html-keyboard-response","193","468948","0.0-2.0-2.63","","","null","","","","","",""
"817","","image-keyboard-response","194","469767","0.0-2.0-0.64","","img/nature/control/S1.jpg","49","1","Ns4,baseline","49","true","",""
"null","","html-keyboard-response","195","470068","0.0-2.0-1.64","","<img src=""img/nature/control/S1.jpg"" width=""540"" height = ""360"" style=""border:14px solid orange"">","null","","","","","",""
"null","","html-keyboard-response","196","470269","0.0-2.0-2.64","","","null","","","","","",""
"1104","","image-keyboard-response","197","471374","0.0-2.0-0.65","","img/nature/control/S3.jpg","52","3","Ns4,baseline","51","false","",""
"null","","html-keyboard-response","198","471690","0.0-2.0-1.65","","<img src=""img/nature/control/S3.jpg"" width=""540"" height = ""360"">","null","","","","","",""
"null","","html-keyboard-response","199","471891","0.0-2.0-2.65","","","null","","","","","",""
"751","","image-keyboard-response","200","472643","0.0-2.0-0.66","","img/nature/control/S4.jpg","52","4","Ns4,baseline","52","true","",""
"null","","html-keyboard-response","201","472944","0.0-2.0-1.66","","<img src=""img/nature/control/S4.jpg"" width=""540"" height = ""360"" style=""border:14px solid orange"">","null","","","","","",""
"null","","html-keyboard-response","202","473145","0.0-2.0-2.66","","","null","","","","","",""
"1209","","image-keyboard-response","203","474356","0.0-2.0-0.67","","img/nature/control/S2.jpg","50","2","Ns4,baseline","50","true","",""
"null","","html-keyboard-response","204","474657","0.0-2.0-1.67","","<img src=""img/nature/control/S2.jpg"" width=""540"" height = ""360"" style=""border:14px solid orange"">","null","","","","","",""
"null","","html-keyboard-response","205","474859","0.0-2.0-2.67","","","null","","","","","",""
"853","","image-keyboard-response","206","475713","0.0-2.0-0.68","","img/nature/control/S4.jpg","52","4","Ns4,baseline","52","true","",""
"null","","html-keyboard-response","207","476014","0.0-2.0-1.68","","<img src=""img/nature/control/S4.jpg"" width=""540"" height = ""360"" style=""border:14px solid orange"">","null","","","","","",""
"null","","html-keyboard-response","208","476214","0.0-2.0-2.68","","","null","","","","","",""
"810","","image-keyboard-response","209","477026","0.0-2.0-0.69","","img/nature/control/S2.jpg","50","2","Ns4,baseline","50","true","",""
"null","","html-keyboard-response","210","477329","0.0-2.0-1.69","","<img src=""img/nature/control/S2.jpg"" width=""540"" height = ""360"" style=""border:14px solid orange"">","null","","","","","",""
"null","","html-keyboard-response","211","477529","0.0-2.0-2.69","","","null","","","","","",""
"1132","","image-keyboard-response","212","478663","0.0-2.0-0.70","","img/nature/control/S3.jpg","51","3","Ns4,baseline","51","true","",""
"null","","html-keyboard-response","213","478965","0.0-2.0-1.70","","<img src=""img/nature/control/S3.jpg"" width=""540"" height = ""360"" style=""border:14px solid orange"">","null","","","","","",""
"null","","html-keyboard-response","214","479180","0.0-2.0-2.70","","","null","","","","","",""
"737","","image-keyboard-response","215","479919","0.0-2.0-0.71","","img/nature/control/S1.jpg","49","1","Ns4,baseline","49","true","",""
"null","","html-keyboard-response","216","480260","0.0-2.0-1.71","","<img src=""img/nature/control/S1.jpg"" width=""540"" height = ""360"" style=""border:14px solid orange"">","null","","","","","",""
"null","","html-keyboard-response","217","480461","0.0-2.0-2.71","","","null","","","","","",""
"771","","image-keyboard-response","218","481233","0.0-2.0-0.72","","img/nature/control/S4.jpg","52","4","Ns4,baseline","52","true","",""
"null","","html-keyboard-response","219","481536","0.0-2.0-1.72","","<img src=""img/nature/control/S4.jpg"" width=""540"" height = ""360"" style=""border:14px solid orange"">","null","","","","","",""
"null","","html-keyboard-response","220","481737","0.0-2.0-2.72","","","null","","","","","",""
"1415","","image-keyboard-response","221","483154","0.0-2.0-0.73","","img/nature/control/S1.jpg","49","1","Ns4,baseline","49","true","",""
"null","","html-keyboard-response","222","483469","0.0-2.0-1.73","","<img src=""img/nature/control/S1.jpg"" width=""540"" height = ""360"" style=""border:14px solid orange"">","null","","","","","",""
"null","","html-keyboard-response","223","483677","0.0-2.0-2.73","","","null","","","","","",""
"1200","","image-keyboard-response","224","484879","0.0-2.0-0.74","","img/nature/control/S2.jpg","50","2","Ns4,baseline","50","true","",""
"null","","html-keyboard-response","225","485180","0.0-2.0-1.74","","<img src=""img/nature/control/S2.jpg"" width=""540"" height = ""360"" style=""border:14px solid orange"">","null","","","","","",""
"null","","html-keyboard-response","226","485382","0.0-2.0-2.74","","","null","","","","","",""
"1454","","image-keyboard-response","227","486837","0.0-2.0-0.75","","img/nature/control/S3.jpg","51","3","Ns4,baseline","51","true","",""
"null","","html-keyboard-response","228","487138","0.0-2.0-1.75","","<img src=""img/nature/control/S3.jpg"" width=""540"" height = ""360"" style=""border:14px solid orange"">","null","","","","","",""
"null","","html-keyboard-response","229","487339","0.0-2.0-2.75","","","null","","","","","",""
"683","","image-keyboard-response","230","488023","0.0-2.0-0.76","","img/nature/control/S1.jpg","49","1","Ns4,baseline","49","true","",""
"null","","html-keyboard-response","231","488330","0.0-2.0-1.76","","<img src=""img/nature/control/S1.jpg"" width=""540"" height = ""360"" style=""border:14px solid orange"">","null","","","","","",""
"null","","html-keyboard-response","232","488532","0.0-2.0-2.76","","","null","","","","","",""
"1166","","image-keyboard-response","233","489699","0.0-2.0-0.77","","img/nature/control/S2.jpg","50","2","Ns4,baseline","50","true","",""
"null","","html-keyboard-response","234","490001","0.0-2.0-1.77","","<img src=""img/nature/control/S2.jpg"" width=""540"" height = ""360"" style=""border:14px solid orange"">","null","","","","","",""
"null","","html-keyboard-response","235","490202","0.0-2.0-2.77","","","null","","","","","",""
"716","","image-keyboard-response","236","490920","0.0-2.0-0.78","","img/nature/control/S4.jpg","52","4","Ns4,baseline","52","true","",""
"null","","html-keyboard-response","237","491223","0.0-2.0-1.78","","<img src=""img/nature/control/S4.jpg"" width=""540"" height = ""360"" style=""border:14px solid orange"">","null","","","","","",""
"null","","html-keyboard-response","238","491425","0.0-2.0-2.78","","","null","","","","","",""
"1249","","image-keyboard-response","239","492675","0.0-2.0-0.79","","img/nature/control/S3.jpg","50","3","Ns4,baseline","51","false","",""
"null","","html-keyboard-response","240","492977","0.0-2.0-1.79","","<img src=""img/nature/control/S3.jpg"" width=""540"" height = ""360"">","null","","","","","",""
"null","","html-keyboard-response","241","493185","0.0-2.0-2.79","","","null","","","","","",""
"14440","","instructions","242","507625","0.0-3.0","[{""page_index"":0,""viewing_time"":14439}]","","","","","","","",""
"23383","","instructions","243","531009","0.0-4.0","[{""page_index"":0,""viewing_time"":23382}]","","","","","","","",""
"860","","image-keyboard-response","244","531872","0.0-5.0","","img/nature/S4.jpg","49","4","Ns4,train","52","false","",""
"null","","html-keyboard-response","245","532224","0.0-6.0","","<img src=""img/nature/S4.jpg"" width=""540"" height = ""360"">","null","","","","","",""
"null","","html-keyboard-response","246","532425","0.0-7.0","","","null","","","","","",""
"1659","","image-keyboard-response","247","534086","0.0-8.0","","img/nature/S3.jpg","49","3","Ns4,train","51","false","",""
"null","","html-keyboard-response","248","534446","0.0-9.0","","<img src=""img/nature/S3.jpg"" width=""540"" height = ""360"">","null","","","","","",""
"null","","html-keyboard-response","249","534647","0.0-10.0","","","null","","","","","",""
"981","","image-keyboard-response","250","535629","0.0-11.0","","img/nature/S4.jpg","49","4","Ns4,train","52","false","",""
"null","","html-keyboard-response","251","535980","0.0-12.0","","<img src=""img/nature/S4.jpg"" width=""540"" height = ""360"">","null","","","","","",""
"null","","html-keyboard-response","252","536182","0.0-13.0","","","null","","","","","",""
"974","","image-keyboard-response","253","537157","0.0-14.0","","img/nature/S2.jpg","49","2","Ns4,train","50","false","",""
"null","","html-keyboard-response","254","537509","0.0-15.0","","<img src=""img/nature/S2.jpg"" width=""540"" height = ""360"">","null","","","","","",""
"null","","html-keyboard-response","255","537710","0.0-16.0","","","null","","","","","",""
"1684","","image-keyboard-response","256","539395","0.0-17.0","","img/nature/S1.jpg","50","1","Ns4,train","49","false","",""
"null","","html-keyboard-response","257","539747","0.0-18.0","","<img src=""img/nature/S1.jpg"" width=""540"" height = ""360"">","null","","","","","",""
"null","","html-keyboard-response","258","539947","0.0-19.0","","","null","","","","","",""
"1212","","image-keyboard-response","259","541161","0.0-20.0","","img/nature/S2.jpg","51","2","Ns4,train","50","false","",""
"null","","html-keyboard-response","260","541512","0.0-21.0","","<img src=""img/nature/S2.jpg"" width=""540"" height = ""360"">","null","","","","","",""
"null","","html-keyboard-response","261","541714","0.0-22.0","","","null","","","","","",""
"1673","","image-keyboard-response","262","543389","0.0-23.0","","img/nature/S1.jpg","50","1","Ns4,train","49","false","",""
"null","","html-keyboard-response","263","543740","0.0-24.0","","<img src=""img/nature/S1.jpg"" width=""540"" height = ""360"">","null","","","","","",""
"null","","html-keyboard-response","264","543952","0.0-25.0","","","null","","","","","",""
"1505","","image-keyboard-response","265","545459","0.0-26.0","","img/nature/S2.jpg","52","2","Ns4,train","50","false","",""
"null","","html-keyboard-response","266","545810","0.0-27.0","","<img src=""img/nature/S2.jpg"" width=""540"" height = ""360"">","null","","","","","",""
"null","","html-keyboard-response","267","546011","0.0-28.0","","","null","","","","","",""
"1608","","image-keyboard-response","268","547621","0.0-29.0","","img/nature/S1.jpg","50","1","Ns4,train","49","false","",""
"null","","html-keyboard-response","269","547973","0.0-30.0","","<img src=""img/nature/S1.jpg"" width=""540"" height = ""360"">","null","","","","","",""
"null","","html-keyboard-response","270","548174","0.0-31.0","","","null","","","","","",""
"1431","","image-keyboard-response","271","549607","0.0-32.0","","img/nature/S2.jpg","51","2","Ns4,train","50","false","",""
"null","","html-keyboard-response","272","549958","0.0-33.0","","<img src=""img/nature/S2.jpg"" width=""540"" height = ""360"">","null","","","","","",""
"null","","html-keyboard-response","273","550159","0.0-34.0","","","null","","","","","",""
"867","","image-keyboard-response","274","551028","0.0-35.0","","img/nature/S1.jpg","49","1","Ns4,train","49","true","",""
"null","","html-keyboard-response","275","551379","0.0-36.0","","<img src=""img/nature/S1.jpg"" width=""540"" height = ""360"" style=""border:14px solid orange"">","null","","","","","",""
"null","","html-keyboard-response","276","551581","0.0-37.0","","","null","","","","","",""
"1820","","image-keyboard-response","277","553403","0.0-38.0","","img/nature/S4.jpg","50","4","Ns4,train","52","false","",""
"null","","html-keyboard-response","278","553754","0.0-39.0","","<img src=""img/nature/S4.jpg"" width=""540"" height = ""360"">","null","","","","","",""
"null","","html-keyboard-response","279","553956","0.0-40.0","","","null","","","","","",""
"1233","","image-keyboard-response","280","555191","0.0-41.0","","img/nature/S4.jpg","51","4","Ns4,train","52","false","",""
"null","","html-keyboard-response","281","555542","0.0-42.0","","<img src=""img/nature/S4.jpg"" width=""540"" height = ""360"">","null","","","","","",""
"null","","html-keyboard-response","282","555742","0.0-43.0","","","null","","","","","",""
"2435","","image-keyboard-response","283","558179","0.0-44.0","","img/nature/S2.jpg","49","2","Ns4,train","50","false","",""
"null","","html-keyboard-response","284","558530","0.0-45.0","","<img src=""img/nature/S2.jpg"" width=""540"" height = ""360"">","null","","","","","",""
"null","","html-keyboard-response","285","558731","0.0-46.0","","","null","","","","","",""
"1242","","image-keyboard-response","286","559975","0.0-47.0","","img/nature/S1.jpg","49","1","Ns4,train","49","true","",""
"null","","html-keyboard-response","287","560326","0.0-48.0","","<img src=""img/nature/S1.jpg"" width=""540"" height = ""360"" style=""border:14px solid orange"">","null","","","","","",""
"null","","html-keyboard-response","288","560531","0.0-49.0","","","null","","","","","",""
"1583","","image-keyboard-response","289","562116","0.0-50.0","","img/nature/S2.jpg","52","2","Ns4,train","50","false","",""
"null","","html-keyboard-response","290","562467","0.0-51.0","","<img src=""img/nature/S2.jpg"" width=""540"" height = ""360"">","null","","","","","",""
"null","","html-keyboard-response","291","562696","0.0-52.0","","","null","","","","","",""
"1541","","image-keyboard-response","292","564251","0.0-53.0","","img/nature/S1.jpg","50","1","Ns4,train","49","false","",""
"null","","html-keyboard-response","293","564608","0.0-54.0","","<img src=""img/nature/S1.jpg"" width=""540"" height = ""360"">","null","","","","","",""
"null","","html-keyboard-response","294","564819","0.0-55.0","","","null","","","","","",""
"1713","","image-keyboard-response","295","566538","0.0-56.0","","img/nature/S3.jpg","51","3","Ns4,train","51","true","",""
"null","","html-keyboard-response","296","566917","0.0-57.0","","<img src=""img/nature/S3.jpg"" width=""540"" height = ""360"" style=""border:14px solid orange"">","null","","","","","",""
"null","","html-keyboard-response","297","567120","0.0-58.0","","","null","","","","","",""
"1995","","image-keyboard-response","298","569117","0.0-59.0","","img/nature/S2.jpg","49","2","Ns4,train","50","false","",""
"null","","html-keyboard-response","299","569480","0.0-60.0","","<img src=""img/nature/S2.jpg"" width=""540"" height = ""360"">","null","","","","","",""
"null","","html-keyboard-response","300","569692","0.0-61.0","","","null","","","","","",""
"2385","","image-keyboard-response","301","572079","0.0-62.0","","img/nature/S1.jpg","49","1","Ns4,train","49","true","",""
"null","","html-keyboard-response","302","572430","0.0-63.0","","<img src=""img/nature/S1.jpg"" width=""540"" height = ""360"" style=""border:14px solid orange"">","null","","","","","",""
"null","","html-keyboard-response","303","572632","0.0-64.0","","","null","","","","","",""
"2311","","image-keyboard-response","304","574945","0.0-65.0","","img/nature/S4.jpg","51","4","Ns4,train","52","false","",""
"null","","html-keyboard-response","305","575297","0.0-66.0","","<img src=""img/nature/S4.jpg"" width=""540"" height = ""360"">","null","","","","","",""
"null","","html-keyboard-response","306","575498","0.0-67.0","","","null","","","","","",""
"976","","image-keyboard-response","307","576476","0.0-68.0","","img/nature/S2.jpg","49","2","Ns4,train","50","false","",""
"null","","html-keyboard-response","308","576828","0.0-69.0","","<img src=""img/nature/S2.jpg"" width=""540"" height = ""360"">","null","","","","","",""
"null","","html-keyboard-response","309","577029","0.0-70.0","","","null","","","","","",""
"1958","","image-keyboard-response","310","578989","0.0-71.0","","img/nature/S1.jpg","49","1","Ns4,train","49","true","",""
"null","","html-keyboard-response","311","579341","0.0-72.0","","<img src=""img/nature/S1.jpg"" width=""540"" height = ""360"" style=""border:14px solid orange"">","null","","","","","",""
"null","","html-keyboard-response","312","579546","0.0-73.0","","","null","","","","","",""
"1990","","image-keyboard-response","313","581537","0.0-74.0","","img/nature/S3.jpg","52","3","Ns4,train","51","false","",""
"null","","html-keyboard-response","314","581891","0.0-75.0","","<img src=""img/nature/S3.jpg"" width=""540"" height = ""360"">","null","","","","","",""
"null","","html-keyboard-response","315","582091","0.0-76.0","","","null","","","","","",""
"1335","","image-keyboard-response","316","583427","0.0-77.0","","img/nature/S3.jpg","51","3","Ns4,train","51","true","",""
"null","","html-keyboard-response","317","583780","0.0-78.0","","<img src=""img/nature/S3.jpg"" width=""540"" height = ""360"" style=""border:14px solid orange"">","null","","","","","",""
"null","","html-keyboard-response","318","583995","0.0-79.0","","","null","","","","","",""
"1325","","image-keyboard-response","319","585322","0.0-80.0","","img/nature/S2.jpg","50","2","Ns4,train","50","true","",""
"null","","html-keyboard-response","320","585673","0.0-81.0","","<img src=""img/nature/S2.jpg"" width=""540"" height = ""360"" style=""border:14px solid orange"">","null","","","","","",""
"null","","html-keyboard-response","321","585875","0.0-82.0","","","null","","","","","",""
"1638","","image-keyboard-response","322","587515","0.0-83.0","","img/nature/S1.jpg","52","1","Ns4,train","49","false","",""
"null","","html-keyboard-response","323","587866","0.0-84.0","","<img src=""img/nature/S1.jpg"" width=""540"" height = ""360"">","null","","","","","",""
"null","","html-keyboard-response","324","588068","0.0-85.0","","","null","","","","","",""
"1028","","image-keyboard-response","325","589097","0.0-86.0","","img/nature/S2.jpg","49","2","Ns4,train","50","false","",""
"null","","html-keyboard-response","326","589449","0.0-87.0","","<img src=""img/nature/S2.jpg"" width=""540"" height = ""360"">","null","","","","","",""
"null","","html-keyboard-response","327","589652","0.0-88.0","","","null","","","","","",""
"null","","image-keyboard-response","328","592153","0.0-89.0","","img/nature/S1.jpg","null","1","Ns4,train","49","false","",""
"null","","html-keyboard-response","329","592508","0.0-90.0","","<img src=""img/nature/S1.jpg"" width=""540"" height = ""360"">","null","","","","","",""
"null","","html-keyboard-response","330","592708","0.0-91.0","","","null","","","","","",""
"66","","image-keyboard-response","331","592775","0.0-92.0","","img/nature/S3.jpg","49","3","Ns4,train","51","false","",""
"null","","html-keyboard-response","332","593126","0.0-93.0","","<img src=""img/nature/S3.jpg"" width=""540"" height = ""360"">","null","","","","","",""
"null","","html-keyboard-response","333","593328","0.0-94.0","","","null","","","","","",""
"389","","image-keyboard-response","334","593719","0.0-95.0","","img/nature/S2.jpg","51","2","Ns4,train","50","false","",""
"null","","html-keyboard-response","335","594070","0.0-96.0","","<img src=""img/nature/S2.jpg"" width=""540"" height = ""360"">","null","","","","","",""
"null","","html-keyboard-response","336","594271","0.0-97.0","","","null","","","","","",""
"1092","","image-keyboard-response","337","595365","0.0-98.0","","img/nature/S1.jpg","50","1","Ns4,train","49","false","",""
"null","","html-keyboard-response","338","595717","0.0-99.0","","<img src=""img/nature/S1.jpg"" width=""540"" height = ""360"">","null","","","","","",""
"null","","html-keyboard-response","339","595918","0.0-100.0","","","null","","","","","",""
"1078","","image-keyboard-response","340","596997","0.0-101.0","","img/nature/S2.jpg","49","2","Ns4,train","50","false","",""
"null","","html-keyboard-response","341","597352","0.0-102.0","","<img src=""img/nature/S2.jpg"" width=""540"" height = ""360"">","null","","","","","",""
"null","","html-keyboard-response","342","597554","0.0-103.0","","","null","","","","","",""
"1112","","image-keyboard-response","343","598669","0.0-104.0","","img/nature/S1.jpg","49","1","Ns4,train","49","true","",""
"null","","html-keyboard-response","344","599020","0.0-105.0","","<img src=""img/nature/S1.jpg"" width=""540"" height = ""360"" style=""border:14px solid orange"">","null","","","","","",""
"null","","html-keyboard-response","345","599221","0.0-106.0","","","null","","","","","",""
"1118","","image-keyboard-response","346","600341","0.0-107.0","","img/nature/S3.jpg","52","3","Ns4,train","51","false","",""
"null","","html-keyboard-response","347","600692","0.0-108.0","","<img src=""img/nature/S3.jpg"" width=""540"" height = ""360"">","null","","","","","",""
"null","","html-keyboard-response","348","600893","0.0-109.0","","","null","","","","","",""
"1015","","image-keyboard-response","349","601910","0.0-110.0","","img/nature/S2.jpg","49","2","Ns4,train","50","false","",""
"null","","html-keyboard-response","350","602262","0.0-111.0","","<img src=""img/nature/S2.jpg"" width=""540"" height = ""360"">","null","","","","","",""
"null","","html-keyboard-response","351","602463","0.0-112.0","","","null","","","","","",""
"1133","","image-keyboard-response","352","603597","0.0-113.0","","img/nature/S1.jpg","51","1","Ns4,train","49","false","",""
"null","","html-keyboard-response","353","603949","0.0-114.0","","<img src=""img/nature/S1.jpg"" width=""540"" height = ""360"">","null","","","","","",""
"null","","html-keyboard-response","354","604151","0.0-115.0","","","null","","","","","",""
"951","","image-keyboard-response","355","605104","0.0-116.0","","img/nature/S2.jpg","49","2","Ns4,train","50","false","",""
"null","","html-keyboard-response","356","605460","0.0-117.0","","<img src=""img/nature/S2.jpg"" width=""540"" height = ""360"">","null","","","","","",""
"null","","html-keyboard-response","357","605660","0.0-118.0","","","null","","","","","",""
"1455","","image-keyboard-response","358","607117","0.0-119.0","","img/nature/S1.jpg","50","1","Ns4,train","49","false","",""
"null","","html-keyboard-response","359","607491","0.0-120.0","","<img src=""img/nature/S1.jpg"" width=""540"" height = ""360"">","null","","","","","",""
"null","","html-keyboard-response","360","607692","0.0-121.0","","","null","","","","","",""
"null","","image-keyboard-response","361","610193","0.0-122.0","","img/nature/S3.jpg","null","3","Ns4,train","51","false","",""
"null","","html-keyboard-response","362","610545","0.0-123.0","","<img src=""img/nature/S3.jpg"" width=""540"" height = ""360"">","null","","","","","",""
"null","","html-keyboard-response","363","610775","0.0-124.0","","","null","","","","","",""
"825","","image-keyboard-response","364","611602","0.0-125.0","","img/nature/S4.jpg","52","4","Ns4,train","52","true","",""
"null","","html-keyboard-response","365","611953","0.0-126.0","","<img src=""img/nature/S4.jpg"" width=""540"" height = ""360"" style=""border:14px solid orange"">","null","","","","","",""
"null","","html-keyboard-response","366","612155","0.0-127.0","","","null","","","","","",""
"947","","image-keyboard-response","367","613104","0.0-128.0","","img/nature/S4.jpg","52","4","Ns4,train","52","true","",""
"null","","html-keyboard-response","368","613457","0.0-129.0","","<img src=""img/nature/S4.jpg"" width=""540"" height = ""360"" style=""border:14px solid orange"">","null","","","","","",""
"null","","html-keyboard-response","369","613659","0.0-130.0","","","null","","","","","",""
"1102","","image-keyboard-response","370","614762","0.0-131.0","","img/nature/S3.jpg","49","3","Ns4,train","51","false","",""
"null","","html-keyboard-response","371","615114","0.0-132.0","","<img src=""img/nature/S3.jpg"" width=""540"" height = ""360"">","null","","","","","",""
"null","","html-keyboard-response","372","615318","0.0-133.0","","","null","","","","","",""
"962","","image-keyboard-response","373","616282","0.0-134.0","","img/nature/S3.jpg","50","3","Ns4,train","51","false","",""
"null","","html-keyboard-response","374","616635","0.0-135.0","","<img src=""img/nature/S3.jpg"" width=""540"" height = ""360"">","null","","","","","",""
"null","","html-keyboard-response","375","616837","0.0-136.0","","","null","","","","","",""
"598","","image-keyboard-response","376","617436","0.0-137.0","","img/nature/S3.jpg","51","3","Ns4,train","51","true","",""
"null","","html-keyboard-response","377","617787","0.0-138.0","","<img src=""img/nature/S3.jpg"" width=""540"" height = ""360"" style=""border:14px solid orange"">","null","","","","","",""
"null","","html-keyboard-response","378","617989","0.0-139.0","","","null","","","","","",""
"896","","image-keyboard-response","379","618886","0.0-140.0","","img/nature/S4.jpg","49","4","Ns4,train","52","false","",""
"null","","html-keyboard-response","380","619237","0.0-141.0","","<img src=""img/nature/S4.jpg"" width=""540"" height = ""360"">","null","","","","","",""
"null","","html-keyboard-response","381","619439","0.0-142.0","","","null","","","","","",""
"1152","","image-keyboard-response","382","620592","0.0-143.0","","img/nature/S4.jpg","51","4","Ns4,train","52","false","",""
"null","","html-keyboard-response","383","620944","0.0-144.0","","<img src=""img/nature/S4.jpg"" width=""540"" height = ""360"">","null","","","","","",""
"null","","html-keyboard-response","384","621145","0.0-145.0","","","null","","","","","",""
"591","","image-keyboard-response","385","621738","0.0-146.0","","img/nature/S4.jpg","50","4","Ns4,train","52","false","",""
"null","","html-keyboard-response","386","622089","0.0-147.0","","<img src=""img/nature/S4.jpg"" width=""540"" height = ""360"">","null","","","","","",""
"null","","html-keyboard-response","387","622290","0.0-148.0","","","null","","","","","",""
"1241","","image-keyboard-response","388","623532","0.0-149.0","","img/nature/S2.jpg","49","2","Ns4,train","50","false","",""
"null","","html-keyboard-response","389","623885","0.0-150.0","","<img src=""img/nature/S2.jpg"" width=""540"" height = ""360"">","null","","","","","",""
"null","","html-keyboard-response","390","624087","0.0-151.0","","","null","","","","","",""
"1123","","image-keyboard-response","391","625212","0.0-152.0","","img/nature/S1.jpg","49","1","Ns4,train","49","true","",""
"null","","html-keyboard-response","392","625563","0.0-153.0","","<img src=""img/nature/S1.jpg"" width=""540"" height = ""360"" style=""border:14px solid orange"">","null","","","","","",""
"null","","html-keyboard-response","393","625764","0.0-154.0","","","null","","","","","",""
"1510","","image-keyboard-response","394","627275","0.0-155.0","","img/nature/S3.jpg","52","3","Ns4,train","51","false","",""
"null","","html-keyboard-response","395","627628","0.0-156.0","","<img src=""img/nature/S3.jpg"" width=""540"" height = ""360"">","null","","","","","",""
"null","","html-keyboard-response","396","627832","0.0-157.0","","","null","","","","","",""
"1002","","image-keyboard-response","397","628836","0.0-158.0","","img/nature/S3.jpg","51","3","Ns4,train","51","true","",""
"null","","html-keyboard-response","398","629189","0.0-159.0","","<img src=""img/nature/S3.jpg"" width=""540"" height = ""360"" style=""border:14px solid orange"">","null","","","","","",""
"null","","html-keyboard-response","399","629391","0.0-160.0","","","null","","","","","",""
"1343","","image-keyboard-response","400","630736","0.0-161.0","","img/nature/S4.jpg","49","4","Ns4,train","52","false","",""
"null","","html-keyboard-response","401","631087","0.0-162.0","","<img src=""img/nature/S4.jpg"" width=""540"" height = ""360"">","null","","","","","",""
"null","","html-keyboard-response","402","631289","0.0-163.0","","","null","","","","","",""
"1178","","image-keyboard-response","403","632469","0.0-164.0","","img/nature/S3.jpg","49","3","Ns4,train","51","false","",""
"null","","html-keyboard-response","404","632822","0.0-165.0","","<img src=""img/nature/S3.jpg"" width=""540"" height = ""360"">","null","","","","","",""
"null","","html-keyboard-response","405","633037","0.0-166.0","","","null","","","","","",""
"921","","image-keyboard-response","406","633960","0.0-167.0","","img/nature/S3.jpg","52","3","Ns4,train","51","false","",""
"null","","html-keyboard-response","407","634311","0.0-168.0","","<img src=""img/nature/S3.jpg"" width=""540"" height = ""360"">","null","","","","","",""
"null","","html-keyboard-response","408","634512","0.0-169.0","","","null","","","","","",""
"436","","image-keyboard-response","409","634950","0.0-170.0","","img/nature/S3.jpg","51","3","Ns4,train","51","true","",""
"null","","html-keyboard-response","410","635302","0.0-171.0","","<img src=""img/nature/S3.jpg"" width=""540"" height = ""360"" style=""border:14px solid orange"">","null","","","","","",""
"null","","html-keyboard-response","411","635507","0.0-172.0","","","null","","","","","",""
"1424","","image-keyboard-response","412","636932","0.0-173.0","","img/nature/S4.jpg","49","4","Ns4,train","52","false","",""
"null","","html-keyboard-response","413","637286","0.0-174.0","","<img src=""img/nature/S4.jpg"" width=""540"" height = ""360"">","null","","","","","",""
"null","","html-keyboard-response","414","637489","0.0-175.0","","","null","","","","","",""
"434","","image-keyboard-response","415","637924","0.0-176.0","","img/nature/S4.jpg","50","4","Ns4,train","52","false","",""
"null","","html-keyboard-response","416","638276","0.0-177.0","","<img src=""img/nature/S4.jpg"" width=""540"" height = ""360"">","null","","","","","",""
"null","","html-keyboard-response","417","638478","0.0-178.0","","","null","","","","","",""
"1107","","image-keyboard-response","418","639586","0.0-179.0","","img/nature/S2.jpg","49","2","Ns4,train","50","false","",""
"null","","html-keyboard-response","419","639937","0.0-180.0","","<img src=""img/nature/S2.jpg"" width=""540"" height = ""360"">","null","","","","","",""
"null","","html-keyboard-response","420","640138","0.0-181.0","","","null","","","","","",""
"781","","image-keyboard-response","421","640920","0.0-182.0","","img/nature/S1.jpg","49","1","Ns4,train","49","true","",""
"null","","html-keyboard-response","422","641271","0.0-183.0","","<img src=""img/nature/S1.jpg"" width=""540"" height = ""360"" style=""border:14px solid orange"">","null","","","","","",""
"null","","html-keyboard-response","423","641472","0.0-184.0","","","null","","","","","",""
"1429","","image-keyboard-response","424","642903","0.0-185.0","","img/nature/S4.jpg","52","4","Ns4,train","52","true","",""
"null","","html-keyboard-response","425","643255","0.0-186.0","","<img src=""img/nature/S4.jpg"" width=""540"" height = ""360"" style=""border:14px solid orange"">","null","","","","","",""
"null","","html-keyboard-response","426","643457","0.0-187.0","","","null","","","","","",""
"1600","","image-keyboard-response","427","645058","0.0-188.0","","img/nature/S2.jpg","50","2","Ns4,train","50","true","",""
"null","","html-keyboard-response","428","645410","0.0-189.0","","<img src=""img/nature/S2.jpg"" width=""540"" height = ""360"" style=""border:14px solid orange"">","null","","","","","",""
"null","","html-keyboard-response","429","645611","0.0-190.0","","","null","","","","","",""
"977","","image-keyboard-response","430","646590","0.0-191.0","","img/nature/S1.jpg","49","1","Ns4,train","49","true","",""
"null","","html-keyboard-response","431","646942","0.0-192.0","","<img src=""img/nature/S1.jpg"" width=""540"" height = ""360"" style=""border:14px solid orange"">","null","","","","","",""
"null","","html-keyboard-response","432","647143","0.0-193.0","","","null","","","","","",""
"1302","","image-keyboard-response","433","648447","0.0-194.0","","img/nature/S3.jpg","52","3","Ns4,train","51","false","",""
"null","","html-keyboard-response","434","648801","0.0-195.0","","<img src=""img/nature/S3.jpg"" width=""540"" height = ""360"">","null","","","","","",""
"null","","html-keyboard-response","435","649004","0.0-196.0","","","null","","","","","",""
"1497","","image-keyboard-response","436","650502","0.0-197.0","","img/nature/S4.jpg","52","4","Ns4,train","52","true","",""
"null","","html-keyboard-response","437","650854","0.0-198.0","","<img src=""img/nature/S4.jpg"" width=""540"" height = ""360"" style=""border:14px solid orange"">","null","","","","","",""
"null","","html-keyboard-response","438","651055","0.0-199.0","","","null","","","","","",""
"1089","","image-keyboard-response","439","652146","0.0-200.0","","img/nature/S4.jpg","52","4","Ns4,train","52","true","",""
"null","","html-keyboard-response","440","652503","0.0-201.0","","<img src=""img/nature/S4.jpg"" width=""540"" height = ""360"" style=""border:14px solid orange"">","null","","","","","",""
"null","","html-keyboard-response","441","652707","0.0-202.0","","","null","","","","","",""
"1282","","image-keyboard-response","442","653990","0.0-203.0","","img/nature/S3.jpg","50","3","Ns4,train","51","false","",""
"null","","html-keyboard-response","443","654355","0.0-204.0","","<img src=""img/nature/S3.jpg"" width=""540"" height = ""360"">","null","","","","","",""
"null","","html-keyboard-response","444","654557","0.0-205.0","","","null","","","","","",""
"1094","","image-keyboard-response","445","655652","0.0-206.0","","img/nature/S2.jpg","50","2","Ns4,train","50","true","",""
"null","","html-keyboard-response","446","656006","0.0-207.0","","<img src=""img/nature/S2.jpg"" width=""540"" height = ""360"" style=""border:14px solid orange"">","null","","","","","",""
"null","","html-keyboard-response","447","656207","0.0-208.0","","","null","","","","","",""
"1176","","image-keyboard-response","448","657384","0.0-209.0","","img/nature/S1.jpg","49","1","Ns4,train","49","true","",""
"null","","html-keyboard-response","449","657738","0.0-210.0","","<img src=""img/nature/S1.jpg"" width=""540"" height = ""360"" style=""border:14px solid orange"">","null","","","","","",""
"null","","html-keyboard-response","450","657939","0.0-211.0","","","null","","","","","",""
"1729","","image-keyboard-response","451","659670","0.0-212.0","","img/nature/S4.jpg","52","4","Ns4,train","52","true","",""
"null","","html-keyboard-response","452","660021","0.0-213.0","","<img src=""img/nature/S4.jpg"" width=""540"" height = ""360"" style=""border:14px solid orange"">","null","","","","","",""
"null","","html-keyboard-response","453","660224","0.0-214.0","","","null","","","","","",""
"1052","","image-keyboard-response","454","661278","0.0-215.0","","img/nature/S2.jpg","51","2","Ns4,train","50","false","",""
"null","","html-keyboard-response","455","661629","0.0-216.0","","<img src=""img/nature/S2.jpg"" width=""540"" height = ""360"">","null","","","","","",""
"null","","html-keyboard-response","456","661830","0.0-217.0","","","null","","","","","",""
"1614","","image-keyboard-response","457","663446","0.0-218.0","","img/nature/S1.jpg","49","1","Ns4,train","49","true","",""
"null","","html-keyboard-response","458","663798","0.0-219.0","","<img src=""img/nature/S1.jpg"" width=""540"" height = ""360"" style=""border:14px solid orange"">","null","","","","","",""
"null","","html-keyboard-response","459","663999","0.0-220.0","","","null","","","","","",""
"1589","","image-keyboard-response","460","665590","0.0-221.0","","img/nature/S2.jpg","51","2","Ns4,train","50","false","",""
"null","","html-keyboard-response","461","665942","0.0-222.0","","<img src=""img/nature/S2.jpg"" width=""540"" height = ""360"">","null","","","","","",""
"null","","html-keyboard-response","462","666144","0.0-223.0","","","null","","","","","",""
"1073","","image-keyboard-response","463","667218","0.0-224.0","","img/nature/S1.jpg","49","1","Ns4,train","49","true","",""
"null","","html-keyboard-response","464","667572","0.0-225.0","","<img src=""img/nature/S1.jpg"" width=""540"" height = ""360"" style=""border:14px solid orange"">","null","","","","","",""
"null","","html-keyboard-response","465","667775","0.0-226.0","","","null","","","","","",""
"1102","","image-keyboard-response","466","668878","0.0-227.0","","img/nature/S4.jpg","50","4","Ns4,train","52","false","",""
"null","","html-keyboard-response","467","669230","0.0-228.0","","<img src=""img/nature/S4.jpg"" width=""540"" height = ""360"">","null","","","","","",""
"null","","html-keyboard-response","468","669444","0.0-229.0","","","null","","","","","",""
"2233","","image-keyboard-response","469","671679","0.0-230.0","","img/nature/S3.jpg","52","3","Ns4,train","51","false","",""
"null","","html-keyboard-response","470","672031","0.0-231.0","","<img src=""img/nature/S3.jpg"" width=""540"" height = ""360"">","null","","","","","",""
"null","","html-keyboard-response","471","672233","0.0-232.0","","","null","","","","","",""
"1984","","image-keyboard-response","472","674217","0.0-233.0","","img/nature/S4.jpg","51","4","Ns4,train","52","false","",""
"null","","html-keyboard-response","473","674571","0.0-234.0","","<img src=""img/nature/S4.jpg"" width=""540"" height = ""360"">","null","","","","","",""
"null","","html-keyboard-response","474","674772","0.0-235.0","","","null","","","","","",""
"null","","image-keyboard-response","475","677274","0.0-236.0","","img/nature/S3.jpg","null","3","Ns4,train","51","false","",""
"null","","html-keyboard-response","476","677626","0.0-237.0","","<img src=""img/nature/S3.jpg"" width=""540"" height = ""360"">","null","","","","","",""
"null","","html-keyboard-response","477","677827","0.0-238.0","","","null","","","","","",""
"1538","","image-keyboard-response","478","679367","0.0-239.0","","img/nature/S4.jpg","49","4","Ns4,train","52","false","",""
"null","","html-keyboard-response","479","679720","0.0-240.0","","<img src=""img/nature/S4.jpg"" width=""540"" height = ""360"">","null","","","","","",""
"null","","html-keyboard-response","480","679921","0.0-241.0","","","null","","","","","",""
"2480","","image-keyboard-response","481","682403","0.0-242.0","","img/nature/S3.jpg","52","3","Ns4,train","51","false","",""
"null","","html-keyboard-response","482","682754","0.0-243.0","","<img src=""img/nature/S3.jpg"" width=""540"" height = ""360"">","null","","","","","",""
"null","","html-keyboard-response","483","682956","0.0-244.0","","","null","","","","","",""
"24683","","html-keyboard-response","484","707641","0.0-245.0","","<p class=""center-content"">You have completed a block! </p><p class=""center-content"">Press any key on the keyboard to continue to the next block,</p><p class=""center-content"">or wait for the automatic progression to the next block after one minute.</p>","49","","","","","",""
"1617","","image-keyboard-response","485","709260","0.0-246.0","","img/nature/S2.jpg","49","2","Ns4,perform","50","false","",""
"null","","html-keyboard-response","486","709617","0.0-247.0","","<img src=""img/nature/S2.jpg"" width=""540"" height = ""360"">","null","","","","","",""
"null","","html-keyboard-response","487","709818","0.0-248.0","","","null","","","","","",""
"1034","","image-keyboard-response","488","710854","0.0-249.0","","img/nature/S1.jpg","49","1","Ns4,perform","49","true","",""
"null","","html-keyboard-response","489","711206","0.0-250.0","","<img src=""img/nature/S1.jpg"" width=""540"" height = ""360"" style=""border:14px solid orange"">","null","","","","","",""
"null","","html-keyboard-response","490","711406","0.0-251.0","","","null","","","","","",""
"1212","","image-keyboard-response","491","712620","0.0-252.0","","img/nature/S2.jpg","51","2","Ns4,perform","50","false","",""
"null","","html-keyboard-response","492","712971","0.0-253.0","","<img src=""img/nature/S2.jpg"" width=""540"" height = ""360"">","null","","","","","",""
"null","","html-keyboard-response","493","713172","0.0-254.0","","","null","","","","","",""
"735","","image-keyboard-response","494","713908","0.0-255.0","","img/nature/S1.jpg","49","1","Ns4,perform","49","true","",""
"null","","html-keyboard-response","495","714261","0.0-256.0","","<img src=""img/nature/S1.jpg"" width=""540"" height = ""360"" style=""border:14px solid orange"">","null","","","","","",""
"null","","html-keyboard-response","496","714461","0.0-257.0","","","null","","","","","",""
"1575","","image-keyboard-response","497","716037","0.0-258.0","","img/nature/S3.jpg","52","3","Ns4,perform","51","false","",""
"null","","html-keyboard-response","498","716388","0.0-259.0","","<img src=""img/nature/S3.jpg"" width=""540"" height = ""360"">","null","","","","","",""
"null","","html-keyboard-response","499","716589","0.0-260.0","","","null","","","","","",""
"1244","","image-keyboard-response","500","717834","0.0-261.0","","img/nature/S3.jpg","50","3","Ns4,perform","51","false","",""
"null","","html-keyboard-response","501","718185","0.0-262.0","","<img src=""img/nature/S3.jpg"" width=""540"" height = ""360"">","null","","","","","",""
"null","","html-keyboard-response","502","718388","0.0-263.0","","","null","","","","","",""
"1424","","image-keyboard-response","503","719813","0.0-264.0","","img/nature/S4.jpg","52","4","Ns4,perform","52","true","",""
"null","","html-keyboard-response","504","720164","0.0-265.0","","<img src=""img/nature/S4.jpg"" width=""540"" height = ""360"" style=""border:14px solid orange"">","null","","","","","",""
"null","","html-keyboard-response","505","720366","0.0-266.0","","","null","","","","","",""
"677","","image-keyboard-response","506","721043","0.0-267.0","","img/nature/S4.jpg","52","4","Ns4,perform","52","true","",""
"null","","html-keyboard-response","507","721396","0.0-268.0","","<img src=""img/nature/S4.jpg"" width=""540"" height = ""360"" style=""border:14px solid orange"">","null","","","","","",""
"null","","html-keyboard-response","508","721597","0.0-269.0","","","null","","","","","",""
"650","","image-keyboard-response","509","722249","0.0-270.0","","img/nature/S4.jpg","52","4","Ns4,perform","52","true","",""
"null","","html-keyboard-response","510","722602","0.0-271.0","","<img src=""img/nature/S4.jpg"" width=""540"" height = ""360"" style=""border:14px solid orange"">","null","","","","","",""
"null","","html-keyboard-response","511","722802","0.0-272.0","","","null","","","","","",""
"531","","image-keyboard-response","512","723335","0.0-273.0","","img/nature/S4.jpg","52","4","Ns4,perform","52","true","",""
"null","","html-keyboard-response","513","723687","0.0-274.0","","<img src=""img/nature/S4.jpg"" width=""540"" height = ""360"" style=""border:14px solid orange"">","null","","","","","",""
"null","","html-keyboard-response","514","723888","0.0-275.0","","","null","","","","","",""
"1067","","image-keyboard-response","515","724957","0.0-276.0","","img/nature/S2.jpg","50","2","Ns4,perform","50","true","",""
"null","","html-keyboard-response","516","725309","0.0-277.0","","<img src=""img/nature/S2.jpg"" width=""540"" height = ""360"" style=""border:14px solid orange"">","null","","","","","",""
"null","","html-keyboard-response","517","725516","0.0-278.0","","","null","","","","","",""
"904","","image-keyboard-response","518","726426","0.0-279.0","","img/nature/S1.jpg","49","1","Ns4,perform","49","true","",""
"null","","html-keyboard-response","519","726777","0.0-280.0","","<img src=""img/nature/S1.jpg"" width=""540"" height = ""360"" style=""border:14px solid orange"">","null","","","","","",""
"null","","html-keyboard-response","520","726986","0.0-281.0","","","null","","","","","",""
"1292","","image-keyboard-response","521","728281","0.0-282.0","","img/nature/S3.jpg","51","3","Ns4,perform","51","true","",""
"null","","html-keyboard-response","522","728652","0.0-283.0","","<img src=""img/nature/S3.jpg"" width=""540"" height = ""360"" style=""border:14px solid orange"">","null","","","","","",""
"null","","html-keyboard-response","523","728853","0.0-284.0","","","null","","","","","",""
"1866","","image-keyboard-response","524","730725","0.0-285.0","","img/nature/S4.jpg","49","4","Ns4,perform","52","false","",""
"null","","html-keyboard-response","525","731081","0.0-286.0","","<img src=""img/nature/S4.jpg"" width=""540"" height = ""360"">","null","","","","","",""
"null","","html-keyboard-response","526","731282","0.0-287.0","","","null","","","","","",""
"980","","image-keyboard-response","527","732264","0.0-288.0","","img/nature/S2.jpg","49","2","Ns4,perform","50","false","",""
"null","","html-keyboard-response","528","732622","0.0-289.0","","<img src=""img/nature/S2.jpg"" width=""540"" height = ""360"">","null","","","","","",""
"null","","html-keyboard-response","529","732822","0.0-290.0","","","null","","","","","",""
"991","","image-keyboard-response","530","733815","0.0-291.0","","img/nature/S1.jpg","49","1","Ns4,perform","49","true","",""
"null","","html-keyboard-response","531","734167","0.0-292.0","","<img src=""img/nature/S1.jpg"" width=""540"" height = ""360"" style=""border:14px solid orange"">","null","","","","","",""
"null","","html-keyboard-response","532","734369","0.0-293.0","","","null","","","","","",""
"968","","image-keyboard-response","533","735338","0.0-294.0","","img/nature/S4.jpg","52","4","Ns4,perform","52","true","",""
"null","","html-keyboard-response","534","735689","0.0-295.0","","<img src=""img/nature/S4.jpg"" width=""540"" height = ""360"" style=""border:14px solid orange"">","null","","","","","",""
"null","","html-keyboard-response","535","735891","0.0-296.0","","","null","","","","","",""
"546","","image-keyboard-response","536","736439","0.0-297.0","","img/nature/S4.jpg","52","4","Ns4,perform","52","true","",""
"null","","html-keyboard-response","537","736792","0.0-298.0","","<img src=""img/nature/S4.jpg"" width=""540"" height = ""360"" style=""border:14px solid orange"">","null","","","","","",""
"null","","html-keyboard-response","538","737006","0.0-299.0","","","null","","","","","",""
"1254","","image-keyboard-response","539","738263","0.0-300.0","","img/nature/S3.jpg","51","3","Ns4,perform","51","true","",""
"null","","html-keyboard-response","540","738617","0.0-301.0","","<img src=""img/nature/S3.jpg"" width=""540"" height = ""360"" style=""border:14px solid orange"">","null","","","","","",""
"null","","html-keyboard-response","541","738819","0.0-302.0","","","null","","","","","",""
"818","","image-keyboard-response","542","739638","0.0-303.0","","img/nature/S2.jpg","50","2","Ns4,perform","50","true","",""
"null","","html-keyboard-response","543","739990","0.0-304.0","","<img src=""img/nature/S2.jpg"" width=""540"" height = ""360"" style=""border:14px solid orange"">","null","","","","","",""
"null","","html-keyboard-response","544","740192","0.0-305.0","","","null","","","","","",""
"896","","image-keyboard-response","545","741091","0.0-306.0","","img/nature/S1.jpg","49","1","Ns4,perform","49","true","",""
"null","","html-keyboard-response","546","741443","0.0-307.0","","<img src=""img/nature/S1.jpg"" width=""540"" height = ""360"" style=""border:14px solid orange"">","null","","","","","",""
"null","","html-keyboard-response","547","741646","0.0-308.0","","","null","","","","","",""
"701","","image-keyboard-response","548","742349","0.0-309.0","","img/nature/S2.jpg","50","2","Ns4,perform","50","true","",""
"null","","html-keyboard-response","549","742701","0.0-310.0","","<img src=""img/nature/S2.jpg"" width=""540"" height = ""360"" style=""border:14px solid orange"">","null","","","","","",""
"null","","html-keyboard-response","550","742903","0.0-311.0","","","null","","","","","",""
"1757","","image-keyboard-response","551","744662","0.0-312.0","","img/nature/S1.jpg","49","1","Ns4,perform","49","true","",""
"null","","html-keyboard-response","552","745015","0.0-313.0","","<img src=""img/nature/S1.jpg"" width=""540"" height = ""360"" style=""border:14px solid orange"">","null","","","","","",""
"null","","html-keyboard-response","553","745215","0.0-314.0","","","null","","","","","",""
"1044","","image-keyboard-response","554","746261","0.0-315.0","","img/nature/S2.jpg","50","2","Ns4,perform","50","true","",""
"null","","html-keyboard-response","555","746613","0.0-316.0","","<img src=""img/nature/S2.jpg"" width=""540"" height = ""360"" style=""border:14px solid orange"">","null","","","","","",""
"null","","html-keyboard-response","556","746813","0.0-317.0","","","null","","","","","",""
"912","","image-keyboard-response","557","747727","0.0-318.0","","img/nature/S1.jpg","49","1","Ns4,perform","49","true","",""
"null","","html-keyboard-response","558","748080","0.0-319.0","","<img src=""img/nature/S1.jpg"" width=""540"" height = ""360"" style=""border:14px solid orange"">","null","","","","","",""
"null","","html-keyboard-response","559","748283","0.0-320.0","","","null","","","","","",""
"1356","","image-keyboard-response","560","749640","0.0-321.0","","img/nature/S3.jpg","52","3","Ns4,perform","51","false","",""
"null","","html-keyboard-response","561","749991","0.0-322.0","","<img src=""img/nature/S3.jpg"" width=""540"" height = ""360"">","null","","","","","",""
"null","","html-keyboard-response","562","750192","0.0-323.0","","","null","","","","","",""
"1154","","image-keyboard-response","563","751349","0.0-324.0","","img/nature/S2.jpg","50","2","Ns4,perform","50","true","",""
"null","","html-keyboard-response","564","751700","0.0-325.0","","<img src=""img/nature/S2.jpg"" width=""540"" height = ""360"" style=""border:14px solid orange"">","null","","","","","",""
"null","","html-keyboard-response","565","751901","0.0-326.0","","","null","","","","","",""
"1096","","image-keyboard-response","566","752998","0.0-327.0","","img/nature/S1.jpg","49","1","Ns4,perform","49","true","",""
"null","","html-keyboard-response","567","753350","0.0-328.0","","<img src=""img/nature/S1.jpg"" width=""540"" height = ""360"" style=""border:14px solid orange"">","null","","","","","",""
"null","","html-keyboard-response","568","753551","0.0-329.0","","","null","","","","","",""
"1552","","image-keyboard-response","569","755104","0.0-330.0","","img/nature/S4.jpg","52","4","Ns4,perform","52","true","",""
"null","","html-keyboard-response","570","755456","0.0-331.0","","<img src=""img/nature/S4.jpg"" width=""540"" height = ""360"" style=""border:14px solid orange"">","null","","","","","",""
"null","","html-keyboard-response","571","755659","0.0-332.0","","","null","","","","","",""
"827","","image-keyboard-response","572","756490","0.0-333.0","","img/nature/S3.jpg","51","3","Ns4,perform","51","true","",""
"null","","html-keyboard-response","573","756841","0.0-334.0","","<img src=""img/nature/S3.jpg"" width=""540"" height = ""360"" style=""border:14px solid orange"">","null","","","","","",""
"null","","html-keyboard-response","574","757044","0.0-335.0","","","null","","","","","",""
"905","","image-keyboard-response","575","757951","0.0-336.0","","img/nature/S2.jpg","50","2","Ns4,perform","50","true","",""
"null","","html-keyboard-response","576","758303","0.0-337.0","","<img src=""img/nature/S2.jpg"" width=""540"" height = ""360"" style=""border:14px solid orange"">","null","","","","","",""
"null","","html-keyboard-response","577","758504","0.0-338.0","","","null","","","","","",""
"1487","","image-keyboard-response","578","759993","0.0-339.0","","img/nature/S1.jpg","49","1","Ns4,perform","49","true","",""
"null","","html-keyboard-response","579","760345","0.0-340.0","","<img src=""img/nature/S1.jpg"" width=""540"" height = ""360"" style=""border:14px solid orange"">","null","","","","","",""
"null","","html-keyboard-response","580","760567","0.0-341.0","","","null","","","","","",""
"1060","","image-keyboard-response","581","761630","0.0-342.0","","img/nature/S3.jpg","52","3","Ns4,perform","51","false","",""
"null","","html-keyboard-response","582","761981","0.0-343.0","","<img src=""img/nature/S3.jpg"" width=""540"" height = ""360"">","null","","","","","",""
"null","","html-keyboard-response","583","762183","0.0-344.0","","","null","","","","","",""
"1144","","image-keyboard-response","584","763329","0.0-345.0","","img/nature/S4.jpg","50","4","Ns4,perform","52","false","",""
"null","","html-keyboard-response","585","763683","0.0-346.0","","<img src=""img/nature/S4.jpg"" width=""540"" height = ""360"">","null","","","","","",""
"null","","html-keyboard-response","586","763889","0.0-347.0","","","null","","","","","",""
"1761","","image-keyboard-response","587","765652","0.0-348.0","","img/nature/S2.jpg","50","2","Ns4,perform","50","true","",""
"null","","html-keyboard-response","588","766011","0.0-349.0","","<img src=""img/nature/S2.jpg"" width=""540"" height = ""360"" style=""border:14px solid orange"">","null","","","","","",""
"null","","html-keyboard-response","589","766212","0.0-350.0","","","null","","","","","",""
"997","","image-keyboard-response","590","767211","0.0-351.0","","img/nature/S1.jpg","52","1","Ns4,perform","49","false","",""
"null","","html-keyboard-response","591","767562","0.0-352.0","","<img src=""img/nature/S1.jpg"" width=""540"" height = ""360"">","null","","","","","",""
"null","","html-keyboard-response","592","767766","0.0-353.0","","","null","","","","","",""
"1247","","image-keyboard-response","593","769015","0.0-354.0","","img/nature/S2.jpg","50","2","Ns4,perform","50","true","",""
"null","","html-keyboard-response","594","769366","0.0-355.0","","<img src=""img/nature/S2.jpg"" width=""540"" height = ""360"" style=""border:14px solid orange"">","null","","","","","",""
"null","","html-keyboard-response","595","769568","0.0-356.0","","","null","","","","","",""
"963","","image-keyboard-response","596","770533","0.0-357.0","","img/nature/S1.jpg","49","1","Ns4,perform","49","true","",""
"null","","html-keyboard-response","597","770884","0.0-358.0","","<img src=""img/nature/S1.jpg"" width=""540"" height = ""360"" style=""border:14px solid orange"">","null","","","","","",""
"null","","html-keyboard-response","598","771086","0.0-359.0","","","null","","","","","",""
"1095","","image-keyboard-response","599","772183","0.0-360.0","","img/nature/S3.jpg","52","3","Ns4,perform","51","false","",""
"null","","html-keyboard-response","600","772536","0.0-361.0","","<img src=""img/nature/S3.jpg"" width=""540"" height = ""360"">","null","","","","","",""
"null","","html-keyboard-response","601","772737","0.0-362.0","","","null","","","","","",""
"1066","","image-keyboard-response","602","773805","0.0-363.0","","img/nature/S2.jpg","50","2","Ns4,perform","50","true","",""
"null","","html-keyboard-response","603","774156","0.0-364.0","","<img src=""img/nature/S2.jpg"" width=""540"" height = ""360"" style=""border:14px solid orange"">","null","","","","","",""
"null","","html-keyboard-response","604","774357","0.0-365.0","","","null","","","","","",""
"910","","image-keyboard-response","605","775271","0.0-366.0","","img/nature/S1.jpg","49","1","Ns4,perform","49","true","",""
"null","","html-keyboard-response","606","775622","0.0-367.0","","<img src=""img/nature/S1.jpg"" width=""540"" height = ""360"" style=""border:14px solid orange"">","null","","","","","",""
"null","","html-keyboard-response","607","775823","0.0-368.0","","","null","","","","","",""
"1481","","image-keyboard-response","608","777305","0.0-369.0","","img/nature/S4.jpg","51","4","Ns4,perform","52","false","",""
"null","","html-keyboard-response","609","777701","0.0-370.0","","<img src=""img/nature/S4.jpg"" width=""540"" height = ""360"">","null","","","","","",""
"null","","html-keyboard-response","610","777913","0.0-371.0","","","null","","","","","",""
"558","","image-keyboard-response","611","778472","0.0-372.0","","img/nature/S4.jpg","52","4","Ns4,perform","52","true","",""
"null","","html-keyboard-response","612","778824","0.0-373.0","","<img src=""img/nature/S4.jpg"" width=""540"" height = ""360"" style=""border:14px solid orange"">","null","","","","","",""
"null","","html-keyboard-response","613","779027","0.0-374.0","","","null","","","","","",""
"964","","image-keyboard-response","614","779993","0.0-375.0","","img/nature/S3.jpg","51","3","Ns4,perform","51","true","",""
"null","","html-keyboard-response","615","780345","0.0-376.0","","<img src=""img/nature/S3.jpg"" width=""540"" height = ""360"" style=""border:14px solid orange"">","null","","","","","",""
"null","","html-keyboard-response","616","780548","0.0-377.0","","","null","","","","","",""
"575","","image-keyboard-response","617","781126","0.0-378.0","","img/nature/S3.jpg","51","3","Ns4,perform","51","true","",""
"null","","html-keyboard-response","618","781478","0.0-379.0","","<img src=""img/nature/S3.jpg"" width=""540"" height = ""360"" style=""border:14px solid orange"">","null","","","","","",""
"null","","html-keyboard-response","619","781680","0.0-380.0","","","null","","","","","",""
"898","","image-keyboard-response","620","782582","0.0-381.0","","img/nature/S2.jpg","50","2","Ns4,perform","50","true","",""
"null","","html-keyboard-response","621","782934","0.0-382.0","","<img src=""img/nature/S2.jpg"" width=""540"" height = ""360"" style=""border:14px solid orange"">","null","","","","","",""
"null","","html-keyboard-response","622","783137","0.0-383.0","","","null","","","","","",""
"646","","image-keyboard-response","623","783785","0.0-384.0","","img/nature/S1.jpg","49","1","Ns4,perform","49","true","",""
"null","","html-keyboard-response","624","784136","0.0-385.0","","<img src=""img/nature/S1.jpg"" width=""540"" height = ""360"" style=""border:14px solid orange"">","null","","","","","",""
"null","","html-keyboard-response","625","784338","0.0-386.0","","","null","","","","","",""
"1842","","image-keyboard-response","626","786183","0.0-387.0","","img/nature/S2.jpg","50","2","Ns4,perform","50","true","",""
"null","","html-keyboard-response","627","786539","0.0-388.0","","<img src=""img/nature/S2.jpg"" width=""540"" height = ""360"" style=""border:14px solid orange"">","null","","","","","",""
"null","","html-keyboard-response","628","786740","0.0-389.0","","","null","","","","","",""
"859","","image-keyboard-response","629","787603","0.0-390.0","","img/nature/S1.jpg","49","1","Ns4,perform","49","true","",""
"null","","html-keyboard-response","630","787956","0.0-391.0","","<img src=""img/nature/S1.jpg"" width=""540"" height = ""360"" style=""border:14px solid orange"">","null","","","","","",""
"null","","html-keyboard-response","631","788158","0.0-392.0","","","null","","","","","",""
"1038","","image-keyboard-response","632","789198","0.0-393.0","","img/nature/S4.jpg","52","4","Ns4,perform","52","true","",""
"null","","html-keyboard-response","633","789549","0.0-394.0","","<img src=""img/nature/S4.jpg"" width=""540"" height = ""360"" style=""border:14px solid orange"">","null","","","","","",""
"null","","html-keyboard-response","634","789750","0.0-395.0","","","null","","","","","",""
"1039","","image-keyboard-response","635","790790","0.0-396.0","","img/nature/S3.jpg","51","3","Ns4,perform","51","true","",""
"null","","html-keyboard-response","636","791144","0.0-397.0","","<img src=""img/nature/S3.jpg"" width=""540"" height = ""360"" style=""border:14px solid orange"">","null","","","","","",""
"null","","html-keyboard-response","637","791348","0.0-398.0","","","null","","","","","",""
"637","","image-keyboard-response","638","791987","0.0-399.0","","img/nature/S4.jpg","52","4","Ns4,perform","52","true","",""
"null","","html-keyboard-response","639","792339","0.0-400.0","","<img src=""img/nature/S4.jpg"" width=""540"" height = ""360"" style=""border:14px solid orange"">","null","","","","","",""
"null","","html-keyboard-response","640","792541","0.0-401.0","","","null","","","","","",""
"638","","image-keyboard-response","641","793183","0.0-402.0","","img/nature/S3.jpg","51","3","Ns4,perform","51","true","",""
"null","","html-keyboard-response","642","793534","0.0-403.0","","<img src=""img/nature/S3.jpg"" width=""540"" height = ""360"" style=""border:14px solid orange"">","null","","","","","",""
"null","","html-keyboard-response","643","793740","0.0-404.0","","","null","","","","","",""
"715","","image-keyboard-response","644","794459","0.0-405.0","","img/nature/S4.jpg","52","4","Ns4,perform","52","true","",""
"null","","html-keyboard-response","645","794811","0.0-406.0","","<img src=""img/nature/S4.jpg"" width=""540"" height = ""360"" style=""border:14px solid orange"">","null","","","","","",""
"null","","html-keyboard-response","646","795012","0.0-407.0","","","null","","","","","",""
"538","","image-keyboard-response","647","795551","0.0-408.0","","img/nature/S3.jpg","51","3","Ns4,perform","51","true","",""
"null","","html-keyboard-response","648","795904","0.0-409.0","","<img src=""img/nature/S3.jpg"" width=""540"" height = ""360"" style=""border:14px solid orange"">","null","","","","","",""
"null","","html-keyboard-response","649","796106","0.0-410.0","","","null","","","","","",""
"805","","image-keyboard-response","650","796912","0.0-411.0","","img/nature/S3.jpg","51","3","Ns4,perform","51","true","",""
"null","","html-keyboard-response","651","797265","0.0-412.0","","<img src=""img/nature/S3.jpg"" width=""540"" height = ""360"" style=""border:14px solid orange"">","null","","","","","",""
"null","","html-keyboard-response","652","797467","0.0-413.0","","","null","","","","","",""
"600","","image-keyboard-response","653","798069","0.0-414.0","","img/nature/S4.jpg","52","4","Ns4,perform","52","true","",""
"null","","html-keyboard-response","654","798420","0.0-415.0","","<img src=""img/nature/S4.jpg"" width=""540"" height = ""360"" style=""border:14px solid orange"">","null","","","","","",""
"null","","html-keyboard-response","655","798621","0.0-416.0","","","null","","","","","",""
"989","","image-keyboard-response","656","799612","0.0-417.0","","img/nature/S2.jpg","50","2","Ns4,perform","50","true","",""
"null","","html-keyboard-response","657","799963","0.0-418.0","","<img src=""img/nature/S2.jpg"" width=""540"" height = ""360"" style=""border:14px solid orange"">","null","","","","","",""
"null","","html-keyboard-response","658","800166","0.0-419.0","","","null","","","","","",""
"803","","image-keyboard-response","659","800971","0.0-420.0","","img/nature/S1.jpg","49","1","Ns4,perform","49","true","",""
"null","","html-keyboard-response","660","801322","0.0-421.0","","<img src=""img/nature/S1.jpg"" width=""540"" height = ""360"" style=""border:14px solid orange"">","null","","","","","",""
"null","","html-keyboard-response","661","801524","0.0-422.0","","","null","","","","","",""
"1385","","image-keyboard-response","662","802912","0.0-423.0","","img/nature/S3.jpg","52","3","Ns4,perform","51","false","",""
"null","","html-keyboard-response","663","803263","0.0-424.0","","<img src=""img/nature/S3.jpg"" width=""540"" height = ""360"">","null","","","","","",""
"null","","html-keyboard-response","664","803465","0.0-425.0","","","null","","","","","",""
"3162","","html-keyboard-response","665","806629","0.0-426.0","","<p class=""center-content"">You have completed a block! </p><p class=""center-content"">Press any key on the keyboard to continue to the next block,</p><p class=""center-content"">or wait for the automatic progression to the next block after one minute.</p>","52","","","","","",""
"1640","","image-keyboard-response","666","808271","0.0-427.0","","img/nature/S3.jpg","51","3","Ns4,test","51","true","",""
"null","","html-keyboard-response","667","808623","0.0-428.0","","<img src=""img/nature/S3.jpg"" width=""540"" height = ""360"" style=""border:14px solid orange"">","null","","","","","",""
"null","","html-keyboard-response","668","808827","0.0-429.0","","","null","","","","","",""
"781","","image-keyboard-response","669","809610","0.0-430.0","","img/nature/S1.jpg","49","1","Ns4,test","49","true","",""
"null","","html-keyboard-response","670","809963","0.0-431.0","","<img src=""img/nature/S1.jpg"" width=""540"" height = ""360"" style=""border:14px solid orange"">","null","","","","","",""
"null","","html-keyboard-response","671","810163","0.0-432.0","","","null","","","","","",""
"906","","image-keyboard-response","672","811071","0.0-433.0","","img/nature/S4.jpg","52","4","Ns4,test","52","true","",""
"null","","html-keyboard-response","673","811422","0.0-434.0","","<img src=""img/nature/S4.jpg"" width=""540"" height = ""360"" style=""border:14px solid orange"">","null","","","","","",""
"null","","html-keyboard-response","674","811624","0.0-435.0","","","null","","","","","",""
"1023","","image-keyboard-response","675","812651","0.0-436.0","","img/nature/S1.jpg","49","1","Ns4,test","49","true","",""
"null","","html-keyboard-response","676","813003","0.0-437.0","","<img src=""img/nature/S1.jpg"" width=""540"" height = ""360"" style=""border:14px solid orange"">","null","","","","","",""
"null","","html-keyboard-response","677","813204","0.0-438.0","","","null","","","","","",""
"696","","image-keyboard-response","678","813901","0.0-439.0","","img/nature/S2.jpg","50","2","Ns4,test","50","true","",""
"null","","html-keyboard-response","679","814252","0.0-440.0","","<img src=""img/nature/S2.jpg"" width=""540"" height = ""360"" style=""border:14px solid orange"">","null","","","","","",""
"null","","html-keyboard-response","680","814453","0.0-441.0","","","null","","","","","",""
"598","","image-keyboard-response","681","815053","0.0-442.0","","img/nature/S2.jpg","50","2","Ns4,test","50","true","",""
"null","","html-keyboard-response","682","815406","0.0-443.0","","<img src=""img/nature/S2.jpg"" width=""540"" height = ""360"" style=""border:14px solid orange"">","null","","","","","",""
"null","","html-keyboard-response","683","815617","0.0-444.0","","","null","","","","","",""
"739","","image-keyboard-response","684","816358","0.0-445.0","","img/nature/S4.jpg","52","4","Ns4,test","52","true","",""
"null","","html-keyboard-response","685","816716","0.0-446.0","","<img src=""img/nature/S4.jpg"" width=""540"" height = ""360"" style=""border:14px solid orange"">","null","","","","","",""
"null","","html-keyboard-response","686","816916","0.0-447.0","","","null","","","","","",""
"786","","image-keyboard-response","687","817705","0.0-448.0","","img/nature/S2.jpg","50","2","Ns4,test","50","true","",""
"null","","html-keyboard-response","688","818056","0.0-449.0","","<img src=""img/nature/S2.jpg"" width=""540"" height = ""360"" style=""border:14px solid orange"">","null","","","","","",""
"null","","html-keyboard-response","689","818257","0.0-450.0","","","null","","","","","",""
"668","","image-keyboard-response","690","818927","0.0-451.0","","img/nature/S2.jpg","50","2","Ns4,test","50","true","",""
"null","","html-keyboard-response","691","819279","0.0-452.0","","<img src=""img/nature/S2.jpg"" width=""540"" height = ""360"" style=""border:14px solid orange"">","null","","","","","",""
"null","","html-keyboard-response","692","819480","0.0-453.0","","","null","","","","","",""
"801","","image-keyboard-response","693","820282","0.0-454.0","","img/nature/S1.jpg","49","1","Ns4,test","49","true","",""
"null","","html-keyboard-response","694","820635","0.0-455.0","","<img src=""img/nature/S1.jpg"" width=""540"" height = ""360"" style=""border:14px solid orange"">","null","","","","","",""
"null","","html-keyboard-response","695","820837","0.0-456.0","","","null","","","","","",""
"724","","image-keyboard-response","696","821562","0.0-457.0","","img/nature/S1.jpg","49","1","Ns4,test","49","true","",""
"null","","html-keyboard-response","697","821914","0.0-458.0","","<img src=""img/nature/S1.jpg"" width=""540"" height = ""360"" style=""border:14px solid orange"">","null","","","","","",""
"null","","html-keyboard-response","698","822116","0.0-459.0","","","null","","","","","",""
"879","","image-keyboard-response","699","822996","0.0-460.0","","img/nature/S2.jpg","50","2","Ns4,test","50","true","",""
"null","","html-keyboard-response","700","823348","0.0-461.0","","<img src=""img/nature/S2.jpg"" width=""540"" height = ""360"" style=""border:14px solid orange"">","null","","","","","",""
"null","","html-keyboard-response","701","823550","0.0-462.0","","","null","","","","","",""
"542","","image-keyboard-response","702","824094","0.0-463.0","","img/nature/S2.jpg","50","2","Ns4,test","50","true","",""
"null","","html-keyboard-response","703","824446","0.0-464.0","","<img src=""img/nature/S2.jpg"" width=""540"" height = ""360"" style=""border:14px solid orange"">","null","","","","","",""
"null","","html-keyboard-response","704","824655","0.0-465.0","","","null","","","","","",""
"1764","","image-keyboard-response","705","826420","0.0-466.0","","img/nature/S3.jpg","52","3","Ns4,test","51","false","",""
"null","","html-keyboard-response","706","826771","0.0-467.0","","<img src=""img/nature/S3.jpg"" width=""540"" height = ""360"">","null","","","","","",""
"null","","html-keyboard-response","707","826976","0.0-468.0","","","null","","","","","",""
"834","","image-keyboard-response","708","827812","0.0-469.0","","img/nature/S2.jpg","50","2","Ns4,test","50","true","",""
"null","","html-keyboard-response","709","828163","0.0-470.0","","<img src=""img/nature/S2.jpg"" width=""540"" height = ""360"" style=""border:14px solid orange"">","null","","","","","",""
"null","","html-keyboard-response","710","828364","0.0-471.0","","","null","","","","","",""
"537","","image-keyboard-response","711","828903","0.0-472.0","","img/nature/S2.jpg","50","2","Ns4,test","50","true","",""
"null","","html-keyboard-response","712","829255","0.0-473.0","","<img src=""img/nature/S2.jpg"" width=""540"" height = ""360"" style=""border:14px solid orange"">","null","","","","","",""
"null","","html-keyboard-response","713","829459","0.0-474.0","","","null","","","","","",""
"788","","image-keyboard-response","714","830248","0.0-475.0","","img/nature/S1.jpg","49","1","Ns4,test","49","true","",""
"null","","html-keyboard-response","715","830599","0.0-476.0","","<img src=""img/nature/S1.jpg"" width=""540"" height = ""360"" style=""border:14px solid orange"">","null","","","","","",""
"null","","html-keyboard-response","716","830800","0.0-477.0","","","null","","","","","",""
"765","","image-keyboard-response","717","831567","0.0-478.0","","img/nature/S3.jpg","51","3","Ns4,test","51","true","",""
"null","","html-keyboard-response","718","831919","0.0-479.0","","<img src=""img/nature/S3.jpg"" width=""540"" height = ""360"" style=""border:14px solid orange"">","null","","","","","",""
"null","","html-keyboard-response","719","832123","0.0-480.0","","","null","","","","","",""
"809","","image-keyboard-response","720","832934","0.0-481.0","","img/nature/S2.jpg","50","2","Ns4,test","50","true","",""
"null","","html-keyboard-response","721","833285","0.0-482.0","","<img src=""img/nature/S2.jpg"" width=""540"" height = ""360"" style=""border:14px solid orange"">","null","","","","","",""
"null","","html-keyboard-response","722","833487","0.0-483.0","","","null","","","","","",""
"750","","image-keyboard-response","723","834238","0.0-484.0","","img/nature/S1.jpg","49","1","Ns4,test","49","true","",""
"null","","html-keyboard-response","724","834593","0.0-485.0","","<img src=""img/nature/S1.jpg"" width=""540"" height = ""360"" style=""border:14px solid orange"">","null","","","","","",""
"null","","html-keyboard-response","725","834798","0.0-486.0","","","null","","","","","",""
"754","","image-keyboard-response","726","835554","0.0-487.0","","img/nature/S4.jpg","52","4","Ns4,test","52","true","",""
"null","","html-keyboard-response","727","835905","0.0-488.0","","<img src=""img/nature/S4.jpg"" width=""540"" height = ""360"" style=""border:14px solid orange"">","null","","","","","",""
"null","","html-keyboard-response","728","836108","0.0-489.0","","","null","","","","","",""
"821","","image-keyboard-response","729","836931","0.0-490.0","","img/nature/S2.jpg","50","2","Ns4,test","50","true","",""
"null","","html-keyboard-response","730","837283","0.0-491.0","","<img src=""img/nature/S2.jpg"" width=""540"" height = ""360"" style=""border:14px solid orange"">","null","","","","","",""
"null","","html-keyboard-response","731","837486","0.0-492.0","","","null","","","","","",""
"1038","","image-keyboard-response","732","838526","0.0-493.0","","img/nature/S3.jpg","51","3","Ns4,test","51","true","",""
