"rt","url","trial_type","trial_index","time_elapsed","internal_node_id","view_history","stimulus","key_press","state","test_part","correct_response","correct","bonus","responses"
"79438.29999999702","consent.html","external-html","0","79555","0.0-0.0","","","","","","","","",""
"201786.3999999985","","instructions","1","281344","0.0-1.0","[{""page_index"":0,""viewing_time"":7236.10000000149},{""page_index"":1,""viewing_time"":15407.70000000298},{""page_index"":2,""viewing_time"":16359.79999999702},{""page_index"":3,""viewing_time"":31983.60000000149},{""page_index"":4,""viewing_time"":27143.69999999553},{""page_index"":5,""viewing_time"":14919.80000000447},{""page_index"":6,""viewing_time"":30439.60000000149},{""page_index"":7,""viewing_time"":9752},{""page_index"":6,""viewing_time"":12703.79999999702},{""page_index"":5,""viewing_time"":3792},{""page_index"":4,""viewing_time"":15815.79999999702},{""page_index"":5,""viewing_time"":7727.9000000059605},{""page_index"":6,""viewing_time"":4135.79999999702},{""page_index"":7,""viewing_time"":4368.10000000149}]","","","","","","","",""
"2018.8999999985099","","image-keyboard-response","2","283366","0.0-2.0-0.0","","img/nature/control/S4.jpg","49","4","Ns4,baseline","52","false","",""
"null","","html-keyboard-response","3","283670","0.0-2.0-1.0","","<img src=""img/nature/control/S4.jpg"" width=""540"" height = ""360"">","null","","","","","",""
"null","","html-keyboard-response","4","283872","0.0-2.0-2.0","","","null","","","","","",""
"964.6000000014901","","image-keyboard-response","5","284839","0.0-2.0-0.1","","img/nature/control/S3.jpg","50","3","Ns4,baseline","51","false","",""
"null","","html-keyboard-response","6","285141","0.0-2.0-1.1","","<img src=""img/nature/control/S3.jpg"" width=""540"" height = ""360"">","null","","","","","",""
"null","","html-keyboard-response","7","285344","0.0-2.0-2.1","","","null","","","","","",""
"1167.1000000014901","","image-keyboard-response","8","286514","0.0-2.0-0.2","","img/nature/control/S2.jpg","49","2","Ns4,baseline","50","false","",""
"null","","html-keyboard-response","9","286817","0.0-2.0-1.2","","<img src=""img/nature/control/S2.jpg"" width=""540"" height = ""360"">","null","","","","","",""
"null","","html-keyboard-response","10","287020","0.0-2.0-2.2","","","null","","","","","",""
"1204.1999999955297","","image-keyboard-response","11","288226","0.0-2.0-0.3","","img/nature/control/S1.jpg","50","1","Ns4,baseline","49","false","",""
"null","","html-keyboard-response","12","288529","0.0-2.0-1.3","","<img src=""img/nature/control/S1.jpg"" width=""540"" height = ""360"">","null","","","","","",""
"null","","html-keyboard-response","13","288730","0.0-2.0-2.3","","","null","","","","","",""
"809.2999999970198","","image-keyboard-response","14","289541","0.0-2.0-0.4","","img/nature/control/S2.jpg","50","2","Ns4,baseline","50","true","",""
"null","","html-keyboard-response","15","289843","0.0-2.0-1.4","","<img src=""img/nature/control/S2.jpg"" width=""540"" height = ""360"" style=""border:14px solid orange"">","null","","","","","",""
"null","","html-keyboard-response","16","290045","0.0-2.0-2.4","","","null","","","","","",""
"1009.2000000029802","","image-keyboard-response","17","291055","0.0-2.0-0.5","","img/nature/control/S4.jpg","49","4","Ns4,baseline","52","false","",""
"null","","html-keyboard-response","18","291357","0.0-2.0-1.5","","<img src=""img/nature/control/S4.jpg"" width=""540"" height = ""360"">","null","","","","","",""
"null","","html-keyboard-response","19","291559","0.0-2.0-2.5","","","null","","","","","",""
"770.4000000059605","","image-keyboard-response","20","292331","0.0-2.0-0.6","","img/nature/control/S1.jpg","49","1","Ns4,baseline","49","true","",""
"null","","html-keyboard-response","21","292632","0.0-2.0-1.6","","<img src=""img/nature/control/S1.jpg"" width=""540"" height = ""360"" style=""border:14px solid orange"">","null","","","","","",""
"null","","html-keyboard-response","22","292834","0.0-2.0-2.6","","","null","","","","","",""
"929.4000000059605","","image-keyboard-response","23","293765","0.0-2.0-0.7","","img/nature/control/S3.jpg","49","3","Ns4,baseline","51","false","",""
"null","","html-keyboard-response","24","294067","0.0-2.0-1.7","","<img src=""img/nature/control/S3.jpg"" width=""540"" height = ""360"">","null","","","","","",""
"null","","html-keyboard-response","25","294269","0.0-2.0-2.7","","","null","","","","","",""
"1008.2000000029802","","image-keyboard-response","26","295279","0.0-2.0-0.8","","img/nature/control/S1.jpg","49","1","Ns4,baseline","49","true","",""
"null","","html-keyboard-response","27","295590","0.0-2.0-1.8","","<img src=""img/nature/control/S1.jpg"" width=""540"" height = ""360"" style=""border:14px solid orange"">","null","","","","","",""
"null","","html-keyboard-response","28","295792","0.0-2.0-2.8","","","null","","","","","",""
"720.8999999985099","","image-keyboard-response","29","296515","0.0-2.0-0.9","","img/nature/control/S4.jpg","50","4","Ns4,baseline","52","false","",""
"null","","html-keyboard-response","30","296816","0.0-2.0-1.9","","<img src=""img/nature/control/S4.jpg"" width=""540"" height = ""360"">","null","","","","","",""
"null","","html-keyboard-response","31","297018","0.0-2.0-2.9","","","null","","","","","",""
"1172.4000000059605","","image-keyboard-response","32","298192","0.0-2.0-0.10","","img/nature/control/S3.jpg","50","3","Ns4,baseline","51","false","",""
"null","","html-keyboard-response","33","298495","0.0-2.0-1.10","","<img src=""img/nature/control/S3.jpg"" width=""540"" height = ""360"">","null","","","","","",""
"null","","html-keyboard-response","34","298697","0.0-2.0-2.10","","","null","","","","","",""
"1167.5","","image-keyboard-response","35","299866","0.0-2.0-0.11","","img/nature/control/S2.jpg","49","2","Ns4,baseline","50","false","",""
"null","","html-keyboard-response","36","300168","0.0-2.0-1.11","","<img src=""img/nature/control/S2.jpg"" width=""540"" height = ""360"">","null","","","","","",""
"null","","html-keyboard-response","37","300370","0.0-2.0-2.11","","","null","","","","","",""
"609.2999999970198","","image-keyboard-response","38","300982","0.0-2.0-0.12","","img/nature/control/S2.jpg","49","2","Ns4,baseline","50","false","",""
"null","","html-keyboard-response","39","301292","0.0-2.0-1.12","","<img src=""img/nature/control/S2.jpg"" width=""540"" height = ""360"">","null","","","","","",""
"null","","html-keyboard-response","40","301494","0.0-2.0-2.12","","","null","","","","","",""
"801.6999999955297","","image-keyboard-response","41","302297","0.0-2.0-0.13","","img/nature/control/S4.jpg","50","4","Ns4,baseline","52","false","",""
"null","","html-keyboard-response","42","302599","0.0-2.0-1.13","","<img src=""img/nature/control/S4.jpg"" width=""540"" height = ""360"">","null","","","","","",""
"null","","html-keyboard-response","43","302801","0.0-2.0-2.13","","","null","","","","","",""
"1087.2000000029802","","image-keyboard-response","44","303890","0.0-2.0-0.14","","img/nature/control/S1.jpg","49","1","Ns4,baseline","49","true","",""
"null","","html-keyboard-response","45","304192","0.0-2.0-1.14","","<img src=""img/nature/control/S1.jpg"" width=""540"" height = ""360"" style=""border:14px solid orange"">","null","","","","","",""
"null","","html-keyboard-response","46","304408","0.0-2.0-2.14","","","null","","","","","",""
"756.2000000029802","","image-keyboard-response","47","305166","0.0-2.0-0.15","","img/nature/control/S3.jpg","49","3","Ns4,baseline","51","false","",""
"null","","html-keyboard-response","48","305467","0.0-2.0-1.15","","<img src=""img/nature/control/S3.jpg"" width=""540"" height = ""360"">","null","","","","","",""
"null","","html-keyboard-response","49","305671","0.0-2.0-2.15","","","null","","","","","",""
"1047.5","","image-keyboard-response","50","306720","0.0-2.0-0.16","","img/nature/control/S4.jpg","50","4","Ns4,baseline","52","false","",""
"null","","html-keyboard-response","51","307022","0.0-2.0-1.16","","<img src=""img/nature/control/S4.jpg"" width=""540"" height = ""360"">","null","","","","","",""
"null","","html-keyboard-response","52","307224","0.0-2.0-2.16","","","null","","","","","",""
"889.6000000014901","","image-keyboard-response","53","308114","0.0-2.0-0.17","","img/nature/control/S3.jpg","49","3","Ns4,baseline","51","false","",""
"null","","html-keyboard-response","54","308418","0.0-2.0-1.17","","<img src=""img/nature/control/S3.jpg"" width=""540"" height = ""360"">","null","","","","","",""
"null","","html-keyboard-response","55","308620","0.0-2.0-2.17","","","null","","","","","",""
"889.8999999985099","","image-keyboard-response","56","309512","0.0-2.0-0.18","","img/nature/control/S1.jpg","50","1","Ns4,baseline","49","false","",""
"null","","html-keyboard-response","57","309815","0.0-2.0-1.18","","<img src=""img/nature/control/S1.jpg"" width=""540"" height = ""360"">","null","","","","","",""
"null","","html-keyboard-response","58","310018","0.0-2.0-2.18","","","null","","","","","",""
"1724.4000000059605","","image-keyboard-response","59","311744","0.0-2.0-0.19","","img/nature/control/S2.jpg","52","2","Ns4,baseline","50","false","",""
"null","","html-keyboard-response","60","312047","0.0-2.0-1.19","","<img src=""img/nature/control/S2.jpg"" width=""540"" height = ""360"">","null","","","","","",""
"null","","html-keyboard-response","61","312250","0.0-2.0-2.19","","","null","","","","","",""
"767","","image-keyboard-response","62","313019","0.0-2.0-0.20","","img/nature/control/S2.jpg","51","2","Ns4,baseline","50","false","",""
"null","","html-keyboard-response","63","313322","0.0-2.0-1.20","","<img src=""img/nature/control/S2.jpg"" width=""540"" height = ""360"">","null","","","","","",""
"null","","html-keyboard-response","64","313524","0.0-2.0-2.20","","","null","","","","","",""
"767.7999999970198","","image-keyboard-response","65","314293","0.0-2.0-0.21","","img/nature/control/S1.jpg","49","1","Ns4,baseline","49","true","",""
"null","","html-keyboard-response","66","314595","0.0-2.0-1.21","","<img src=""img/nature/control/S1.jpg"" width=""540"" height = ""360"" style=""border:14px solid orange"">","null","","","","","",""
"null","","html-keyboard-response","67","314798","0.0-2.0-2.21","","","null","","","","","",""
"1406.7000000029802","","image-keyboard-response","68","316206","0.0-2.0-0.22","","img/nature/control/S3.jpg","52","3","Ns4,baseline","51","false","",""
"null","","html-keyboard-response","69","316508","0.0-2.0-1.22","","<img src=""img/nature/control/S3.jpg"" width=""540"" height = ""360"">","null","","","","","",""
"null","","html-keyboard-response","70","316710","0.0-2.0-2.22","","","null","","","","","",""
"768.9000000059605","","image-keyboard-response","71","317481","0.0-2.0-0.23","","img/nature/control/S4.jpg","51","4","Ns4,baseline","52","false","",""
"null","","html-keyboard-response","72","317784","0.0-2.0-1.23","","<img src=""img/nature/control/S4.jpg"" width=""540"" height = ""360"">","null","","","","","",""
"null","","html-keyboard-response","73","317989","0.0-2.0-2.23","","","null","","","","","",""
"924.5","","image-keyboard-response","74","318915","0.0-2.0-0.24","","img/nature/control/S1.jpg","49","1","Ns4,baseline","49","true","",""
"null","","html-keyboard-response","75","319217","0.0-2.0-1.24","","<img src=""img/nature/control/S1.jpg"" width=""540"" height = ""360"" style=""border:14px solid orange"">","null","","","","","",""
"null","","html-keyboard-response","76","319419","0.0-2.0-2.24","","","null","","","","","",""
"1368.1000000014901","","image-keyboard-response","77","320788","0.0-2.0-0.25","","img/nature/control/S3.jpg","52","3","Ns4,baseline","51","false","",""
"null","","html-keyboard-response","78","321091","0.0-2.0-1.25","","<img src=""img/nature/control/S3.jpg"" width=""540"" height = ""360"">","null","","","","","",""
"null","","html-keyboard-response","79","321292","0.0-2.0-2.25","","","null","","","","","",""
"1287.5","","image-keyboard-response","80","322581","0.0-2.0-0.26","","img/nature/control/S2.jpg","50","2","Ns4,baseline","50","true","",""
"null","","html-keyboard-response","81","322884","0.0-2.0-1.26","","<img src=""img/nature/control/S2.jpg"" width=""540"" height = ""360"" style=""border:14px solid orange"">","null","","","","","",""
"null","","html-keyboard-response","82","323086","0.0-2.0-2.26","","","null","","","","","",""
"1406.3000000044703","","image-keyboard-response","83","324494","0.0-2.0-0.27","","img/nature/control/S4.jpg","51","4","Ns4,baseline","52","false","",""
"null","","html-keyboard-response","84","324796","0.0-2.0-1.27","","<img src=""img/nature/control/S4.jpg"" width=""540"" height = ""360"">","null","","","","","",""
"null","","html-keyboard-response","85","324997","0.0-2.0-2.27","","","null","","","","","",""
"690.6999999955297","","image-keyboard-response","86","325689","0.0-2.0-0.28","","img/nature/control/S4.jpg","49","4","Ns4,baseline","52","false","",""
"null","","html-keyboard-response","87","325992","0.0-2.0-1.28","","<img src=""img/nature/control/S4.jpg"" width=""540"" height = ""360"">","null","","","","","",""
"null","","html-keyboard-response","88","326207","0.0-2.0-2.28","","","null","","","","","",""
"919.7999999970198","","image-keyboard-response","89","327128","0.0-2.0-0.29","","img/nature/control/S2.jpg","50","2","Ns4,baseline","50","true","",""
"null","","html-keyboard-response","90","327432","0.0-2.0-1.29","","<img src=""img/nature/control/S2.jpg"" width=""540"" height = ""360"" style=""border:14px solid orange"">","null","","","","","",""
"null","","html-keyboard-response","91","327633","0.0-2.0-2.29","","","null","","","","","",""
"1327","","image-keyboard-response","92","328961","0.0-2.0-0.30","","img/nature/control/S3.jpg","52","3","Ns4,baseline","51","false","",""
"null","","html-keyboard-response","93","329264","0.0-2.0-1.30","","<img src=""img/nature/control/S3.jpg"" width=""540"" height = ""360"">","null","","","","","",""
"null","","html-keyboard-response","94","329467","0.0-2.0-2.30","","","null","","","","","",""
"1326","","image-keyboard-response","95","330794","0.0-2.0-0.31","","img/nature/control/S1.jpg","49","1","Ns4,baseline","49","true","",""
"null","","html-keyboard-response","96","331096","0.0-2.0-1.31","","<img src=""img/nature/control/S1.jpg"" width=""540"" height = ""360"" style=""border:14px solid orange"">","null","","","","","",""
"null","","html-keyboard-response","97","331297","0.0-2.0-2.31","","","null","","","","","",""
"930.1000000014901","","image-keyboard-response","98","332229","0.0-2.0-0.32","","img/nature/control/S3.jpg","51","3","Ns4,baseline","51","true","",""
"null","","html-keyboard-response","99","332530","0.0-2.0-1.32","","<img src=""img/nature/control/S3.jpg"" width=""540"" height = ""360"" style=""border:14px solid orange"">","null","","","","","",""
"null","","html-keyboard-response","100","332732","0.0-2.0-2.32","","","null","","","","","",""
"1169.2000000029802","","image-keyboard-response","101","333902","0.0-2.0-0.33","","img/nature/control/S2.jpg","52","2","Ns4,baseline","50","false","",""
"null","","html-keyboard-response","102","334205","0.0-2.0-1.33","","<img src=""img/nature/control/S2.jpg"" width=""540"" height = ""360"">","null","","","","","",""
"null","","html-keyboard-response","103","334406","0.0-2.0-2.33","","","null","","","","","",""
"968.6000000014901","","image-keyboard-response","104","335377","0.0-2.0-0.34","","img/nature/control/S4.jpg","51","4","Ns4,baseline","52","false","",""
"null","","html-keyboard-response","105","335679","0.0-2.0-1.34","","<img src=""img/nature/control/S4.jpg"" width=""540"" height = ""360"">","null","","","","","",""
"null","","html-keyboard-response","106","335882","0.0-2.0-2.34","","","null","","","","","",""
"1047.6000000014901","","image-keyboard-response","107","336931","0.0-2.0-0.35","","img/nature/control/S1.jpg","50","1","Ns4,baseline","49","false","",""
"null","","html-keyboard-response","108","337233","0.0-2.0-1.35","","<img src=""img/nature/control/S1.jpg"" width=""540"" height = ""360"">","null","","","","","",""
"null","","html-keyboard-response","109","337436","0.0-2.0-2.35","","","null","","","","","",""
"967.5","","image-keyboard-response","110","338405","0.0-2.0-0.36","","img/nature/control/S1.jpg","49","1","Ns4,baseline","49","true","",""
"null","","html-keyboard-response","111","338724","0.0-2.0-1.36","","<img src=""img/nature/control/S1.jpg"" width=""540"" height = ""360"" style=""border:14px solid orange"">","null","","","","","",""
"null","","html-keyboard-response","112","338925","0.0-2.0-2.36","","","null","","","","","",""
"1510.7000000029802","","image-keyboard-response","113","340437","0.0-2.0-0.37","","img/nature/control/S3.jpg","51","3","Ns4,baseline","51","true","",""
"null","","html-keyboard-response","114","340741","0.0-2.0-1.37","","<img src=""img/nature/control/S3.jpg"" width=""540"" height = ""360"" style=""border:14px solid orange"">","null","","","","","",""
"null","","html-keyboard-response","115","340943","0.0-2.0-2.37","","","null","","","","","",""
"1245.6999999955297","","image-keyboard-response","116","342190","0.0-2.0-0.38","","img/nature/control/S4.jpg","52","4","Ns4,baseline","52","true","",""
"null","","html-keyboard-response","117","342493","0.0-2.0-1.38","","<img src=""img/nature/control/S4.jpg"" width=""540"" height = ""360"" style=""border:14px solid orange"">","null","","","","","",""
"null","","html-keyboard-response","118","342695","0.0-2.0-2.38","","","null","","","","","",""
"1765.8999999985099","","image-keyboard-response","119","344461","0.0-2.0-0.39","","img/nature/control/S2.jpg","49","2","Ns4,baseline","50","false","",""
"null","","html-keyboard-response","120","344763","0.0-2.0-1.39","","<img src=""img/nature/control/S2.jpg"" width=""540"" height = ""360"">","null","","","","","",""
"null","","html-keyboard-response","121","344965","0.0-2.0-2.39","","","null","","","","","",""
"1208","","image-keyboard-response","122","346175","0.0-2.0-0.40","","img/nature/control/S4.jpg","52","4","Ns4,baseline","52","true","",""
"null","","html-keyboard-response","123","346478","0.0-2.0-1.40","","<img src=""img/nature/control/S4.jpg"" width=""540"" height = ""360"" style=""border:14px solid orange"">","null","","","","","",""
"null","","html-keyboard-response","124","346681","0.0-2.0-2.40","","","null","","","","","",""
"1285","","image-keyboard-response","125","347968","0.0-2.0-0.41","","img/nature/control/S3.jpg","51","3","Ns4,baseline","51","true","",""
"null","","html-keyboard-response","126","348270","0.0-2.0-1.41","","<img src=""img/nature/control/S3.jpg"" width=""540"" height = ""360"" style=""border:14px solid orange"">","null","","","","","",""
"null","","html-keyboard-response","127","348472","0.0-2.0-2.41","","","null","","","","","",""
"1128","","image-keyboard-response","128","349601","0.0-2.0-0.42","","img/nature/control/S1.jpg","50","1","Ns4,baseline","49","false","",""
"null","","html-keyboard-response","129","349906","0.0-2.0-1.42","","<img src=""img/nature/control/S1.jpg"" width=""540"" height = ""360"">","null","","","","","",""
"null","","html-keyboard-response","130","350107","0.0-2.0-2.42","","","null","","","","","",""
"1246.2999999970198","","image-keyboard-response","131","351355","0.0-2.0-0.43","","img/nature/control/S2.jpg","50","2","Ns4,baseline","50","true","",""
"null","","html-keyboard-response","132","351658","0.0-2.0-1.43","","<img src=""img/nature/control/S2.jpg"" width=""540"" height = ""360"" style=""border:14px solid orange"">","null","","","","","",""
"null","","html-keyboard-response","133","351861","0.0-2.0-2.43","","","null","","","","","",""
"1085.8000000044703","","image-keyboard-response","134","352949","0.0-2.0-0.44","","img/nature/control/S4.jpg","52","4","Ns4,baseline","52","true","",""
"null","","html-keyboard-response","135","353250","0.0-2.0-1.44","","<img src=""img/nature/control/S4.jpg"" width=""540"" height = ""360"" style=""border:14px solid orange"">","null","","","","","",""
"null","","html-keyboard-response","136","353453","0.0-2.0-2.44","","","null","","","","","",""
"1526.1000000014901","","image-keyboard-response","137","354980","0.0-2.0-0.45","","img/nature/control/S2.jpg","50","2","Ns4,baseline","50","true","",""
"null","","html-keyboard-response","138","355295","0.0-2.0-1.45","","<img src=""img/nature/control/S2.jpg"" width=""540"" height = ""360"" style=""border:14px solid orange"">","null","","","","","",""
"null","","html-keyboard-response","139","355500","0.0-2.0-2.45","","","null","","","","","",""
"1113.1999999955297","","image-keyboard-response","140","356615","0.0-2.0-0.46","","img/nature/control/S1.jpg","51","1","Ns4,baseline","49","false","",""
"null","","html-keyboard-response","141","356918","0.0-2.0-1.46","","<img src=""img/nature/control/S1.jpg"" width=""540"" height = ""360"">","null","","","","","",""
"null","","html-keyboard-response","142","357120","0.0-2.0-2.46","","","null","","","","","",""
"1093.2999999970198","","image-keyboard-response","143","358215","0.0-2.0-0.47","","img/nature/control/S3.jpg","51","3","Ns4,baseline","51","true","",""
"null","","html-keyboard-response","144","358517","0.0-2.0-1.47","","<img src=""img/nature/control/S3.jpg"" width=""540"" height = ""360"" style=""border:14px solid orange"">","null","","","","","",""
"null","","html-keyboard-response","145","358719","0.0-2.0-2.47","","","null","","","","","",""
"1128.7000000029802","","image-keyboard-response","146","359849","0.0-2.0-0.48","","img/nature/control/S1.jpg","52","1","Ns4,baseline","49","false","",""
"null","","html-keyboard-response","147","360151","0.0-2.0-1.48","","<img src=""img/nature/control/S1.jpg"" width=""540"" height = ""360"">","null","","","","","",""
"null","","html-keyboard-response","148","360352","0.0-2.0-2.48","","","null","","","","","",""
"976","","image-keyboard-response","149","361330","0.0-2.0-0.49","","img/nature/control/S4.jpg","51","4","Ns4,baseline","52","false","",""
"null","","html-keyboard-response","150","361632","0.0-2.0-1.49","","<img src=""img/nature/control/S4.jpg"" width=""540"" height = ""360"">","null","","","","","",""
"null","","html-keyboard-response","151","361834","0.0-2.0-2.49","","","null","","","","","",""
"1048.7000000029802","","image-keyboard-response","152","362884","0.0-2.0-0.50","","img/nature/control/S2.jpg","50","2","Ns4,baseline","50","true","",""
"null","","html-keyboard-response","153","363188","0.0-2.0-1.50","","<img src=""img/nature/control/S2.jpg"" width=""540"" height = ""360"" style=""border:14px solid orange"">","null","","","","","",""
"null","","html-keyboard-response","154","363390","0.0-2.0-2.50","","","null","","","","","",""
"927.2000000029802","","image-keyboard-response","155","364318","0.0-2.0-0.51","","img/nature/control/S3.jpg","51","3","Ns4,baseline","51","true","",""
"null","","html-keyboard-response","156","364620","0.0-2.0-1.51","","<img src=""img/nature/control/S3.jpg"" width=""540"" height = ""360"" style=""border:14px solid orange"">","null","","","","","",""
"null","","html-keyboard-response","157","364823","0.0-2.0-2.51","","","null","","","","","",""
"1127.5","","image-keyboard-response","158","365952","0.0-2.0-0.52","","img/nature/control/S4.jpg","52","4","Ns4,baseline","52","true","",""
"null","","html-keyboard-response","159","366254","0.0-2.0-1.52","","<img src=""img/nature/control/S4.jpg"" width=""540"" height = ""360"" style=""border:14px solid orange"">","null","","","","","",""
"null","","html-keyboard-response","160","366455","0.0-2.0-2.52","","","null","","","","","",""
"1129.6000000014901","","image-keyboard-response","161","367586","0.0-2.0-0.53","","img/nature/control/S1.jpg","49","1","Ns4,baseline","49","true","",""
"null","","html-keyboard-response","162","367889","0.0-2.0-1.53","","<img src=""img/nature/control/S1.jpg"" width=""540"" height = ""360"" style=""border:14px solid orange"">","null","","","","","",""
"null","","html-keyboard-response","163","368090","0.0-2.0-2.53","","","null","","","","","",""
"1088.2999999970198","","image-keyboard-response","164","369180","0.0-2.0-0.54","","img/nature/control/S2.jpg","50","2","Ns4,baseline","50","true","",""
"null","","html-keyboard-response","165","369483","0.0-2.0-1.54","","<img src=""img/nature/control/S2.jpg"" width=""540"" height = ""360"" style=""border:14px solid orange"">","null","","","","","",""
"null","","html-keyboard-response","166","369686","0.0-2.0-2.54","","","null","","","","","",""
"1047.1999999955297","","image-keyboard-response","167","370734","0.0-2.0-0.55","","img/nature/control/S3.jpg","51","3","Ns4,baseline","51","true","",""
"null","","html-keyboard-response","168","371036","0.0-2.0-1.55","","<img src=""img/nature/control/S3.jpg"" width=""540"" height = ""360"" style=""border:14px solid orange"">","null","","","","","",""
"null","","html-keyboard-response","169","371239","0.0-2.0-2.55","","","null","","","","","",""
"1207","","image-keyboard-response","170","372447","0.0-2.0-0.56","","img/nature/control/S1.jpg","50","1","Ns4,baseline","49","false","",""
"null","","html-keyboard-response","171","372750","0.0-2.0-1.56","","<img src=""img/nature/control/S1.jpg"" width=""540"" height = ""360"">","null","","","","","",""
"null","","html-keyboard-response","172","372953","0.0-2.0-2.56","","","null","","","","","",""
"1087.3999999985099","","image-keyboard-response","173","374042","0.0-2.0-0.57","","img/nature/control/S2.jpg","50","2","Ns4,baseline","50","true","",""
"null","","html-keyboard-response","174","374345","0.0-2.0-1.57","","<img src=""img/nature/control/S2.jpg"" width=""540"" height = ""360"" style=""border:14px solid orange"">","null","","","","","",""
"null","","html-keyboard-response","175","374547","0.0-2.0-2.57","","","null","","","","","",""
"1405.6999999955297","","image-keyboard-response","176","375954","0.0-2.0-0.58","","img/nature/control/S3.jpg","51","3","Ns4,baseline","51","true","",""
"null","","html-keyboard-response","177","376256","0.0-2.0-1.58","","<img src=""img/nature/control/S3.jpg"" width=""540"" height = ""360"" style=""border:14px solid orange"">","null","","","","","",""
"null","","html-keyboard-response","178","376459","0.0-2.0-2.58","","","null","","","","","",""
"888.6000000014901","","image-keyboard-response","179","377349","0.0-2.0-0.59","","img/nature/control/S4.jpg","52","4","Ns4,baseline","52","true","",""
"null","","html-keyboard-response","180","377651","0.0-2.0-1.59","","<img src=""img/nature/control/S4.jpg"" width=""540"" height = ""360"" style=""border:14px solid orange"">","null","","","","","",""
"null","","html-keyboard-response","181","377853","0.0-2.0-2.59","","","null","","","","","",""
"689.6000000014901","","image-keyboard-response","182","378544","0.0-2.0-0.60","","img/nature/control/S4.jpg","52","4","Ns4,baseline","52","true","",""
"null","","html-keyboard-response","183","378851","0.0-2.0-1.60","","<img src=""img/nature/control/S4.jpg"" width=""540"" height = ""360"" style=""border:14px solid orange"">","null","","","","","",""
"null","","html-keyboard-response","184","379053","0.0-2.0-2.60","","","null","","","","","",""
"924.2999999970198","","image-keyboard-response","185","379979","0.0-2.0-0.61","","img/nature/control/S3.jpg","51","3","Ns4,baseline","51","true","",""
"null","","html-keyboard-response","186","380282","0.0-2.0-1.61","","<img src=""img/nature/control/S3.jpg"" width=""540"" height = ""360"" style=""border:14px solid orange"">","null","","","","","",""
"null","","html-keyboard-response","187","380483","0.0-2.0-2.61","","","null","","","","","",""
"1128.5","","image-keyboard-response","188","381613","0.0-2.0-0.62","","img/nature/control/S1.jpg","49","1","Ns4,baseline","49","true","",""
"null","","html-keyboard-response","189","381916","0.0-2.0-1.62","","<img src=""img/nature/control/S1.jpg"" width=""540"" height = ""360"" style=""border:14px solid orange"">","null","","","","","",""
"null","","html-keyboard-response","190","382119","0.0-2.0-2.62","","","null","","","","","",""
"767.8999999985099","","image-keyboard-response","191","382888","0.0-2.0-0.63","","img/nature/control/S2.jpg","50","2","Ns4,baseline","50","true","",""
"null","","html-keyboard-response","192","383191","0.0-2.0-1.63","","<img src=""img/nature/control/S2.jpg"" width=""540"" height = ""360"" style=""border:14px solid orange"">","null","","","","","",""
"null","","html-keyboard-response","193","383396","0.0-2.0-2.63","","","null","","","","","",""
"924.7000000029802","","image-keyboard-response","194","384322","0.0-2.0-0.64","","img/nature/control/S3.jpg","51","3","Ns4,baseline","51","true","",""
"null","","html-keyboard-response","195","384624","0.0-2.0-1.64","","<img src=""img/nature/control/S3.jpg"" width=""540"" height = ""360"" style=""border:14px solid orange"">","null","","","","","",""
"null","","html-keyboard-response","196","384824","0.0-2.0-2.64","","","null","","","","","",""
"732.1000000014901","","image-keyboard-response","197","385558","0.0-2.0-0.65","","img/nature/control/S4.jpg","52","4","Ns4,baseline","52","true","",""
"null","","html-keyboard-response","198","385860","0.0-2.0-1.65","","<img src=""img/nature/control/S4.jpg"" width=""540"" height = ""360"" style=""border:14px solid orange"">","null","","","","","",""
"null","","html-keyboard-response","199","386061","0.0-2.0-2.65","","","null","","","","","",""
"1408","","image-keyboard-response","200","387471","0.0-2.0-0.66","","img/nature/control/S1.jpg","50","1","Ns4,baseline","49","false","",""
"null","","html-keyboard-response","201","387774","0.0-2.0-1.66","","<img src=""img/nature/control/S1.jpg"" width=""540"" height = ""360"">","null","","","","","",""
"null","","html-keyboard-response","202","387983","0.0-2.0-2.66","","","null","","","","","",""
"800.6000000014901","","image-keyboard-response","203","388785","0.0-2.0-0.67","","img/nature/control/S2.jpg","50","2","Ns4,baseline","50","true","",""
"null","","html-keyboard-response","204","389088","0.0-2.0-1.67","","<img src=""img/nature/control/S2.jpg"" width=""540"" height = ""360"" style=""border:14px solid orange"">","null","","","","","",""
"null","","html-keyboard-response","205","389290","0.0-2.0-2.67","","","null","","","","","",""
"889.1999999955297","","image-keyboard-response","206","390180","0.0-2.0-0.68","","img/nature/control/S3.jpg","51","3","Ns4,baseline","51","true","",""
"null","","html-keyboard-response","207","390494","0.0-2.0-1.68","","<img src=""img/nature/control/S3.jpg"" width=""540"" height = ""360"" style=""border:14px solid orange"">","null","","","","","",""
"null","","html-keyboard-response","208","390697","0.0-2.0-2.68","","","null","","","","","",""
"796.9000000059605","","image-keyboard-response","209","391495","0.0-2.0-0.69","","img/nature/control/S4.jpg","52","4","Ns4,baseline","52","true","",""
"null","","html-keyboard-response","210","391798","0.0-2.0-1.69","","<img src=""img/nature/control/S4.jpg"" width=""540"" height = ""360"" style=""border:14px solid orange"">","null","","","","","",""
"null","","html-keyboard-response","211","391999","0.0-2.0-2.69","","","null","","","","","",""
"769.1000000014901","","image-keyboard-response","212","392770","0.0-2.0-0.70","","img/nature/control/S1.jpg","49","1","Ns4,baseline","49","true","",""
"null","","html-keyboard-response","213","393074","0.0-2.0-1.70","","<img src=""img/nature/control/S1.jpg"" width=""540"" height = ""360"" style=""border:14px solid orange"">","null","","","","","",""
"null","","html-keyboard-response","214","393279","0.0-2.0-2.70","","","null","","","","","",""
"804.6000000014901","","image-keyboard-response","215","394085","0.0-2.0-0.71","","img/nature/control/S2.jpg","50","2","Ns4,baseline","50","true","",""
"null","","html-keyboard-response","216","394388","0.0-2.0-1.71","","<img src=""img/nature/control/S2.jpg"" width=""540"" height = ""360"" style=""border:14px solid orange"">","null","","","","","",""
"null","","html-keyboard-response","217","394589","0.0-2.0-2.71","","","null","","","","","",""
"729.7999999970198","","image-keyboard-response","218","395321","0.0-2.0-0.72","","img/nature/control/S2.jpg","50","2","Ns4,baseline","50","true","",""
"null","","html-keyboard-response","219","395623","0.0-2.0-1.72","","<img src=""img/nature/control/S2.jpg"" width=""540"" height = ""360"" style=""border:14px solid orange"">","null","","","","","",""
"null","","html-keyboard-response","220","395825","0.0-2.0-2.72","","","null","","","","","",""
"809.3999999985099","","image-keyboard-response","221","396636","0.0-2.0-0.73","","img/nature/control/S4.jpg","52","4","Ns4,baseline","52","true","",""
"null","","html-keyboard-response","222","396938","0.0-2.0-1.73","","<img src=""img/nature/control/S4.jpg"" width=""540"" height = ""360"" style=""border:14px solid orange"">","null","","","","","",""
"null","","html-keyboard-response","223","397140","0.0-2.0-2.73","","","null","","","","","",""
"731","","image-keyboard-response","224","397872","0.0-2.0-0.74","","img/nature/control/S1.jpg","50","1","Ns4,baseline","49","false","",""
"null","","html-keyboard-response","225","398174","0.0-2.0-1.74","","<img src=""img/nature/control/S1.jpg"" width=""540"" height = ""360"">","null","","","","","",""
"null","","html-keyboard-response","226","398375","0.0-2.0-2.74","","","null","","","","","",""
"889.6000000014901","","image-keyboard-response","227","399266","0.0-2.0-0.75","","img/nature/control/S3.jpg","51","3","Ns4,baseline","51","true","",""
"null","","html-keyboard-response","228","399568","0.0-2.0-1.75","","<img src=""img/nature/control/S3.jpg"" width=""540"" height = ""360"" style=""border:14px solid orange"">","null","","","","","",""
"null","","html-keyboard-response","229","399770","0.0-2.0-2.75","","","null","","","","","",""
"809.7000000029802","","image-keyboard-response","230","400581","0.0-2.0-0.76","","img/nature/control/S3.jpg","51","3","Ns4,baseline","51","true","",""
"null","","html-keyboard-response","231","400891","0.0-2.0-1.76","","<img src=""img/nature/control/S3.jpg"" width=""540"" height = ""360"" style=""border:14px solid orange"">","null","","","","","",""
"null","","html-keyboard-response","232","401093","0.0-2.0-2.76","","","null","","","","","",""
"1080.5","","image-keyboard-response","233","402174","0.0-2.0-0.77","","img/nature/control/S1.jpg","49","1","Ns4,baseline","49","true","",""
"null","","html-keyboard-response","234","402477","0.0-2.0-1.77","","<img src=""img/nature/control/S1.jpg"" width=""540"" height = ""360"" style=""border:14px solid orange"">","null","","","","","",""
"null","","html-keyboard-response","235","402679","0.0-2.0-2.77","","","null","","","","","",""
"809.4000000059605","","image-keyboard-response","236","403490","0.0-2.0-0.78","","img/nature/control/S4.jpg","52","4","Ns4,baseline","52","true","",""
"null","","html-keyboard-response","237","403792","0.0-2.0-1.78","","<img src=""img/nature/control/S4.jpg"" width=""540"" height = ""360"" style=""border:14px solid orange"">","null","","","","","",""
"null","","html-keyboard-response","238","403995","0.0-2.0-2.78","","","null","","","","","",""
"688.6000000014901","","image-keyboard-response","239","404686","0.0-2.0-0.79","","img/nature/control/S2.jpg","50","2","Ns4,baseline","50","true","",""
"null","","html-keyboard-response","240","405000","0.0-2.0-1.79","","<img src=""img/nature/control/S2.jpg"" width=""540"" height = ""360"" style=""border:14px solid orange"">","null","","","","","",""
"null","","html-keyboard-response","241","405202","0.0-2.0-2.79","","","null","","","","","",""
"9018.19999999553","","instructions","242","414221","0.0-3.0","[{""page_index"":0,""viewing_time"":9018}]","","","","","","","",""
"12191.5","","instructions","243","426413","0.0-4.0","[{""page_index"":0,""viewing_time"":12191.10000000149}]","","","","","","","",""
"null","","image-keyboard-response","244","428916","0.0-5.0","","img/nature/S4.jpg","null","4","Ns4,train","52","false","",""
"null","","html-keyboard-response","245","429269","0.0-6.0","","<img src=""img/nature/S4.jpg"" width=""540"" height = ""360"">","null","","","","","",""
"null","","html-keyboard-response","246","429471","0.0-7.0","","","null","","","","","",""
"473.69999999552965","","image-keyboard-response","247","429946","0.0-8.0","","img/nature/S3.jpg","52","3","Ns4,train","51","false","",""
"null","","html-keyboard-response","248","430313","0.0-9.0","","<img src=""img/nature/S3.jpg"" width=""540"" height = ""360"">","null","","","","","",""
"null","","html-keyboard-response","249","430514","0.0-10.0","","","null","","","","","",""
"1063.8999999985099","","image-keyboard-response","250","431580","0.0-11.0","","img/nature/S4.jpg","51","4","Ns4,train","52","false","",""
"null","","html-keyboard-response","251","431933","0.0-12.0","","<img src=""img/nature/S4.jpg"" width=""540"" height = ""360"">","null","","","","","",""
"null","","html-keyboard-response","252","432135","0.0-13.0","","","null","","","","","",""
"997.6000000014901","","image-keyboard-response","253","433134","0.0-14.0","","img/nature/S3.jpg","50","3","Ns4,train","51","false","",""
"null","","html-keyboard-response","254","433487","0.0-15.0","","<img src=""img/nature/S3.jpg"" width=""540"" height = ""360"">","null","","","","","",""
"null","","html-keyboard-response","255","433689","0.0-16.0","","","null","","","","","",""
"1077.5","","image-keyboard-response","256","434768","0.0-17.0","","img/nature/S4.jpg","49","4","Ns4,train","52","false","",""
"null","","html-keyboard-response","257","435121","0.0-18.0","","<img src=""img/nature/S4.jpg"" width=""540"" height = ""360"">","null","","","","","",""
"null","","html-keyboard-response","258","435323","0.0-19.0","","","null","","","","","",""
"1037.6000000014901","","image-keyboard-response","259","436362","0.0-20.0","","img/nature/S4.jpg","52","4","Ns4,train","52","true","",""
"null","","html-keyboard-response","260","436715","0.0-21.0","","<img src=""img/nature/S4.jpg"" width=""540"" height = ""360"" style=""border:14px solid orange"">","null","","","","","",""
"null","","html-keyboard-response","261","436917","0.0-22.0","","","null","","","","","",""
"1196.2999999970198","","image-keyboard-response","262","438115","0.0-23.0","","img/nature/S2.jpg","49","2","Ns4,train","50","false","",""
"null","","html-keyboard-response","263","438468","0.0-24.0","","<img src=""img/nature/S2.jpg"" width=""540"" height = ""360"">","null","","","","","",""
"null","","html-keyboard-response","264","438669","0.0-25.0","","","null","","","","","",""
"879.0999999940395","","image-keyboard-response","265","439549","0.0-26.0","","img/nature/S1.jpg","50","1","Ns4,train","49","false","",""
"null","","html-keyboard-response","266","439902","0.0-27.0","","<img src=""img/nature/S1.jpg"" width=""540"" height = ""360"">","null","","","","","",""
"null","","html-keyboard-response","267","440104","0.0-28.0","","","null","","","","","",""
"879","","image-keyboard-response","268","440984","0.0-29.0","","img/nature/S3.jpg","51","3","Ns4,train","51","true","",""
"null","","html-keyboard-response","269","441336","0.0-30.0","","<img src=""img/nature/S3.jpg"" width=""540"" height = ""360"" style=""border:14px solid orange"">","null","","","","","",""
"null","","html-keyboard-response","270","441538","0.0-31.0","","","null","","","","","",""
"919.3999999985099","","image-keyboard-response","271","442459","0.0-32.0","","img/nature/S4.jpg","52","4","Ns4,train","52","true","",""
"null","","html-keyboard-response","272","442812","0.0-33.0","","<img src=""img/nature/S4.jpg"" width=""540"" height = ""360"" style=""border:14px solid orange"">","null","","","","","",""
"null","","html-keyboard-response","273","443014","0.0-34.0","","","null","","","","","",""
"1156.4000000059605","","image-keyboard-response","274","444172","0.0-35.0","","img/nature/S2.jpg","50","2","Ns4,train","50","true","",""
"null","","html-keyboard-response","275","444524","0.0-36.0","","<img src=""img/nature/S2.jpg"" width=""540"" height = ""360"" style=""border:14px solid orange"">","null","","","","","",""
"null","","html-keyboard-response","276","444726","0.0-37.0","","","null","","","","","",""
"999","","image-keyboard-response","277","445726","0.0-38.0","","img/nature/S1.jpg","49","1","Ns4,train","49","true","",""
"null","","html-keyboard-response","278","446079","0.0-39.0","","<img src=""img/nature/S1.jpg"" width=""540"" height = ""360"" style=""border:14px solid orange"">","null","","","","","",""
"null","","html-keyboard-response","279","446281","0.0-40.0","","","null","","","","","",""
"914.3999999985099","","image-keyboard-response","280","447200","0.0-41.0","","img/nature/S4.jpg","52","4","Ns4,train","52","true","",""
"null","","html-keyboard-response","281","447553","0.0-42.0","","<img src=""img/nature/S4.jpg"" width=""540"" height = ""360"" style=""border:14px solid orange"">","null","","","","","",""
"null","","html-keyboard-response","282","447754","0.0-43.0","","","null","","","","","",""
"999.5","","image-keyboard-response","283","448755","0.0-44.0","","img/nature/S3.jpg","51","3","Ns4,train","51","true","",""
"null","","html-keyboard-response","284","449108","0.0-45.0","","<img src=""img/nature/S3.jpg"" width=""540"" height = ""360"" style=""border:14px solid orange"">","null","","","","","",""
"null","","html-keyboard-response","285","449309","0.0-46.0","","","null","","","","","",""
"1044.1999999955297","","image-keyboard-response","286","450355","0.0-47.0","","img/nature/S2.jpg","50","2","Ns4,train","50","true","",""
"null","","html-keyboard-response","287","450707","0.0-48.0","","<img src=""img/nature/S2.jpg"" width=""540"" height = ""360"" style=""border:14px solid orange"">","null","","","","","",""
"null","","html-keyboard-response","288","450908","0.0-49.0","","","null","","","","","",""
"919.8999999985099","","image-keyboard-response","289","451830","0.0-50.0","","img/nature/S1.jpg","49","1","Ns4,train","49","true","",""
"null","","html-keyboard-response","290","452183","0.0-51.0","","<img src=""img/nature/S1.jpg"" width=""540"" height = ""360"" style=""border:14px solid orange"">","null","","","","","",""
"null","","html-keyboard-response","291","452385","0.0-52.0","","","null","","","","","",""
"1037.3000000044703","","image-keyboard-response","292","453424","0.0-53.0","","img/nature/S3.jpg","52","3","Ns4,train","51","false","",""
"null","","html-keyboard-response","293","453776","0.0-54.0","","<img src=""img/nature/S3.jpg"" width=""540"" height = ""360"">","null","","","","","",""
"null","","html-keyboard-response","294","453978","0.0-55.0","","","null","","","","","",""
"1078.1000000014901","","image-keyboard-response","295","455058","0.0-56.0","","img/nature/S2.jpg","50","2","Ns4,train","50","true","",""
"null","","html-keyboard-response","296","455411","0.0-57.0","","<img src=""img/nature/S2.jpg"" width=""540"" height = ""360"" style=""border:14px solid orange"">","null","","","","","",""
"null","","html-keyboard-response","297","455613","0.0-58.0","","","null","","","","","",""
"1156.5","","image-keyboard-response","298","456771","0.0-59.0","","img/nature/S1.jpg","51","1","Ns4,train","49","false","",""
"null","","html-keyboard-response","299","457123","0.0-60.0","","<img src=""img/nature/S1.jpg"" width=""540"" height = ""360"">","null","","","","","",""
"null","","html-keyboard-response","300","457325","0.0-61.0","","","null","","","","","",""
"879.7999999970198","","image-keyboard-response","301","458206","0.0-62.0","","img/nature/S4.jpg","52","4","Ns4,train","52","true","",""
"null","","html-keyboard-response","302","458559","0.0-63.0","","<img src=""img/nature/S4.jpg"" width=""540"" height = ""360"" style=""border:14px solid orange"">","null","","","","","",""
"null","","html-keyboard-response","303","458762","0.0-64.0","","","null","","","","","",""
"762","","image-keyboard-response","304","459529","0.0-65.0","","img/nature/S4.jpg","52","4","Ns4,train","52","true","",""
"null","","html-keyboard-response","305","459883","0.0-66.0","","<img src=""img/nature/S4.jpg"" width=""540"" height = ""360"" style=""border:14px solid orange"">","null","","","","","",""
"null","","html-keyboard-response","306","460085","0.0-67.0","","","null","","","","","",""
"1315.1000000014901","","image-keyboard-response","307","461402","0.0-68.0","","img/nature/S2.jpg","49","2","Ns4,train","50","false","",""
"null","","html-keyboard-response","308","461754","0.0-69.0","","<img src=""img/nature/S2.jpg"" width=""540"" height = ""360"">","null","","","","","",""
"null","","html-keyboard-response","309","461956","0.0-70.0","","","null","","","","","",""
"839.6000000014901","","image-keyboard-response","310","462797","0.0-71.0","","img/nature/S1.jpg","49","1","Ns4,train","49","true","",""
"null","","html-keyboard-response","311","463150","0.0-72.0","","<img src=""img/nature/S1.jpg"" width=""540"" height = ""360"" style=""border:14px solid orange"">","null","","","","","",""
"null","","html-keyboard-response","312","463352","0.0-73.0","","","null","","","","","",""
"838.7999999970198","","image-keyboard-response","313","464192","0.0-74.0","","img/nature/S4.jpg","52","4","Ns4,train","52","true","",""
"null","","html-keyboard-response","314","464545","0.0-75.0","","<img src=""img/nature/S4.jpg"" width=""540"" height = ""360"" style=""border:14px solid orange"">","null","","","","","",""
"null","","html-keyboard-response","315","464746","0.0-76.0","","","null","","","","","",""
"758.3000000044703","","image-keyboard-response","316","465506","0.0-77.0","","img/nature/S3.jpg","51","3","Ns4,train","51","true","",""
"null","","html-keyboard-response","317","465858","0.0-78.0","","<img src=""img/nature/S3.jpg"" width=""540"" height = ""360"" style=""border:14px solid orange"">","null","","","","","",""
"null","","html-keyboard-response","318","466060","0.0-79.0","","","null","","","","","",""
"919.2000000029802","","image-keyboard-response","319","466980","0.0-80.0","","img/nature/S4.jpg","52","4","Ns4,train","52","true","",""
"null","","html-keyboard-response","320","467332","0.0-81.0","","<img src=""img/nature/S4.jpg"" width=""540"" height = ""360"" style=""border:14px solid orange"">","null","","","","","",""
"null","","html-keyboard-response","321","467534","0.0-82.0","","","null","","","","","",""
"640.6000000014901","","image-keyboard-response","322","468176","0.0-83.0","","img/nature/S3.jpg","51","3","Ns4,train","51","true","",""
"null","","html-keyboard-response","323","468528","0.0-84.0","","<img src=""img/nature/S3.jpg"" width=""540"" height = ""360"" style=""border:14px solid orange"">","null","","","","","",""
"null","","html-keyboard-response","324","468730","0.0-85.0","","","null","","","","","",""
"720.2000000029802","","image-keyboard-response","325","469452","0.0-86.0","","img/nature/S4.jpg","52","4","Ns4,train","52","true","",""
"null","","html-keyboard-response","326","469804","0.0-87.0","","<img src=""img/nature/S4.jpg"" width=""540"" height = ""360"" style=""border:14px solid orange"">","null","","","","","",""
"null","","html-keyboard-response","327","470007","0.0-88.0","","","null","","","","","",""
"718.7000000029802","","image-keyboard-response","328","470727","0.0-89.0","","img/nature/S4.jpg","52","4","Ns4,train","52","true","",""
"null","","html-keyboard-response","329","471080","0.0-90.0","","<img src=""img/nature/S4.jpg"" width=""540"" height = ""360"" style=""border:14px solid orange"">","null","","","","","",""
"null","","html-keyboard-response","330","471282","0.0-91.0","","","null","","","","","",""
"1595","","image-keyboard-response","331","472878","0.0-92.0","","img/nature/S2.jpg","50","2","Ns4,train","50","true","",""
"null","","html-keyboard-response","332","473230","0.0-93.0","","<img src=""img/nature/S2.jpg"" width=""540"" height = ""360"" style=""border:14px solid orange"">","null","","","","","",""
"null","","html-keyboard-response","333","473433","0.0-94.0","","","null","","","","","",""
"759.1000000014901","","image-keyboard-response","334","474193","0.0-95.0","","img/nature/S1.jpg","49","1","Ns4,train","49","true","",""
"null","","html-keyboard-response","335","474545","0.0-96.0","","<img src=""img/nature/S1.jpg"" width=""540"" height = ""360"" style=""border:14px solid orange"">","null","","","","","",""
"null","","html-keyboard-response","336","474747","0.0-97.0","","","null","","","","","",""
"1078.3999999985099","","image-keyboard-response","337","475827","0.0-98.0","","img/nature/S3.jpg","51","3","Ns4,train","51","true","",""
"null","","html-keyboard-response","338","476180","0.0-99.0","","<img src=""img/nature/S3.jpg"" width=""540"" height = ""360"" style=""border:14px solid orange"">","null","","","","","",""
"null","","html-keyboard-response","339","476382","0.0-100.0","","","null","","","","","",""
"678.2999999970198","","image-keyboard-response","340","477063","0.0-101.0","","img/nature/S3.jpg","51","3","Ns4,train","51","true","",""
"null","","html-keyboard-response","341","477415","0.0-102.0","","<img src=""img/nature/S3.jpg"" width=""540"" height = ""360"" style=""border:14px solid orange"">","null","","","","","",""
"null","","html-keyboard-response","342","477636","0.0-103.0","","","null","","","","","",""
"580.3000000044703","","image-keyboard-response","343","478218","0.0-104.0","","img/nature/S3.jpg","51","3","Ns4,train","51","true","",""
"null","","html-keyboard-response","344","478570","0.0-105.0","","<img src=""img/nature/S3.jpg"" width=""540"" height = ""360"" style=""border:14px solid orange"">","null","","","","","",""
"null","","html-keyboard-response","345","478772","0.0-106.0","","","null","","","","","",""
"1158.5","","image-keyboard-response","346","479932","0.0-107.0","","img/nature/S2.jpg","49","2","Ns4,train","50","false","",""
"null","","html-keyboard-response","347","480284","0.0-108.0","","<img src=""img/nature/S2.jpg"" width=""540"" height = ""360"">","null","","","","","",""
"null","","html-keyboard-response","348","480499","0.0-109.0","","","null","","","","","",""
"985.9000000059605","","image-keyboard-response","349","481486","0.0-110.0","","img/nature/S1.jpg","49","1","Ns4,train","49","true","",""
"null","","html-keyboard-response","350","481838","0.0-111.0","","<img src=""img/nature/S1.jpg"" width=""540"" height = ""360"" style=""border:14px solid orange"">","null","","","","","",""
"null","","html-keyboard-response","351","482041","0.0-112.0","","","null","","","","","",""
"759.4000000059605","","image-keyboard-response","352","482802","0.0-113.0","","img/nature/S2.jpg","50","2","Ns4,train","50","true","",""
"null","","html-keyboard-response","353","483154","0.0-114.0","","<img src=""img/nature/S2.jpg"" width=""540"" height = ""360"" style=""border:14px solid orange"">","null","","","","","",""
"null","","html-keyboard-response","354","483355","0.0-115.0","","","null","","","","","",""
"640","","image-keyboard-response","355","483997","0.0-116.0","","img/nature/S1.jpg","49","1","Ns4,train","49","true","",""
"null","","html-keyboard-response","356","484350","0.0-117.0","","<img src=""img/nature/S1.jpg"" width=""540"" height = ""360"" style=""border:14px solid orange"">","null","","","","","",""
"null","","html-keyboard-response","357","484551","0.0-118.0","","","null","","","","","",""
"1037.4000000059605","","image-keyboard-response","358","485591","0.0-119.0","","img/nature/S3.jpg","51","3","Ns4,train","51","true","",""
"null","","html-keyboard-response","359","485943","0.0-120.0","","<img src=""img/nature/S3.jpg"" width=""540"" height = ""360"" style=""border:14px solid orange"">","null","","","","","",""
"null","","html-keyboard-response","360","486145","0.0-121.0","","","null","","","","","",""
"917.6000000014901","","image-keyboard-response","361","487064","0.0-122.0","","img/nature/S2.jpg","50","2","Ns4,train","50","true","",""
"null","","html-keyboard-response","362","487417","0.0-123.0","","<img src=""img/nature/S2.jpg"" width=""540"" height = ""360"" style=""border:14px solid orange"">","null","","","","","",""
"null","","html-keyboard-response","363","487619","0.0-124.0","","","null","","","","","",""
"720.2999999970198","","image-keyboard-response","364","488340","0.0-125.0","","img/nature/S1.jpg","49","1","Ns4,train","49","true","",""
"null","","html-keyboard-response","365","488693","0.0-126.0","","<img src=""img/nature/S1.jpg"" width=""540"" height = ""360"" style=""border:14px solid orange"">","null","","","","","",""
"null","","html-keyboard-response","366","488895","0.0-127.0","","","null","","","","","",""
"798.6000000014901","","image-keyboard-response","367","489695","0.0-128.0","","img/nature/S4.jpg","52","4","Ns4,train","52","true","",""
"null","","html-keyboard-response","368","490048","0.0-129.0","","<img src=""img/nature/S4.jpg"" width=""540"" height = ""360"" style=""border:14px solid orange"">","null","","","","","",""
"null","","html-keyboard-response","369","490250","0.0-130.0","","","null","","","","","",""
"838.5","","image-keyboard-response","370","491090","0.0-131.0","","img/nature/S3.jpg","51","3","Ns4,train","51","true","",""
"null","","html-keyboard-response","371","491444","0.0-132.0","","<img src=""img/nature/S3.jpg"" width=""540"" height = ""360"" style=""border:14px solid orange"">","null","","","","","",""
"null","","html-keyboard-response","372","491645","0.0-133.0","","","null","","","","","",""
"799.6000000014901","","image-keyboard-response","373","492446","0.0-134.0","","img/nature/S2.jpg","50","2","Ns4,train","50","true","",""
"null","","html-keyboard-response","374","492800","0.0-135.0","","<img src=""img/nature/S2.jpg"" width=""540"" height = ""360"" style=""border:14px solid orange"">","null","","","","","",""
"null","","html-keyboard-response","375","493003","0.0-136.0","","","null","","","","","",""
"755.2000000029802","","image-keyboard-response","376","493760","0.0-137.0","","img/nature/S1.jpg","49","1","Ns4,train","49","true","",""
"null","","html-keyboard-response","377","494113","0.0-138.0","","<img src=""img/nature/S1.jpg"" width=""540"" height = ""360"" style=""border:14px solid orange"">","null","","","","","",""
"null","","html-keyboard-response","378","494316","0.0-139.0","","","null","","","","","",""
"877.7999999970198","","image-keyboard-response","379","495195","0.0-140.0","","img/nature/S3.jpg","51","3","Ns4,train","51","true","",""
"null","","html-keyboard-response","380","495547","0.0-141.0","","<img src=""img/nature/S3.jpg"" width=""540"" height = ""360"" style=""border:14px solid orange"">","null","","","","","",""
"null","","html-keyboard-response","381","495748","0.0-142.0","","","null","","","","","",""
"561.0999999940395","","image-keyboard-response","382","496311","0.0-143.0","","img/nature/S4.jpg","52","4","Ns4,train","52","true","",""
"null","","html-keyboard-response","383","496663","0.0-144.0","","<img src=""img/nature/S4.jpg"" width=""540"" height = ""360"" style=""border:14px solid orange"">","null","","","","","",""
"null","","html-keyboard-response","384","496864","0.0-145.0","","","null","","","","","",""
"839.8999999985099","","image-keyboard-response","385","497706","0.0-146.0","","img/nature/S2.jpg","50","2","Ns4,train","50","true","",""
"null","","html-keyboard-response","386","498059","0.0-147.0","","<img src=""img/nature/S2.jpg"" width=""540"" height = ""360"" style=""border:14px solid orange"">","null","","","","","",""
"null","","html-keyboard-response","387","498260","0.0-148.0","","","null","","","","","",""
"917.8000000044703","","image-keyboard-response","388","499179","0.0-149.0","","img/nature/S1.jpg","49","1","Ns4,train","49","true","",""
"null","","html-keyboard-response","389","499532","0.0-150.0","","<img src=""img/nature/S1.jpg"" width=""540"" height = ""360"" style=""border:14px solid orange"">","null","","","","","",""
"null","","html-keyboard-response","390","499733","0.0-151.0","","","null","","","","","",""
"689.2999999970198","","image-keyboard-response","391","500424","0.0-152.0","","img/nature/S4.jpg","52","4","Ns4,train","52","true","",""
"null","","html-keyboard-response","392","500777","0.0-153.0","","<img src=""img/nature/S4.jpg"" width=""540"" height = ""360"" style=""border:14px solid orange"">","null","","","","","",""
"null","","html-keyboard-response","393","500979","0.0-154.0","","","null","","","","","",""
"958.2000000029802","","image-keyboard-response","394","501938","0.0-155.0","","img/nature/S3.jpg","51","3","Ns4,train","51","true","",""
"null","","html-keyboard-response","395","502292","0.0-156.0","","<img src=""img/nature/S3.jpg"" width=""540"" height = ""360"" style=""border:14px solid orange"">","null","","","","","",""
"null","","html-keyboard-response","396","502493","0.0-157.0","","","null","","","","","",""
"559.2999999970198","","image-keyboard-response","397","503054","0.0-158.0","","img/nature/S3.jpg","51","3","Ns4,train","51","true","",""
"null","","html-keyboard-response","398","503407","0.0-159.0","","<img src=""img/nature/S3.jpg"" width=""540"" height = ""360"" style=""border:14px solid orange"">","null","","","","","",""
"null","","html-keyboard-response","399","503610","0.0-160.0","","","null","","","","","",""
"757.7999999970198","","image-keyboard-response","400","504369","0.0-161.0","","img/nature/S4.jpg","52","4","Ns4,train","52","true","",""
"null","","html-keyboard-response","401","504722","0.0-162.0","","<img src=""img/nature/S4.jpg"" width=""540"" height = ""360"" style=""border:14px solid orange"">","null","","","","","",""
"null","","html-keyboard-response","402","504924","0.0-163.0","","","null","","","","","",""
"599.1999999955297","","image-keyboard-response","403","505525","0.0-164.0","","img/nature/S4.jpg","52","4","Ns4,train","52","true","",""
"null","","html-keyboard-response","404","505887","0.0-165.0","","<img src=""img/nature/S4.jpg"" width=""540"" height = ""360"" style=""border:14px solid orange"">","null","","","","","",""
"null","","html-keyboard-response","405","506089","0.0-166.0","","","null","","","","","",""
"789.8000000044703","","image-keyboard-response","406","506880","0.0-167.0","","img/nature/S2.jpg","50","2","Ns4,train","50","true","",""
"null","","html-keyboard-response","407","507233","0.0-168.0","","<img src=""img/nature/S2.jpg"" width=""540"" height = ""360"" style=""border:14px solid orange"">","null","","","","","",""
"null","","html-keyboard-response","408","507435","0.0-169.0","","","null","","","","","",""
"880.7000000029802","","image-keyboard-response","409","508317","0.0-170.0","","img/nature/S1.jpg","49","1","Ns4,train","49","true","",""
"null","","html-keyboard-response","410","508669","0.0-171.0","","<img src=""img/nature/S1.jpg"" width=""540"" height = ""360"" style=""border:14px solid orange"">","null","","","","","",""
"null","","html-keyboard-response","411","508870","0.0-172.0","","","null","","","","","",""
"1039","","image-keyboard-response","412","509911","0.0-173.0","","img/nature/S2.jpg","50","2","Ns4,train","50","true","",""
"null","","html-keyboard-response","413","510263","0.0-174.0","","<img src=""img/nature/S2.jpg"" width=""540"" height = ""360"" style=""border:14px solid orange"">","null","","","","","",""
"null","","html-keyboard-response","414","510471","0.0-175.0","","","null","","","","","",""
"833.5999999940395","","image-keyboard-response","415","511306","0.0-176.0","","img/nature/S1.jpg","49","1","Ns4,train","49","true","",""
"null","","html-keyboard-response","416","511658","0.0-177.0","","<img src=""img/nature/S1.jpg"" width=""540"" height = ""360"" style=""border:14px solid orange"">","null","","","","","",""
"null","","html-keyboard-response","417","511860","0.0-178.0","","","null","","","","","",""
"759.5","","image-keyboard-response","418","512621","0.0-179.0","","img/nature/S4.jpg","52","4","Ns4,train","52","true","",""
"null","","html-keyboard-response","419","512974","0.0-180.0","","<img src=""img/nature/S4.jpg"" width=""540"" height = ""360"" style=""border:14px solid orange"">","null","","","","","",""
"null","","html-keyboard-response","420","513175","0.0-181.0","","","null","","","","","",""
"598.6999999955297","","image-keyboard-response","421","513776","0.0-182.0","","img/nature/S3.jpg","51","3","Ns4,train","51","true","",""
"null","","html-keyboard-response","422","514129","0.0-183.0","","<img src=""img/nature/S3.jpg"" width=""540"" height = ""360"" style=""border:14px solid orange"">","null","","","","","",""
"null","","html-keyboard-response","423","514330","0.0-184.0","","","null","","","","","",""
"878.3999999985099","","image-keyboard-response","424","515211","0.0-185.0","","img/nature/S2.jpg","50","2","Ns4,train","50","true","",""
"null","","html-keyboard-response","425","515563","0.0-186.0","","<img src=""img/nature/S2.jpg"" width=""540"" height = ""360"" style=""border:14px solid orange"">","null","","","","","",""
"null","","html-keyboard-response","426","515765","0.0-187.0","","","null","","","","","",""
"1277.3999999985099","","image-keyboard-response","427","517044","0.0-188.0","","img/nature/S1.jpg","49","1","Ns4,train","49","true","",""
"null","","html-keyboard-response","428","517398","0.0-189.0","","<img src=""img/nature/S1.jpg"" width=""540"" height = ""360"" style=""border:14px solid orange"">","null","","","","","",""
"null","","html-keyboard-response","429","517599","0.0-190.0","","","null","","","","","",""
"798","","image-keyboard-response","430","518399","0.0-191.0","","img/nature/S3.jpg","51","3","Ns4,train","51","true","",""
"null","","html-keyboard-response","431","518751","0.0-192.0","","<img src=""img/nature/S3.jpg"" width=""540"" height = ""360"" style=""border:14px solid orange"">","null","","","","","",""
"null","","html-keyboard-response","432","518952","0.0-193.0","","","null","","","","","",""
"800.2000000029802","","image-keyboard-response","433","519754","0.0-194.0","","img/nature/S2.jpg","50","2","Ns4,train","50","true","",""
"null","","html-keyboard-response","434","520106","0.0-195.0","","<img src=""img/nature/S2.jpg"" width=""540"" height = ""360"" style=""border:14px solid orange"">","null","","","","","",""
"null","","html-keyboard-response","435","520309","0.0-196.0","","","null","","","","","",""
"997.6000000014901","","image-keyboard-response","436","521308","0.0-197.0","","img/nature/S1.jpg","49","1","Ns4,train","49","true","",""
"null","","html-keyboard-response","437","521661","0.0-198.0","","<img src=""img/nature/S1.jpg"" width=""540"" height = ""360"" style=""border:14px solid orange"">","null","","","","","",""
"null","","html-keyboard-response","438","521863","0.0-199.0","","","null","","","","","",""
"798.6000000014901","","image-keyboard-response","439","522663","0.0-200.0","","img/nature/S2.jpg","50","2","Ns4,train","50","true","",""
"null","","html-keyboard-response","440","523015","0.0-201.0","","<img src=""img/nature/S2.jpg"" width=""540"" height = ""360"" style=""border:14px solid orange"">","null","","","","","",""
"null","","html-keyboard-response","441","523217","0.0-202.0","","","null","","","","","",""
"719","","image-keyboard-response","442","523938","0.0-203.0","","img/nature/S1.jpg","49","1","Ns4,train","49","true","",""
"null","","html-keyboard-response","443","524290","0.0-204.0","","<img src=""img/nature/S1.jpg"" width=""540"" height = ""360"" style=""border:14px solid orange"">","null","","","","","",""
"null","","html-keyboard-response","444","524493","0.0-205.0","","","null","","","","","",""
"758.2999999970198","","image-keyboard-response","445","525253","0.0-206.0","","img/nature/S4.jpg","52","4","Ns4,train","52","true","",""
"null","","html-keyboard-response","446","525606","0.0-207.0","","<img src=""img/nature/S4.jpg"" width=""540"" height = ""360"" style=""border:14px solid orange"">","null","","","","","",""
"null","","html-keyboard-response","447","525810","0.0-208.0","","","null","","","","","",""
"875.7999999970198","","image-keyboard-response","448","526688","0.0-209.0","","img/nature/S2.jpg","50","2","Ns4,train","50","true","",""
"null","","html-keyboard-response","449","527040","0.0-210.0","","<img src=""img/nature/S2.jpg"" width=""540"" height = ""360"" style=""border:14px solid orange"">","null","","","","","",""
"null","","html-keyboard-response","450","527242","0.0-211.0","","","null","","","","","",""
"759.9000000059605","","image-keyboard-response","451","528003","0.0-212.0","","img/nature/S1.jpg","49","1","Ns4,train","49","true","",""
"null","","html-keyboard-response","452","528357","0.0-213.0","","<img src=""img/nature/S1.jpg"" width=""540"" height = ""360"" style=""border:14px solid orange"">","null","","","","","",""
"null","","html-keyboard-response","453","528560","0.0-214.0","","","null","","","","","",""
"717.0999999940395","","image-keyboard-response","454","529278","0.0-215.0","","img/nature/S4.jpg","52","4","Ns4,train","52","true","",""
"null","","html-keyboard-response","455","529631","0.0-216.0","","<img src=""img/nature/S4.jpg"" width=""540"" height = ""360"" style=""border:14px solid orange"">","null","","","","","",""
"null","","html-keyboard-response","456","529832","0.0-217.0","","","null","","","","","",""
"918.9000000059605","","image-keyboard-response","457","530753","0.0-218.0","","img/nature/S3.jpg","51","3","Ns4,train","51","true","",""
"null","","html-keyboard-response","458","531106","0.0-219.0","","<img src=""img/nature/S3.jpg"" width=""540"" height = ""360"" style=""border:14px solid orange"">","null","","","","","",""
"null","","html-keyboard-response","459","531307","0.0-220.0","","","null","","","","","",""
"559.9000000059605","","image-keyboard-response","460","531869","0.0-221.0","","img/nature/S3.jpg","51","3","Ns4,train","51","true","",""
"null","","html-keyboard-response","461","532222","0.0-222.0","","<img src=""img/nature/S3.jpg"" width=""540"" height = ""360"" style=""border:14px solid orange"">","null","","","","","",""
"null","","html-keyboard-response","462","532424","0.0-223.0","","","null","","","","","",""
"797.6999999955297","","image-keyboard-response","463","533224","0.0-224.0","","img/nature/S2.jpg","50","2","Ns4,train","50","true","",""
"null","","html-keyboard-response","464","533576","0.0-225.0","","<img src=""img/nature/S2.jpg"" width=""540"" height = ""360"" style=""border:14px solid orange"">","null","","","","","",""
"null","","html-keyboard-response","465","533778","0.0-226.0","","","null","","","","","",""
"640","","image-keyboard-response","466","534419","0.0-227.0","","img/nature/S1.jpg","49","1","Ns4,train","49","true","",""
"null","","html-keyboard-response","467","534773","0.0-228.0","","<img src=""img/nature/S1.jpg"" width=""540"" height = ""360"" style=""border:14px solid orange"">","null","","","","","",""
"null","","html-keyboard-response","468","534975","0.0-229.0","","","null","","","","","",""
"839","","image-keyboard-response","469","535816","0.0-230.0","","img/nature/S3.jpg","51","3","Ns4,train","51","true","",""
"null","","html-keyboard-response","470","536169","0.0-231.0","","<img src=""img/nature/S3.jpg"" width=""540"" height = ""360"" style=""border:14px solid orange"">","null","","","","","",""
"null","","html-keyboard-response","471","536371","0.0-232.0","","","null","","","","","",""
"718.7000000029802","","image-keyboard-response","472","537091","0.0-233.0","","img/nature/S2.jpg","50","2","Ns4,train","50","true","",""
"null","","html-keyboard-response","473","537443","0.0-234.0","","<img src=""img/nature/S2.jpg"" width=""540"" height = ""360"" style=""border:14px solid orange"">","null","","","","","",""
"null","","html-keyboard-response","474","537645","0.0-235.0","","","null","","","","","",""
"924.2000000029802","","image-keyboard-response","475","538571","0.0-236.0","","img/nature/S1.jpg","49","1","Ns4,train","49","true","",""
"null","","html-keyboard-response","476","538924","0.0-237.0","","<img src=""img/nature/S1.jpg"" width=""540"" height = ""360"" style=""border:14px solid orange"">","null","","","","","",""
"null","","html-keyboard-response","477","539127","0.0-238.0","","","null","","","","","",""
"641.7999999970198","","image-keyboard-response","478","539770","0.0-239.0","","img/nature/S2.jpg","50","2","Ns4,train","50","true","",""
"null","","html-keyboard-response","479","540123","0.0-240.0","","<img src=""img/nature/S2.jpg"" width=""540"" height = ""360"" style=""border:14px solid orange"">","null","","","","","",""
"null","","html-keyboard-response","480","540324","0.0-241.0","","","null","","","","","",""
"839","","image-keyboard-response","481","541165","0.0-242.0","","img/nature/S1.jpg","49","1","Ns4,train","49","true","",""
"null","","html-keyboard-response","482","541517","0.0-243.0","","<img src=""img/nature/S1.jpg"" width=""540"" height = ""360"" style=""border:14px solid orange"">","null","","","","","",""
"null","","html-keyboard-response","483","541719","0.0-244.0","","","null","","","","","",""
"10362.39999999851","","html-keyboard-response","484","552083","0.0-245.0","","<p class=""center-content"">You have completed a block! </p><p class=""center-content"">Press any key on the keyboard to continue to the next block,</p><p class=""center-content"">or wait for the automatic progression to the next block after one minute.</p>","82","","","","","",""
"1632.2999999970198","","image-keyboard-response","485","553716","0.0-246.0","","img/nature/S3.jpg","51","3","Ns4,perform","51","true","",""
"null","","html-keyboard-response","486","554069","0.0-247.0","","<img src=""img/nature/S3.jpg"" width=""540"" height = ""360"" style=""border:14px solid orange"">","null","","","","","",""
"null","","html-keyboard-response","487","554270","0.0-248.0","","","null","","","","","",""
"799.5","","image-keyboard-response","488","555071","0.0-249.0","","img/nature/S2.jpg","50","2","Ns4,perform","50","true","",""
"null","","html-keyboard-response","489","555424","0.0-250.0","","<img src=""img/nature/S2.jpg"" width=""540"" height = ""360"" style=""border:14px solid orange"">","null","","","","","",""
"null","","html-keyboard-response","490","555626","0.0-251.0","","","null","","","","","",""
"798.8000000044703","","image-keyboard-response","491","556426","0.0-252.0","","img/nature/S1.jpg","49","1","Ns4,perform","49","true","",""
"null","","html-keyboard-response","492","556779","0.0-253.0","","<img src=""img/nature/S1.jpg"" width=""540"" height = ""360"" style=""border:14px solid orange"">","null","","","","","",""
"null","","html-keyboard-response","493","556982","0.0-254.0","","","null","","","","","",""
"957.5","","image-keyboard-response","494","557941","0.0-255.0","","img/nature/S3.jpg","51","3","Ns4,perform","51","true","",""
"null","","html-keyboard-response","495","558292","0.0-256.0","","<img src=""img/nature/S3.jpg"" width=""540"" height = ""360"" style=""border:14px solid orange"">","null","","","","","",""
"null","","html-keyboard-response","496","558495","0.0-257.0","","","null","","","","","",""
"732.8000000044703","","image-keyboard-response","497","559229","0.0-258.0","","img/nature/S2.jpg","50","2","Ns4,perform","50","true","",""
"null","","html-keyboard-response","498","559581","0.0-259.0","","<img src=""img/nature/S2.jpg"" width=""540"" height = ""360"" style=""border:14px solid orange"">","null","","","","","",""
"null","","html-keyboard-response","499","559783","0.0-260.0","","","null","","","","","",""
"752.8000000044703","","image-keyboard-response","500","560538","0.0-261.0","","img/nature/S1.jpg","49","1","Ns4,perform","49","true","",""
"null","","html-keyboard-response","501","560890","0.0-262.0","","<img src=""img/nature/S1.jpg"" width=""540"" height = ""360"" style=""border:14px solid orange"">","null","","","","","",""
"null","","html-keyboard-response","502","561092","0.0-263.0","","","null","","","","","",""
"641.7000000029802","","image-keyboard-response","503","561735","0.0-264.0","","img/nature/S2.jpg","50","2","Ns4,perform","50","true","",""
"null","","html-keyboard-response","504","562087","0.0-265.0","","<img src=""img/nature/S2.jpg"" width=""540"" height = ""360"" style=""border:14px solid orange"">","null","","","","","",""
"null","","html-keyboard-response","505","562289","0.0-266.0","","","null","","","","","",""
"601.1000000014901","","image-keyboard-response","506","562891","0.0-267.0","","img/nature/S1.jpg","49","1","Ns4,perform","49","true","",""
"null","","html-keyboard-response","507","563244","0.0-268.0","","<img src=""img/nature/S1.jpg"" width=""540"" height = ""360"" style=""border:14px solid orange"">","null","","","","","",""
"null","","html-keyboard-response","508","563446","0.0-269.0","","","null","","","","","",""
"638.8000000044703","","image-keyboard-response","509","564087","0.0-270.0","","img/nature/S2.jpg","50","2","Ns4,perform","50","true","",""
"null","","html-keyboard-response","510","564439","0.0-271.0","","<img src=""img/nature/S2.jpg"" width=""540"" height = ""360"" style=""border:14px solid orange"">","null","","","","","",""
"null","","html-keyboard-response","511","564641","0.0-272.0","","","null","","","","","",""
"639.6999999955297","","image-keyboard-response","512","565282","0.0-273.0","","img/nature/S1.jpg","49","1","Ns4,perform","49","true","",""
"null","","html-keyboard-response","513","565634","0.0-274.0","","<img src=""img/nature/S1.jpg"" width=""540"" height = ""360"" style=""border:14px solid orange"">","null","","","","","",""
"null","","html-keyboard-response","514","565836","0.0-275.0","","","null","","","","","",""
"799.6000000014901","","image-keyboard-response","515","566637","0.0-276.0","","img/nature/S4.jpg","52","4","Ns4,perform","52","true","",""
"null","","html-keyboard-response","516","566991","0.0-277.0","","<img src=""img/nature/S4.jpg"" width=""540"" height = ""360"" style=""border:14px solid orange"">","null","","","","","",""
"null","","html-keyboard-response","517","567194","0.0-278.0","","","null","","","","","",""
"757","","image-keyboard-response","518","567952","0.0-279.0","","img/nature/S2.jpg","50","2","Ns4,perform","50","true","",""
"null","","html-keyboard-response","519","568305","0.0-280.0","","<img src=""img/nature/S2.jpg"" width=""540"" height = ""360"" style=""border:14px solid orange"">","null","","","","","",""
"null","","html-keyboard-response","520","568507","0.0-281.0","","","null","","","","","",""
"838.1999999955297","","image-keyboard-response","521","569347","0.0-282.0","","img/nature/S1.jpg","49","1","Ns4,perform","49","true","",""
"null","","html-keyboard-response","522","569699","0.0-283.0","","<img src=""img/nature/S1.jpg"" width=""540"" height = ""360"" style=""border:14px solid orange"">","null","","","","","",""
"null","","html-keyboard-response","523","569902","0.0-284.0","","","null","","","","","",""
"798.7999999970198","","image-keyboard-response","524","570702","0.0-285.0","","img/nature/S4.jpg","52","4","Ns4,perform","52","true","",""
"null","","html-keyboard-response","525","571055","0.0-286.0","","<img src=""img/nature/S4.jpg"" width=""540"" height = ""360"" style=""border:14px solid orange"">","null","","","","","",""
"null","","html-keyboard-response","526","571257","0.0-287.0","","","null","","","","","",""
"678.8999999985099","","image-keyboard-response","527","571937","0.0-288.0","","img/nature/S3.jpg","51","3","Ns4,perform","51","true","",""
"null","","html-keyboard-response","528","572291","0.0-289.0","","<img src=""img/nature/S3.jpg"" width=""540"" height = ""360"" style=""border:14px solid orange"">","null","","","","","",""
"null","","html-keyboard-response","529","572493","0.0-290.0","","","null","","","","","",""
"837.7000000029802","","image-keyboard-response","530","573333","0.0-291.0","","img/nature/S4.jpg","52","4","Ns4,perform","52","true","",""
"null","","html-keyboard-response","531","573685","0.0-292.0","","<img src=""img/nature/S4.jpg"" width=""540"" height = ""360"" style=""border:14px solid orange"">","null","","","","","",""
"null","","html-keyboard-response","532","573888","0.0-293.0","","","null","","","","","",""
"558.3999999985099","","image-keyboard-response","533","574448","0.0-294.0","","img/nature/S4.jpg","52","4","Ns4,perform","52","true","",""
"null","","html-keyboard-response","534","574801","0.0-295.0","","<img src=""img/nature/S4.jpg"" width=""540"" height = ""360"" style=""border:14px solid orange"">","null","","","","","",""
"null","","html-keyboard-response","535","575003","0.0-296.0","","","null","","","","","",""
"679","","image-keyboard-response","536","575684","0.0-297.0","","img/nature/S3.jpg","51","3","Ns4,perform","51","true","",""
"null","","html-keyboard-response","537","576036","0.0-298.0","","<img src=""img/nature/S3.jpg"" width=""540"" height = ""360"" style=""border:14px solid orange"">","null","","","","","",""
"null","","html-keyboard-response","538","576238","0.0-299.0","","","null","","","","","",""
"560.1000000014901","","image-keyboard-response","539","576799","0.0-300.0","","img/nature/S3.jpg","51","3","Ns4,perform","51","true","",""
"null","","html-keyboard-response","540","577152","0.0-301.0","","<img src=""img/nature/S3.jpg"" width=""540"" height = ""360"" style=""border:14px solid orange"">","null","","","","","",""
"null","","html-keyboard-response","541","577355","0.0-302.0","","","null","","","","","",""
"718.1999999955297","","image-keyboard-response","542","578075","0.0-303.0","","img/nature/S4.jpg","52","4","Ns4,perform","52","true","",""
"null","","html-keyboard-response","543","578427","0.0-304.0","","<img src=""img/nature/S4.jpg"" width=""540"" height = ""360"" style=""border:14px solid orange"">","null","","","","","",""
"null","","html-keyboard-response","544","578628","0.0-305.0","","","null","","","","","",""
"600.2999999970198","","image-keyboard-response","545","579231","0.0-306.0","","img/nature/S4.jpg","52","4","Ns4,perform","52","true","",""
"null","","html-keyboard-response","546","579583","0.0-307.0","","<img src=""img/nature/S4.jpg"" width=""540"" height = ""360"" style=""border:14px solid orange"">","null","","","","","",""
"null","","html-keyboard-response","547","579784","0.0-308.0","","","null","","","","","",""
"719.8999999985099","","image-keyboard-response","548","580506","0.0-309.0","","img/nature/S2.jpg","50","2","Ns4,perform","50","true","",""
"null","","html-keyboard-response","549","580858","0.0-310.0","","<img src=""img/nature/S2.jpg"" width=""540"" height = ""360"" style=""border:14px solid orange"">","null","","","","","",""
"null","","html-keyboard-response","550","581060","0.0-311.0","","","null","","","","","",""
"639.3999999985099","","image-keyboard-response","551","581701","0.0-312.0","","img/nature/S1.jpg","49","1","Ns4,perform","49","true","",""
"null","","html-keyboard-response","552","582054","0.0-313.0","","<img src=""img/nature/S1.jpg"" width=""540"" height = ""360"" style=""border:14px solid orange"">","null","","","","","",""
"null","","html-keyboard-response","553","582255","0.0-314.0","","","null","","","","","",""
"799.0999999940395","","image-keyboard-response","554","583056","0.0-315.0","","img/nature/S3.jpg","51","3","Ns4,perform","51","true","",""
"null","","html-keyboard-response","555","583408","0.0-316.0","","<img src=""img/nature/S3.jpg"" width=""540"" height = ""360"" style=""border:14px solid orange"">","null","","","","","",""
"null","","html-keyboard-response","556","583611","0.0-317.0","","","null","","","","","",""
"526.5","","image-keyboard-response","557","584139","0.0-318.0","","img/nature/S3.jpg","51","3","Ns4,perform","51","true","",""
"null","","html-keyboard-response","558","584492","0.0-319.0","","<img src=""img/nature/S3.jpg"" width=""540"" height = ""360"" style=""border:14px solid orange"">","null","","","","","",""
"null","","html-keyboard-response","559","584693","0.0-320.0","","","null","","","","","",""
"799.2000000029802","","image-keyboard-response","560","585494","0.0-321.0","","img/nature/S2.jpg","50","2","Ns4,perform","50","true","",""
"null","","html-keyboard-response","561","585846","0.0-322.0","","<img src=""img/nature/S2.jpg"" width=""540"" height = ""360"" style=""border:14px solid orange"">","null","","","","","",""
"null","","html-keyboard-response","562","586048","0.0-323.0","","","null","","","","","",""
"760","","image-keyboard-response","563","586809","0.0-324.0","","img/nature/S1.jpg","49","1","Ns4,perform","49","true","",""
"null","","html-keyboard-response","564","587163","0.0-325.0","","<img src=""img/nature/S1.jpg"" width=""540"" height = ""360"" style=""border:14px solid orange"">","null","","","","","",""
"null","","html-keyboard-response","565","587365","0.0-326.0","","","null","","","","","",""
"877.1000000014901","","image-keyboard-response","566","588244","0.0-327.0","","img/nature/S3.jpg","52","3","Ns4,perform","51","false","",""
"null","","html-keyboard-response","567","588598","0.0-328.0","","<img src=""img/nature/S3.jpg"" width=""540"" height = ""360"">","null","","","","","",""
"null","","html-keyboard-response","568","588799","0.0-329.0","","","null","","","","","",""
"679.2999999970198","","image-keyboard-response","569","589480","0.0-330.0","","img/nature/S3.jpg","51","3","Ns4,perform","51","true","",""
"null","","html-keyboard-response","570","589832","0.0-331.0","","<img src=""img/nature/S3.jpg"" width=""540"" height = ""360"" style=""border:14px solid orange"">","null","","","","","",""
"null","","html-keyboard-response","571","590034","0.0-332.0","","","null","","","","","",""
"839.6999999955297","","image-keyboard-response","572","590875","0.0-333.0","","img/nature/S2.jpg","50","2","Ns4,perform","50","true","",""
"null","","html-keyboard-response","573","591228","0.0-334.0","","<img src=""img/nature/S2.jpg"" width=""540"" height = ""360"" style=""border:14px solid orange"">","null","","","","","",""
"null","","html-keyboard-response","574","591429","0.0-335.0","","","null","","","","","",""
"880.7000000029802","","image-keyboard-response","575","592311","0.0-336.0","","img/nature/S1.jpg","49","1","Ns4,perform","49","true","",""
"null","","html-keyboard-response","576","592663","0.0-337.0","","<img src=""img/nature/S1.jpg"" width=""540"" height = ""360"" style=""border:14px solid orange"">","null","","","","","",""
"null","","html-keyboard-response","577","592865","0.0-338.0","","","null","","","","","",""
"799.8999999985099","","image-keyboard-response","578","593667","0.0-339.0","","img/nature/S4.jpg","52","4","Ns4,perform","52","true","",""
"null","","html-keyboard-response","579","594019","0.0-340.0","","<img src=""img/nature/S4.jpg"" width=""540"" height = ""360"" style=""border:14px solid orange"">","null","","","","","",""
"null","","html-keyboard-response","580","594222","0.0-341.0","","","null","","","","","",""
"798.0999999940395","","image-keyboard-response","581","595022","0.0-342.0","","img/nature/S2.jpg","50","2","Ns4,perform","50","true","",""
"null","","html-keyboard-response","582","595374","0.0-343.0","","<img src=""img/nature/S2.jpg"" width=""540"" height = ""360"" style=""border:14px solid orange"">","null","","","","","",""
"null","","html-keyboard-response","583","595575","0.0-344.0","","","null","","","","","",""
"720.1999999955297","","image-keyboard-response","584","596297","0.0-345.0","","img/nature/S1.jpg","49","1","Ns4,perform","49","true","",""
"null","","html-keyboard-response","585","596650","0.0-346.0","","<img src=""img/nature/S1.jpg"" width=""540"" height = ""360"" style=""border:14px solid orange"">","null","","","","","",""
"null","","html-keyboard-response","586","596851","0.0-347.0","","","null","","","","","",""
"719","","image-keyboard-response","587","597572","0.0-348.0","","img/nature/S3.jpg","51","3","Ns4,perform","51","true","",""
"null","","html-keyboard-response","588","597924","0.0-349.0","","<img src=""img/nature/S3.jpg"" width=""540"" height = ""360"" style=""border:14px solid orange"">","null","","","","","",""
"null","","html-keyboard-response","589","598125","0.0-350.0","","","null","","","","","",""
"681.6000000014901","","image-keyboard-response","590","598808","0.0-351.0","","img/nature/S4.jpg","52","4","Ns4,perform","52","true","",""
"null","","html-keyboard-response","591","599161","0.0-352.0","","<img src=""img/nature/S4.jpg"" width=""540"" height = ""360"" style=""border:14px solid orange"">","null","","","","","",""
"null","","html-keyboard-response","592","599363","0.0-353.0","","","null","","","","","",""
"718","","image-keyboard-response","593","600083","0.0-354.0","","img/nature/S3.jpg","51","3","Ns4,perform","51","true","",""
"null","","html-keyboard-response","594","600435","0.0-355.0","","<img src=""img/nature/S3.jpg"" width=""540"" height = ""360"" style=""border:14px solid orange"">","null","","","","","",""
"null","","html-keyboard-response","595","600637","0.0-356.0","","","null","","","","","",""
"560.1999999955297","","image-keyboard-response","596","601199","0.0-357.0","","img/nature/S4.jpg","52","4","Ns4,perform","52","true","",""
"null","","html-keyboard-response","597","601551","0.0-358.0","","<img src=""img/nature/S4.jpg"" width=""540"" height = ""360"" style=""border:14px solid orange"">","null","","","","","",""
"null","","html-keyboard-response","598","601754","0.0-359.0","","","null","","","","","",""
"678.5","","image-keyboard-response","599","602435","0.0-360.0","","img/nature/S2.jpg","50","2","Ns4,perform","50","true","",""
"null","","html-keyboard-response","600","602788","0.0-361.0","","<img src=""img/nature/S2.jpg"" width=""540"" height = ""360"" style=""border:14px solid orange"">","null","","","","","",""
"null","","html-keyboard-response","601","602989","0.0-362.0","","","null","","","","","",""
"639.5","","image-keyboard-response","602","603630","0.0-363.0","","img/nature/S1.jpg","49","1","Ns4,perform","49","true","",""
"null","","html-keyboard-response","603","603982","0.0-364.0","","<img src=""img/nature/S1.jpg"" width=""540"" height = ""360"" style=""border:14px solid orange"">","null","","","","","",""
"null","","html-keyboard-response","604","604185","0.0-365.0","","","null","","","","","",""
"798.7999999970198","","image-keyboard-response","605","604985","0.0-366.0","","img/nature/S4.jpg","52","4","Ns4,perform","52","true","",""
"null","","html-keyboard-response","606","605337","0.0-367.0","","<img src=""img/nature/S4.jpg"" width=""540"" height = ""360"" style=""border:14px solid orange"">","null","","","","","",""
"null","","html-keyboard-response","607","605539","0.0-368.0","","","null","","","","","",""
"560.6999999955297","","image-keyboard-response","608","606101","0.0-369.0","","img/nature/S4.jpg","52","4","Ns4,perform","52","true","",""
"null","","html-keyboard-response","609","606453","0.0-370.0","","<img src=""img/nature/S4.jpg"" width=""540"" height = ""360"" style=""border:14px solid orange"">","null","","","","","",""
"null","","html-keyboard-response","610","606655","0.0-371.0","","","null","","","","","",""
"808.2000000029802","","image-keyboard-response","611","607464","0.0-372.0","","img/nature/S2.jpg","50","2","Ns4,perform","50","true","",""
"null","","html-keyboard-response","612","607816","0.0-373.0","","<img src=""img/nature/S2.jpg"" width=""540"" height = ""360"" style=""border:14px solid orange"">","null","","","","","",""
"null","","html-keyboard-response","613","608018","0.0-374.0","","","null","","","","","",""
"600.3999999985099","","image-keyboard-response","614","608620","0.0-375.0","","img/nature/S1.jpg","49","1","Ns4,perform","49","true","",""
"null","","html-keyboard-response","615","608974","0.0-376.0","","<img src=""img/nature/S1.jpg"" width=""540"" height = ""360"" style=""border:14px solid orange"">","null","","","","","",""
"null","","html-keyboard-response","616","609177","0.0-377.0","","","null","","","","","",""
"677.6000000014901","","image-keyboard-response","617","609856","0.0-378.0","","img/nature/S4.jpg","52","4","Ns4,perform","52","true","",""
"null","","html-keyboard-response","618","610208","0.0-379.0","","<img src=""img/nature/S4.jpg"" width=""540"" height = ""360"" style=""border:14px solid orange"">","null","","","","","",""
"null","","html-keyboard-response","619","610410","0.0-380.0","","","null","","","","","",""
"923.5","","image-keyboard-response","620","611335","0.0-381.0","","img/nature/S2.jpg","50","2","Ns4,perform","50","true","",""
"null","","html-keyboard-response","621","611688","0.0-382.0","","<img src=""img/nature/S2.jpg"" width=""540"" height = ""360"" style=""border:14px solid orange"">","null","","","","","",""
"null","","html-keyboard-response","622","611889","0.0-383.0","","","null","","","","","",""
"719.6000000014901","","image-keyboard-response","623","612610","0.0-384.0","","img/nature/S1.jpg","49","1","Ns4,perform","49","true","",""
"null","","html-keyboard-response","624","612963","0.0-385.0","","<img src=""img/nature/S1.jpg"" width=""540"" height = ""360"" style=""border:14px solid orange"">","null","","","","","",""
"null","","html-keyboard-response","625","613164","0.0-386.0","","","null","","","","","",""
"759.2000000029802","","image-keyboard-response","626","613925","0.0-387.0","","img/nature/S4.jpg","52","4","Ns4,perform","52","true","",""
"null","","html-keyboard-response","627","614277","0.0-388.0","","<img src=""img/nature/S4.jpg"" width=""540"" height = ""360"" style=""border:14px solid orange"">","null","","","","","",""
"null","","html-keyboard-response","628","614478","0.0-389.0","","","null","","","","","",""
"720.2999999970198","","image-keyboard-response","629","615200","0.0-390.0","","img/nature/S2.jpg","50","2","Ns4,perform","50","true","",""
"null","","html-keyboard-response","630","615552","0.0-391.0","","<img src=""img/nature/S2.jpg"" width=""540"" height = ""360"" style=""border:14px solid orange"">","null","","","","","",""
"null","","html-keyboard-response","631","615755","0.0-392.0","","","null","","","","","",""
"720","","image-keyboard-response","632","616476","0.0-393.0","","img/nature/S1.jpg","49","1","Ns4,perform","49","true","",""
"null","","html-keyboard-response","633","616828","0.0-394.0","","<img src=""img/nature/S1.jpg"" width=""540"" height = ""360"" style=""border:14px solid orange"">","null","","","","","",""
"null","","html-keyboard-response","634","617030","0.0-395.0","","","null","","","","","",""
"719.5999999940395","","image-keyboard-response","635","617751","0.0-396.0","","img/nature/S3.jpg","51","3","Ns4,perform","51","true","",""
"null","","html-keyboard-response","636","618104","0.0-397.0","","<img src=""img/nature/S3.jpg"" width=""540"" height = ""360"" style=""border:14px solid orange"">","null","","","","","",""
"null","","html-keyboard-response","637","618316","0.0-398.0","","","null","","","","","",""
"708.8999999985099","","image-keyboard-response","638","619026","0.0-399.0","","img/nature/S2.jpg","50","2","Ns4,perform","50","true","",""
"null","","html-keyboard-response","639","619379","0.0-400.0","","<img src=""img/nature/S2.jpg"" width=""540"" height = ""360"" style=""border:14px solid orange"">","null","","","","","",""
"null","","html-keyboard-response","640","619580","0.0-401.0","","","null","","","","","",""
"879.3000000044703","","image-keyboard-response","641","620461","0.0-402.0","","img/nature/S1.jpg","49","1","Ns4,perform","49","true","",""
"null","","html-keyboard-response","642","620814","0.0-403.0","","<img src=""img/nature/S1.jpg"" width=""540"" height = ""360"" style=""border:14px solid orange"">","null","","","","","",""
"null","","html-keyboard-response","643","621016","0.0-404.0","","","null","","","","","",""
"678.8999999985099","","image-keyboard-response","644","621697","0.0-405.0","","img/nature/S3.jpg","51","3","Ns4,perform","51","true","",""
"null","","html-keyboard-response","645","622049","0.0-406.0","","<img src=""img/nature/S3.jpg"" width=""540"" height = ""360"" style=""border:14px solid orange"">","null","","","","","",""
"null","","html-keyboard-response","646","622251","0.0-407.0","","","null","","","","","",""
"639.1999999955297","","image-keyboard-response","647","622892","0.0-408.0","","img/nature/S3.jpg","51","3","Ns4,perform","51","true","",""
"null","","html-keyboard-response","648","623245","0.0-409.0","","<img src=""img/nature/S3.jpg"" width=""540"" height = ""360"" style=""border:14px solid orange"">","null","","","","","",""
"null","","html-keyboard-response","649","623447","0.0-410.0","","","null","","","","","",""
"795.3999999985099","","image-keyboard-response","650","624247","0.0-411.0","","img/nature/S2.jpg","50","2","Ns4,perform","50","true","",""
"null","","html-keyboard-response","651","624600","0.0-412.0","","<img src=""img/nature/S2.jpg"" width=""540"" height = ""360"" style=""border:14px solid orange"">","null","","","","","",""
"null","","html-keyboard-response","652","624802","0.0-413.0","","","null","","","","","",""
"718.5","","image-keyboard-response","653","625522","0.0-414.0","","img/nature/S1.jpg","49","1","Ns4,perform","49","true","",""
"null","","html-keyboard-response","654","625875","0.0-415.0","","<img src=""img/nature/S1.jpg"" width=""540"" height = ""360"" style=""border:14px solid orange"">","null","","","","","",""
"null","","html-keyboard-response","655","626076","0.0-416.0","","","null","","","","","",""
"839.7999999970198","","image-keyboard-response","656","626917","0.0-417.0","","img/nature/S3.jpg","51","3","Ns4,perform","51","true","",""
"null","","html-keyboard-response","657","627270","0.0-418.0","","<img src=""img/nature/S3.jpg"" width=""540"" height = ""360"" style=""border:14px solid orange"">","null","","","","","",""
"null","","html-keyboard-response","658","627471","0.0-419.0","","","null","","","","","",""
"519.7999999970198","","image-keyboard-response","659","627993","0.0-420.0","","img/nature/S4.jpg","52","4","Ns4,perform","52","true","",""
"null","","html-keyboard-response","660","628344","0.0-421.0","","<img src=""img/nature/S4.jpg"" width=""540"" height = ""360"" style=""border:14px solid orange"">","null","","","","","",""
"null","","html-keyboard-response","661","628546","0.0-422.0","","","null","","","","","",""
"490.8999999985099","","image-keyboard-response","662","629038","0.0-423.0","","img/nature/S4.jpg","52","4","Ns4,perform","52","true","",""
"null","","html-keyboard-response","663","629392","0.0-424.0","","<img src=""img/nature/S4.jpg"" width=""540"" height = ""360"" style=""border:14px solid orange"">","null","","","","","",""
"null","","html-keyboard-response","664","629593","0.0-425.0","","","null","","","","","",""
"5062.60000000149","","html-keyboard-response","665","634657","0.0-426.0","","<p class=""center-content"">You have completed a block! </p><p class=""center-content"">Press any key on the keyboard to continue to the next block,</p><p class=""center-content"">or wait for the automatic progression to the next block after one minute.</p>","51","","","","","",""
"1234","","image-keyboard-response","666","635893","0.0-427.0","","img/nature/S1.jpg","49","1","Ns4,test","49","true","",""
"null","","html-keyboard-response","667","636245","0.0-428.0","","<img src=""img/nature/S1.jpg"" width=""540"" height = ""360"" style=""border:14px solid orange"">","null","","","","","",""
"null","","html-keyboard-response","668","636447","0.0-429.0","","","null","","","","","",""
"602","","image-keyboard-response","669","637050","0.0-430.0","","img/nature/S1.jpg","49","1","Ns4,test","49","true","",""
"null","","html-keyboard-response","670","637403","0.0-431.0","","<img src=""img/nature/S1.jpg"" width=""540"" height = ""360"" style=""border:14px solid orange"">","null","","","","","",""
"null","","html-keyboard-response","671","637604","0.0-432.0","","","null","","","","","",""
"878.6999999955297","","image-keyboard-response","672","638485","0.0-433.0","","img/nature/S3.jpg","51","3","Ns4,test","51","true","",""
"null","","html-keyboard-response","673","638837","0.0-434.0","","<img src=""img/nature/S3.jpg"" width=""540"" height = ""360"" style=""border:14px solid orange"">","null","","","","","",""
"null","","html-keyboard-response","674","639040","0.0-435.0","","","null","","","","","",""
"758.6000000014901","","image-keyboard-response","675","639800","0.0-436.0","","img/nature/S2.jpg","50","2","Ns4,test","50","true","",""
"null","","html-keyboard-response","676","640155","0.0-437.0","","<img src=""img/nature/S2.jpg"" width=""540"" height = ""360"" style=""border:14px solid orange"">","null","","","","","",""
"null","","html-keyboard-response","677","640358","0.0-438.0","","","null","","","","","",""
"675.8999999985099","","image-keyboard-response","678","641035","0.0-439.0","","img/nature/S4.jpg","52","4","Ns4,test","52","true","",""
"null","","html-keyboard-response","679","641388","0.0-440.0","","<img src=""img/nature/S4.jpg"" width=""540"" height = ""360"" style=""border:14px solid orange"">","null","","","","","",""
"null","","html-keyboard-response","680","641589","0.0-441.0","","","null","","","","","",""
"640.1000000014901","","image-keyboard-response","681","642231","0.0-442.0","","img/nature/S2.jpg","50","2","Ns4,test","50","true","",""
"null","","html-keyboard-response","682","642583","0.0-443.0","","<img src=""img/nature/S2.jpg"" width=""540"" height = ""360"" style=""border:14px solid orange"">","null","","","","","",""
"null","","html-keyboard-response","683","642788","0.0-444.0","","","null","","","","","",""
"796.3000000044703","","image-keyboard-response","684","643586","0.0-445.0","","img/nature/S4.jpg","52","4","Ns4,test","52","true","",""
"null","","html-keyboard-response","685","643939","0.0-446.0","","<img src=""img/nature/S4.jpg"" width=""540"" height = ""360"" style=""border:14px solid orange"">","null","","","","","",""
"null","","html-keyboard-response","686","644140","0.0-447.0","","","null","","","","","",""
"559.6999999955297","","image-keyboard-response","687","644702","0.0-448.0","","img/nature/S4.jpg","52","4","Ns4,test","52","true","",""
"null","","html-keyboard-response","688","645054","0.0-449.0","","<img src=""img/nature/S4.jpg"" width=""540"" height = ""360"" style=""border:14px solid orange"">","null","","","","","",""
"null","","html-keyboard-response","689","645255","0.0-450.0","","","null","","","","","",""
"839.2999999970198","","image-keyboard-response","690","646096","0.0-451.0","","img/nature/S3.jpg","51","3","Ns4,test","51","true","",""
"null","","html-keyboard-response","691","646448","0.0-452.0","","<img src=""img/nature/S3.jpg"" width=""540"" height = ""360"" style=""border:14px solid orange"">","null","","","","","",""
"null","","html-keyboard-response","692","646649","0.0-453.0","","","null","","","","","",""
"681.1999999955297","","image-keyboard-response","693","647332","0.0-454.0","","img/nature/S2.jpg","50","2","Ns4,test","50","true","",""
"null","","html-keyboard-response","694","647684","0.0-455.0","","<img src=""img/nature/S2.jpg"" width=""540"" height = ""360"" style=""border:14px solid orange"">","null","","","","","",""
"null","","html-keyboard-response","695","647886","0.0-456.0","","","null","","","","","",""
"560.9000000059605","","image-keyboard-response","696","648448","0.0-457.0","","img/nature/S2.jpg","50","2","Ns4,test","50","true","",""
"null","","html-keyboard-response","697","648800","0.0-458.0","","<img src=""img/nature/S2.jpg"" width=""540"" height = ""360"" style=""border:14px solid orange"">","null","","","","","",""
"null","","html-keyboard-response","698","649002","0.0-459.0","","","null","","","","","",""
