rt,url,trial_type,trial_index,time_elapsed,internal_node_id,assignmentID,mturkID,hitID,view_history,stimulus,key_press,state,test_part,correct_response,order_block,order_chunk,correct,bonus,responses
3652,consent.html,external-html,0,3900,0.0-0.0,31LM9EDVOMEL1TA4LTGMI90I0FOJNM,A11FFJZ0C984W4,30OITAWPBQP2Z1DQ5HPUZCTXABIH90,,,,,,,,,,,
165024,,instructions,1,168925,0.0-1.0,31LM9EDVOMEL1TA4LTGMI90I0FOJNM,A11FFJZ0C984W4,30OITAWPBQP2Z1DQ5HPUZCTXABIH90,"[{""page_index"":0,""viewing_time"":3459},{""page_index"":1,""viewing_time"":4230},{""page_index"":2,""viewing_time"":5430},{""page_index"":3,""viewing_time"":122926},{""page_index"":4,""viewing_time"":4672},{""page_index"":3,""viewing_time"":9816},{""page_index"":4,""viewing_time"":3041},{""page_index"":5,""viewing_time"":5590},{""page_index"":6,""viewing_time"":5860}]",,,,,,,,,,
9425,,instructions,2,178352,0.0-2.0,31LM9EDVOMEL1TA4LTGMI90I0FOJNM,A11FFJZ0C984W4,30OITAWPBQP2Z1DQ5HPUZCTXABIH90,"[{""page_index"":0,""viewing_time"":9424}]",,,,,,,,,,
2960,,instructions,3,181313,0.0-3.0,31LM9EDVOMEL1TA4LTGMI90I0FOJNM,A11FFJZ0C984W4,30OITAWPBQP2Z1DQ5HPUZCTXABIH90,"[{""page_index"":0,""viewing_time"":2960}]",,,,,,,,,,
952,,image-keyboard-response,4,182267,0.0-4.0,31LM9EDVOMEL1TA4LTGMI90I0FOJNM,A11FFJZ0C984W4,30OITAWPBQP2Z1DQ5HPUZCTXABIH90,,img/set1/S1.jpg,83,1,random,83,"random,structured_normal,structured_incentive","2,3,1,2",TRUE,,
null,,html-keyboard-response,5,182627,0.0-5.0,31LM9EDVOMEL1TA4LTGMI90I0FOJNM,A11FFJZ0C984W4,30OITAWPBQP2Z1DQ5HPUZCTXABIH90,,"<img src=""img/set1/S1.jpg"" width=""540"" height = ""360"" style=""border:16px solid orange"">",null,,,,,,,,
null,,html-keyboard-response,6,182830,0.0-6.0,31LM9EDVOMEL1TA4LTGMI90I0FOJNM,A11FFJZ0C984W4,30OITAWPBQP2Z1DQ5HPUZCTXABIH90,,,null,,,,,,,,
787,,image-keyboard-response,7,183617,0.0-7.0,31LM9EDVOMEL1TA4LTGMI90I0FOJNM,A11FFJZ0C984W4,30OITAWPBQP2Z1DQ5HPUZCTXABIH90,,img/set1/S1.jpg,83,1,random,83,"random,structured_normal,structured_incentive","2,3,1,2",TRUE,,
null,,html-keyboard-response,8,183968,0.0-8.0,31LM9EDVOMEL1TA4LTGMI90I0FOJNM,A11FFJZ0C984W4,30OITAWPBQP2Z1DQ5HPUZCTXABIH90,,"<img src=""img/set1/S1.jpg"" width=""540"" height = ""360"" style=""border:16px solid orange"">",null,,,,,,,,
null,,html-keyboard-response,9,184169,0.0-9.0,31LM9EDVOMEL1TA4LTGMI90I0FOJNM,A11FFJZ0C984W4,30OITAWPBQP2Z1DQ5HPUZCTXABIH90,,,null,,,,,,,,
672,,image-keyboard-response,10,184843,0.0-10.0,31LM9EDVOMEL1TA4LTGMI90I0FOJNM,A11FFJZ0C984W4,30OITAWPBQP2Z1DQ5HPUZCTXABIH90,,img/set1/S1.jpg,83,1,random,83,"random,structured_normal,structured_incentive","2,3,1,2",TRUE,,
null,,html-keyboard-response,11,185208,0.0-11.0,31LM9EDVOMEL1TA4LTGMI90I0FOJNM,A11FFJZ0C984W4,30OITAWPBQP2Z1DQ5HPUZCTXABIH90,,"<img src=""img/set1/S1.jpg"" width=""540"" height = ""360"" style=""border:16px solid orange"">",null,,,,,,,,
null,,html-keyboard-response,12,185411,0.0-12.0,31LM9EDVOMEL1TA4LTGMI90I0FOJNM,A11FFJZ0C984W4,30OITAWPBQP2Z1DQ5HPUZCTXABIH90,,,null,,,,,,,,
880,,image-keyboard-response,13,186293,0.0-13.0,31LM9EDVOMEL1TA4LTGMI90I0FOJNM,A11FFJZ0C984W4,30OITAWPBQP2Z1DQ5HPUZCTXABIH90,,img/set1/S3.jpg,83,3,random,72,"random,structured_normal,structured_incentive","2,3,1,2",FALSE,,
null,,html-keyboard-response,14,186654,0.0-14.0,31LM9EDVOMEL1TA4LTGMI90I0FOJNM,A11FFJZ0C984W4,30OITAWPBQP2Z1DQ5HPUZCTXABIH90,,"<img src=""img/set1/S3.jpg"" width=""540"" height = ""360"">",null,,,,,,,,
null,,html-keyboard-response,15,186856,0.0-15.0,31LM9EDVOMEL1TA4LTGMI90I0FOJNM,A11FFJZ0C984W4,30OITAWPBQP2Z1DQ5HPUZCTXABIH90,,,null,,,,,,,,
995,,image-keyboard-response,16,187851,0.0-16.0,31LM9EDVOMEL1TA4LTGMI90I0FOJNM,A11FFJZ0C984W4,30OITAWPBQP2Z1DQ5HPUZCTXABIH90,,img/set1/S2.jpg,83,2,random,68,"random,structured_normal,structured_incentive","2,3,1,2",FALSE,,
null,,html-keyboard-response,17,188210,0.0-17.0,31LM9EDVOMEL1TA4LTGMI90I0FOJNM,A11FFJZ0C984W4,30OITAWPBQP2Z1DQ5HPUZCTXABIH90,,"<img src=""img/set1/S2.jpg"" width=""540"" height = ""360"">",null,,,,,,,,
null,,html-keyboard-response,18,188424,0.0-18.0,31LM9EDVOMEL1TA4LTGMI90I0FOJNM,A11FFJZ0C984W4,30OITAWPBQP2Z1DQ5HPUZCTXABIH90,,,null,,,,,,,,
1122,,image-keyboard-response,19,189547,0.0-19.0,31LM9EDVOMEL1TA4LTGMI90I0FOJNM,A11FFJZ0C984W4,30OITAWPBQP2Z1DQ5HPUZCTXABIH90,,img/set1/S3.jpg,68,3,random,72,"random,structured_normal,structured_incentive","2,3,1,2",FALSE,,
null,,html-keyboard-response,20,189900,0.0-20.0,31LM9EDVOMEL1TA4LTGMI90I0FOJNM,A11FFJZ0C984W4,30OITAWPBQP2Z1DQ5HPUZCTXABIH90,,"<img src=""img/set1/S3.jpg"" width=""540"" height = ""360"">",null,,,,,,,,
null,,html-keyboard-response,21,190102,0.0-21.0,31LM9EDVOMEL1TA4LTGMI90I0FOJNM,A11FFJZ0C984W4,30OITAWPBQP2Z1DQ5HPUZCTXABIH90,,,null,,,,,,,,
881,,image-keyboard-response,22,190983,0.0-22.0,31LM9EDVOMEL1TA4LTGMI90I0FOJNM,A11FFJZ0C984W4,30OITAWPBQP2Z1DQ5HPUZCTXABIH90,,img/set1/S1.jpg,83,1,random,83,"random,structured_normal,structured_incentive","2,3,1,2",TRUE,,
null,,html-keyboard-response,23,191348,0.0-23.0,31LM9EDVOMEL1TA4LTGMI90I0FOJNM,A11FFJZ0C984W4,30OITAWPBQP2Z1DQ5HPUZCTXABIH90,,"<img src=""img/set1/S1.jpg"" width=""540"" height = ""360"" style=""border:16px solid orange"">",null,,,,,,,,
null,,html-keyboard-response,24,191549,0.0-24.0,31LM9EDVOMEL1TA4LTGMI90I0FOJNM,A11FFJZ0C984W4,30OITAWPBQP2Z1DQ5HPUZCTXABIH90,,,null,,,,,,,,
988,,image-keyboard-response,25,192538,0.0-25.0,31LM9EDVOMEL1TA4LTGMI90I0FOJNM,A11FFJZ0C984W4,30OITAWPBQP2Z1DQ5HPUZCTXABIH90,,img/set1/S2.jpg,68,2,random,68,"random,structured_normal,structured_incentive","2,3,1,2",TRUE,,
null,,html-keyboard-response,26,192903,0.0-26.0,31LM9EDVOMEL1TA4LTGMI90I0FOJNM,A11FFJZ0C984W4,30OITAWPBQP2Z1DQ5HPUZCTXABIH90,,"<img src=""img/set1/S2.jpg"" width=""540"" height = ""360"" style=""border:16px solid orange"">",null,,,,,,,,
null,,html-keyboard-response,27,193105,0.0-27.0,31LM9EDVOMEL1TA4LTGMI90I0FOJNM,A11FFJZ0C984W4,30OITAWPBQP2Z1DQ5HPUZCTXABIH90,,,null,,,,,,,,
998,,image-keyboard-response,28,194105,0.0-28.0,31LM9EDVOMEL1TA4LTGMI90I0FOJNM,A11FFJZ0C984W4,30OITAWPBQP2Z1DQ5HPUZCTXABIH90,,img/set1/S1.jpg,83,1,random,83,"random,structured_normal,structured_incentive","2,3,1,2",TRUE,,
null,,html-keyboard-response,29,194460,0.0-29.0,31LM9EDVOMEL1TA4LTGMI90I0FOJNM,A11FFJZ0C984W4,30OITAWPBQP2Z1DQ5HPUZCTXABIH90,,"<img src=""img/set1/S1.jpg"" width=""540"" height = ""360"" style=""border:16px solid orange"">",null,,,,,,,,
null,,html-keyboard-response,30,194662,0.0-30.0,31LM9EDVOMEL1TA4LTGMI90I0FOJNM,A11FFJZ0C984W4,30OITAWPBQP2Z1DQ5HPUZCTXABIH90,,,null,,,,,,,,
983,,image-keyboard-response,31,195646,0.0-31.0,31LM9EDVOMEL1TA4LTGMI90I0FOJNM,A11FFJZ0C984W4,30OITAWPBQP2Z1DQ5HPUZCTXABIH90,,img/set1/S4.jpg,74,4,random,74,"random,structured_normal,structured_incentive","2,3,1,2",TRUE,,
null,,html-keyboard-response,32,196000,0.0-32.0,31LM9EDVOMEL1TA4LTGMI90I0FOJNM,A11FFJZ0C984W4,30OITAWPBQP2Z1DQ5HPUZCTXABIH90,,"<img src=""img/set1/S4.jpg"" width=""540"" height = ""360"" style=""border:16px solid orange"">",null,,,,,,,,
null,,html-keyboard-response,33,196204,0.0-33.0,31LM9EDVOMEL1TA4LTGMI90I0FOJNM,A11FFJZ0C984W4,30OITAWPBQP2Z1DQ5HPUZCTXABIH90,,,null,,,,,,,,
868,,image-keyboard-response,34,197072,0.0-34.0,31LM9EDVOMEL1TA4LTGMI90I0FOJNM,A11FFJZ0C984W4,30OITAWPBQP2Z1DQ5HPUZCTXABIH90,,img/set1/S4.jpg,74,4,random,74,"random,structured_normal,structured_incentive","2,3,1,2",TRUE,,
null,,html-keyboard-response,35,197433,0.0-35.0,31LM9EDVOMEL1TA4LTGMI90I0FOJNM,A11FFJZ0C984W4,30OITAWPBQP2Z1DQ5HPUZCTXABIH90,,"<img src=""img/set1/S4.jpg"" width=""540"" height = ""360"" style=""border:16px solid orange"">",null,,,,,,,,
null,,html-keyboard-response,36,197639,0.0-36.0,31LM9EDVOMEL1TA4LTGMI90I0FOJNM,A11FFJZ0C984W4,30OITAWPBQP2Z1DQ5HPUZCTXABIH90,,,null,,,,,,,,
1024,,image-keyboard-response,37,198664,0.0-37.0,31LM9EDVOMEL1TA4LTGMI90I0FOJNM,A11FFJZ0C984W4,30OITAWPBQP2Z1DQ5HPUZCTXABIH90,,img/set1/S3.jpg,72,3,random,72,"random,structured_normal,structured_incentive","2,3,1,2",TRUE,,
null,,html-keyboard-response,38,199017,0.0-38.0,31LM9EDVOMEL1TA4LTGMI90I0FOJNM,A11FFJZ0C984W4,30OITAWPBQP2Z1DQ5HPUZCTXABIH90,,"<img src=""img/set1/S3.jpg"" width=""540"" height = ""360"" style=""border:16px solid orange"">",null,,,,,,,,
null,,html-keyboard-response,39,199221,0.0-39.0,31LM9EDVOMEL1TA4LTGMI90I0FOJNM,A11FFJZ0C984W4,30OITAWPBQP2Z1DQ5HPUZCTXABIH90,,,null,,,,,,,,
920,,image-keyboard-response,40,200141,0.0-40.0,31LM9EDVOMEL1TA4LTGMI90I0FOJNM,A11FFJZ0C984W4,30OITAWPBQP2Z1DQ5HPUZCTXABIH90,,img/set1/S4.jpg,74,4,random,74,"random,structured_normal,structured_incentive","2,3,1,2",TRUE,,
null,,html-keyboard-response,41,200495,0.0-41.0,31LM9EDVOMEL1TA4LTGMI90I0FOJNM,A11FFJZ0C984W4,30OITAWPBQP2Z1DQ5HPUZCTXABIH90,,"<img src=""img/set1/S4.jpg"" width=""540"" height = ""360"" style=""border:16px solid orange"">",null,,,,,,,,
null,,html-keyboard-response,42,200696,0.0-42.0,31LM9EDVOMEL1TA4LTGMI90I0FOJNM,A11FFJZ0C984W4,30OITAWPBQP2Z1DQ5HPUZCTXABIH90,,,null,,,,,,,,
811,,image-keyboard-response,43,201508,0.0-43.0,31LM9EDVOMEL1TA4LTGMI90I0FOJNM,A11FFJZ0C984W4,30OITAWPBQP2Z1DQ5HPUZCTXABIH90,,img/set1/S1.jpg,83,1,random,83,"random,structured_normal,structured_incentive","2,3,1,2",TRUE,,
null,,html-keyboard-response,44,201864,0.0-44.0,31LM9EDVOMEL1TA4LTGMI90I0FOJNM,A11FFJZ0C984W4,30OITAWPBQP2Z1DQ5HPUZCTXABIH90,,"<img src=""img/set1/S1.jpg"" width=""540"" height = ""360"" style=""border:16px solid orange"">",null,,,,,,,,
null,,html-keyboard-response,45,202066,0.0-45.0,31LM9EDVOMEL1TA4LTGMI90I0FOJNM,A11FFJZ0C984W4,30OITAWPBQP2Z1DQ5HPUZCTXABIH90,,,null,,,,,,,,
1079,,image-keyboard-response,46,203145,0.0-46.0,31LM9EDVOMEL1TA4LTGMI90I0FOJNM,A11FFJZ0C984W4,30OITAWPBQP2Z1DQ5HPUZCTXABIH90,,img/set1/S3.jpg,74,3,random,72,"random,structured_normal,structured_incentive","2,3,1,2",FALSE,,
null,,html-keyboard-response,47,203500,0.0-47.0,31LM9EDVOMEL1TA4LTGMI90I0FOJNM,A11FFJZ0C984W4,30OITAWPBQP2Z1DQ5HPUZCTXABIH90,,"<img src=""img/set1/S3.jpg"" width=""540"" height = ""360"">",null,,,,,,,,
null,,html-keyboard-response,48,203700,0.0-48.0,31LM9EDVOMEL1TA4LTGMI90I0FOJNM,A11FFJZ0C984W4,30OITAWPBQP2Z1DQ5HPUZCTXABIH90,,,null,,,,,,,,
1232,,image-keyboard-response,49,204933,0.0-49.0,31LM9EDVOMEL1TA4LTGMI90I0FOJNM,A11FFJZ0C984W4,30OITAWPBQP2Z1DQ5HPUZCTXABIH90,,img/set1/S1.jpg,83,1,random,83,"random,structured_normal,structured_incentive","2,3,1,2",TRUE,,
null,,html-keyboard-response,50,205284,0.0-50.0,31LM9EDVOMEL1TA4LTGMI90I0FOJNM,A11FFJZ0C984W4,30OITAWPBQP2Z1DQ5HPUZCTXABIH90,,"<img src=""img/set1/S1.jpg"" width=""540"" height = ""360"" style=""border:16px solid orange"">",null,,,,,,,,
null,,html-keyboard-response,51,205486,0.0-51.0,31LM9EDVOMEL1TA4LTGMI90I0FOJNM,A11FFJZ0C984W4,30OITAWPBQP2Z1DQ5HPUZCTXABIH90,,,null,,,,,,,,
707,,image-keyboard-response,52,206195,0.0-52.0,31LM9EDVOMEL1TA4LTGMI90I0FOJNM,A11FFJZ0C984W4,30OITAWPBQP2Z1DQ5HPUZCTXABIH90,,img/set1/S1.jpg,83,1,random,83,"random,structured_normal,structured_incentive","2,3,1,2",TRUE,,
null,,html-keyboard-response,53,206547,0.0-53.0,31LM9EDVOMEL1TA4LTGMI90I0FOJNM,A11FFJZ0C984W4,30OITAWPBQP2Z1DQ5HPUZCTXABIH90,,"<img src=""img/set1/S1.jpg"" width=""540"" height = ""360"" style=""border:16px solid orange"">",null,,,,,,,,
null,,html-keyboard-response,54,206750,0.0-54.0,31LM9EDVOMEL1TA4LTGMI90I0FOJNM,A11FFJZ0C984W4,30OITAWPBQP2Z1DQ5HPUZCTXABIH90,,,null,,,,,,,,
1390,,image-keyboard-response,55,208142,0.0-55.0,31LM9EDVOMEL1TA4LTGMI90I0FOJNM,A11FFJZ0C984W4,30OITAWPBQP2Z1DQ5HPUZCTXABIH90,,img/set1/S2.jpg,68,2,random,68,"random,structured_normal,structured_incentive","2,3,1,2",TRUE,,
null,,html-keyboard-response,56,208506,0.0-56.0,31LM9EDVOMEL1TA4LTGMI90I0FOJNM,A11FFJZ0C984W4,30OITAWPBQP2Z1DQ5HPUZCTXABIH90,,"<img src=""img/set1/S2.jpg"" width=""540"" height = ""360"" style=""border:16px solid orange"">",null,,,,,,,,
null,,html-keyboard-response,57,208708,0.0-57.0,31LM9EDVOMEL1TA4LTGMI90I0FOJNM,A11FFJZ0C984W4,30OITAWPBQP2Z1DQ5HPUZCTXABIH90,,,null,,,,,,,,
847,,image-keyboard-response,58,209554,0.0-58.0,31LM9EDVOMEL1TA4LTGMI90I0FOJNM,A11FFJZ0C984W4,30OITAWPBQP2Z1DQ5HPUZCTXABIH90,,img/set1/S4.jpg,74,4,random,74,"random,structured_normal,structured_incentive","2,3,1,2",TRUE,,
null,,html-keyboard-response,59,209920,0.0-59.0,31LM9EDVOMEL1TA4LTGMI90I0FOJNM,A11FFJZ0C984W4,30OITAWPBQP2Z1DQ5HPUZCTXABIH90,,"<img src=""img/set1/S4.jpg"" width=""540"" height = ""360"" style=""border:16px solid orange"">",null,,,,,,,,
null,,html-keyboard-response,60,210123,0.0-60.0,31LM9EDVOMEL1TA4LTGMI90I0FOJNM,A11FFJZ0C984W4,30OITAWPBQP2Z1DQ5HPUZCTXABIH90,,,null,,,,,,,,
834,,image-keyboard-response,61,210958,0.0-61.0,31LM9EDVOMEL1TA4LTGMI90I0FOJNM,A11FFJZ0C984W4,30OITAWPBQP2Z1DQ5HPUZCTXABIH90,,img/set1/S1.jpg,83,1,random,83,"random,structured_normal,structured_incentive","2,3,1,2",TRUE,,
null,,html-keyboard-response,62,211323,0.0-62.0,31LM9EDVOMEL1TA4LTGMI90I0FOJNM,A11FFJZ0C984W4,30OITAWPBQP2Z1DQ5HPUZCTXABIH90,,"<img src=""img/set1/S1.jpg"" width=""540"" height = ""360"" style=""border:16px solid orange"">",null,,,,,,,,
null,,html-keyboard-response,63,211525,0.0-63.0,31LM9EDVOMEL1TA4LTGMI90I0FOJNM,A11FFJZ0C984W4,30OITAWPBQP2Z1DQ5HPUZCTXABIH90,,,null,,,,,,,,
772,,image-keyboard-response,64,212299,0.0-64.0,31LM9EDVOMEL1TA4LTGMI90I0FOJNM,A11FFJZ0C984W4,30OITAWPBQP2Z1DQ5HPUZCTXABIH90,,img/set1/S1.jpg,83,1,random,83,"random,structured_normal,structured_incentive","2,3,1,2",TRUE,,
null,,html-keyboard-response,65,212659,0.0-65.0,31LM9EDVOMEL1TA4LTGMI90I0FOJNM,A11FFJZ0C984W4,30OITAWPBQP2Z1DQ5HPUZCTXABIH90,,"<img src=""img/set1/S1.jpg"" width=""540"" height = ""360"" style=""border:16px solid orange"">",null,,,,,,,,
null,,html-keyboard-response,66,212862,0.0-66.0,31LM9EDVOMEL1TA4LTGMI90I0FOJNM,A11FFJZ0C984W4,30OITAWPBQP2Z1DQ5HPUZCTXABIH90,,,null,,,,,,,,
725,,image-keyboard-response,67,213589,0.0-67.0,31LM9EDVOMEL1TA4LTGMI90I0FOJNM,A11FFJZ0C984W4,30OITAWPBQP2Z1DQ5HPUZCTXABIH90,,img/set1/S1.jpg,83,1,random,83,"random,structured_normal,structured_incentive","2,3,1,2",TRUE,,
null,,html-keyboard-response,68,213953,0.0-68.0,31LM9EDVOMEL1TA4LTGMI90I0FOJNM,A11FFJZ0C984W4,30OITAWPBQP2Z1DQ5HPUZCTXABIH90,,"<img src=""img/set1/S1.jpg"" width=""540"" height = ""360"" style=""border:16px solid orange"">",null,,,,,,,,
null,,html-keyboard-response,69,214154,0.0-69.0,31LM9EDVOMEL1TA4LTGMI90I0FOJNM,A11FFJZ0C984W4,30OITAWPBQP2Z1DQ5HPUZCTXABIH90,,,null,,,,,,,,
665,,image-keyboard-response,70,214820,0.0-70.0,31LM9EDVOMEL1TA4LTGMI90I0FOJNM,A11FFJZ0C984W4,30OITAWPBQP2Z1DQ5HPUZCTXABIH90,,img/set1/S2.jpg,68,2,random,68,"random,structured_normal,structured_incentive","2,3,1,2",TRUE,,
null,,html-keyboard-response,71,215183,0.0-71.0,31LM9EDVOMEL1TA4LTGMI90I0FOJNM,A11FFJZ0C984W4,30OITAWPBQP2Z1DQ5HPUZCTXABIH90,,"<img src=""img/set1/S2.jpg"" width=""540"" height = ""360"" style=""border:16px solid orange"">",null,,,,,,,,
null,,html-keyboard-response,72,215383,0.0-72.0,31LM9EDVOMEL1TA4LTGMI90I0FOJNM,A11FFJZ0C984W4,30OITAWPBQP2Z1DQ5HPUZCTXABIH90,,,null,,,,,,,,
813,,image-keyboard-response,73,216196,0.0-73.0,31LM9EDVOMEL1TA4LTGMI90I0FOJNM,A11FFJZ0C984W4,30OITAWPBQP2Z1DQ5HPUZCTXABIH90,,img/set1/S1.jpg,83,1,random,83,"random,structured_normal,structured_incentive","2,3,1,2",TRUE,,
null,,html-keyboard-response,74,216548,0.0-74.0,31LM9EDVOMEL1TA4LTGMI90I0FOJNM,A11FFJZ0C984W4,30OITAWPBQP2Z1DQ5HPUZCTXABIH90,,"<img src=""img/set1/S1.jpg"" width=""540"" height = ""360"" style=""border:16px solid orange"">",null,,,,,,,,
null,,html-keyboard-response,75,216751,0.0-75.0,31LM9EDVOMEL1TA4LTGMI90I0FOJNM,A11FFJZ0C984W4,30OITAWPBQP2Z1DQ5HPUZCTXABIH90,,,null,,,,,,,,
704,,image-keyboard-response,76,217454,0.0-76.0,31LM9EDVOMEL1TA4LTGMI90I0FOJNM,A11FFJZ0C984W4,30OITAWPBQP2Z1DQ5HPUZCTXABIH90,,img/set1/S4.jpg,74,4,random,74,"random,structured_normal,structured_incentive","2,3,1,2",TRUE,,
null,,html-keyboard-response,77,217813,0.0-77.0,31LM9EDVOMEL1TA4LTGMI90I0FOJNM,A11FFJZ0C984W4,30OITAWPBQP2Z1DQ5HPUZCTXABIH90,,"<img src=""img/set1/S4.jpg"" width=""540"" height = ""360"" style=""border:16px solid orange"">",null,,,,,,,,
null,,html-keyboard-response,78,218014,0.0-78.0,31LM9EDVOMEL1TA4LTGMI90I0FOJNM,A11FFJZ0C984W4,30OITAWPBQP2Z1DQ5HPUZCTXABIH90,,,null,,,,,,,,
799,,image-keyboard-response,79,218814,0.0-79.0,31LM9EDVOMEL1TA4LTGMI90I0FOJNM,A11FFJZ0C984W4,30OITAWPBQP2Z1DQ5HPUZCTXABIH90,,img/set1/S2.jpg,68,2,random,68,"random,structured_normal,structured_incentive","2,3,1,2",TRUE,,
null,,html-keyboard-response,80,219177,0.0-80.0,31LM9EDVOMEL1TA4LTGMI90I0FOJNM,A11FFJZ0C984W4,30OITAWPBQP2Z1DQ5HPUZCTXABIH90,,"<img src=""img/set1/S2.jpg"" width=""540"" height = ""360"" style=""border:16px solid orange"">",null,,,,,,,,
null,,html-keyboard-response,81,219379,0.0-81.0,31LM9EDVOMEL1TA4LTGMI90I0FOJNM,A11FFJZ0C984W4,30OITAWPBQP2Z1DQ5HPUZCTXABIH90,,,null,,,,,,,,
692,,image-keyboard-response,82,220072,0.0-82.0,31LM9EDVOMEL1TA4LTGMI90I0FOJNM,A11FFJZ0C984W4,30OITAWPBQP2Z1DQ5HPUZCTXABIH90,,img/set1/S2.jpg,68,2,random,68,"random,structured_normal,structured_incentive","2,3,1,2",TRUE,,
null,,html-keyboard-response,83,220437,0.0-83.0,31LM9EDVOMEL1TA4LTGMI90I0FOJNM,A11FFJZ0C984W4,30OITAWPBQP2Z1DQ5HPUZCTXABIH90,,"<img src=""img/set1/S2.jpg"" width=""540"" height = ""360"" style=""border:16px solid orange"">",null,,,,,,,,
null,,html-keyboard-response,84,220639,0.0-84.0,31LM9EDVOMEL1TA4LTGMI90I0FOJNM,A11FFJZ0C984W4,30OITAWPBQP2Z1DQ5HPUZCTXABIH90,,,null,,,,,,,,
1023,,image-keyboard-response,85,221663,0.0-85.0,31LM9EDVOMEL1TA4LTGMI90I0FOJNM,A11FFJZ0C984W4,30OITAWPBQP2Z1DQ5HPUZCTXABIH90,,img/set1/S3.jpg,72,3,random,72,"random,structured_normal,structured_incentive","2,3,1,2",TRUE,,
null,,html-keyboard-response,86,222020,0.0-86.0,31LM9EDVOMEL1TA4LTGMI90I0FOJNM,A11FFJZ0C984W4,30OITAWPBQP2Z1DQ5HPUZCTXABIH90,,"<img src=""img/set1/S3.jpg"" width=""540"" height = ""360"" style=""border:16px solid orange"">",null,,,,,,,,
null,,html-keyboard-response,87,222224,0.0-87.0,31LM9EDVOMEL1TA4LTGMI90I0FOJNM,A11FFJZ0C984W4,30OITAWPBQP2Z1DQ5HPUZCTXABIH90,,,null,,,,,,,,
763,,image-keyboard-response,88,222988,0.0-88.0,31LM9EDVOMEL1TA4LTGMI90I0FOJNM,A11FFJZ0C984W4,30OITAWPBQP2Z1DQ5HPUZCTXABIH90,,img/set1/S4.jpg,74,4,random,74,"random,structured_normal,structured_incentive","2,3,1,2",TRUE,,
null,,html-keyboard-response,89,223344,0.0-89.0,31LM9EDVOMEL1TA4LTGMI90I0FOJNM,A11FFJZ0C984W4,30OITAWPBQP2Z1DQ5HPUZCTXABIH90,,"<img src=""img/set1/S4.jpg"" width=""540"" height = ""360"" style=""border:16px solid orange"">",null,,,,,,,,
null,,html-keyboard-response,90,223545,0.0-90.0,31LM9EDVOMEL1TA4LTGMI90I0FOJNM,A11FFJZ0C984W4,30OITAWPBQP2Z1DQ5HPUZCTXABIH90,,,null,,,,,,,,
649,,image-keyboard-response,91,224195,0.0-91.0,31LM9EDVOMEL1TA4LTGMI90I0FOJNM,A11FFJZ0C984W4,30OITAWPBQP2Z1DQ5HPUZCTXABIH90,,img/set1/S4.jpg,74,4,random,74,"random,structured_normal,structured_incentive","2,3,1,2",TRUE,,
null,,html-keyboard-response,92,224555,0.0-92.0,31LM9EDVOMEL1TA4LTGMI90I0FOJNM,A11FFJZ0C984W4,30OITAWPBQP2Z1DQ5HPUZCTXABIH90,,"<img src=""img/set1/S4.jpg"" width=""540"" height = ""360"" style=""border:16px solid orange"">",null,,,,,,,,
null,,html-keyboard-response,93,224755,0.0-93.0,31LM9EDVOMEL1TA4LTGMI90I0FOJNM,A11FFJZ0C984W4,30OITAWPBQP2Z1DQ5HPUZCTXABIH90,,,null,,,,,,,,
615,,image-keyboard-response,94,225371,0.0-94.0,31LM9EDVOMEL1TA4LTGMI90I0FOJNM,A11FFJZ0C984W4,30OITAWPBQP2Z1DQ5HPUZCTXABIH90,,img/set1/S1.jpg,83,1,random,83,"random,structured_normal,structured_incentive","2,3,1,2",TRUE,,
null,,html-keyboard-response,95,225734,0.0-95.0,31LM9EDVOMEL1TA4LTGMI90I0FOJNM,A11FFJZ0C984W4,30OITAWPBQP2Z1DQ5HPUZCTXABIH90,,"<img src=""img/set1/S1.jpg"" width=""540"" height = ""360"" style=""border:16px solid orange"">",null,,,,,,,,
null,,html-keyboard-response,96,225936,0.0-96.0,31LM9EDVOMEL1TA4LTGMI90I0FOJNM,A11FFJZ0C984W4,30OITAWPBQP2Z1DQ5HPUZCTXABIH90,,,null,,,,,,,,
681,,image-keyboard-response,97,226619,0.0-97.0,31LM9EDVOMEL1TA4LTGMI90I0FOJNM,A11FFJZ0C984W4,30OITAWPBQP2Z1DQ5HPUZCTXABIH90,,img/set1/S4.jpg,74,4,random,74,"random,structured_normal,structured_incentive","2,3,1,2",TRUE,,
null,,html-keyboard-response,98,226975,0.0-98.0,31LM9EDVOMEL1TA4LTGMI90I0FOJNM,A11FFJZ0C984W4,30OITAWPBQP2Z1DQ5HPUZCTXABIH90,,"<img src=""img/set1/S4.jpg"" width=""540"" height = ""360"" style=""border:16px solid orange"">",null,,,,,,,,
null,,html-keyboard-response,99,227177,0.0-99.0,31LM9EDVOMEL1TA4LTGMI90I0FOJNM,A11FFJZ0C984W4,30OITAWPBQP2Z1DQ5HPUZCTXABIH90,,,null,,,,,,,,
735,,image-keyboard-response,100,227913,0.0-100.0,31LM9EDVOMEL1TA4LTGMI90I0FOJNM,A11FFJZ0C984W4,30OITAWPBQP2Z1DQ5HPUZCTXABIH90,,img/set1/S2.jpg,68,2,random,68,"random,structured_normal,structured_incentive","2,3,1,2",TRUE,,
null,,html-keyboard-response,101,228268,0.0-101.0,31LM9EDVOMEL1TA4LTGMI90I0FOJNM,A11FFJZ0C984W4,30OITAWPBQP2Z1DQ5HPUZCTXABIH90,,"<img src=""img/set1/S2.jpg"" width=""540"" height = ""360"" style=""border:16px solid orange"">",null,,,,,,,,
null,,html-keyboard-response,102,228468,0.0-102.0,31LM9EDVOMEL1TA4LTGMI90I0FOJNM,A11FFJZ0C984W4,30OITAWPBQP2Z1DQ5HPUZCTXABIH90,,,null,,,,,,,,
678,,image-keyboard-response,103,229148,0.0-103.0,31LM9EDVOMEL1TA4LTGMI90I0FOJNM,A11FFJZ0C984W4,30OITAWPBQP2Z1DQ5HPUZCTXABIH90,,img/set1/S3.jpg,72,3,random,72,"random,structured_normal,structured_incentive","2,3,1,2",TRUE,,
null,,html-keyboard-response,104,229512,0.0-104.0,31LM9EDVOMEL1TA4LTGMI90I0FOJNM,A11FFJZ0C984W4,30OITAWPBQP2Z1DQ5HPUZCTXABIH90,,"<img src=""img/set1/S3.jpg"" width=""540"" height = ""360"" style=""border:16px solid orange"">",null,,,,,,,,
null,,html-keyboard-response,105,229714,0.0-105.0,31LM9EDVOMEL1TA4LTGMI90I0FOJNM,A11FFJZ0C984W4,30OITAWPBQP2Z1DQ5HPUZCTXABIH90,,,null,,,,,,,,
691,,image-keyboard-response,106,230406,0.0-106.0,31LM9EDVOMEL1TA4LTGMI90I0FOJNM,A11FFJZ0C984W4,30OITAWPBQP2Z1DQ5HPUZCTXABIH90,,img/set1/S1.jpg,83,1,random,83,"random,structured_normal,structured_incentive","2,3,1,2",TRUE,,
null,,html-keyboard-response,107,230765,0.0-107.0,31LM9EDVOMEL1TA4LTGMI90I0FOJNM,A11FFJZ0C984W4,30OITAWPBQP2Z1DQ5HPUZCTXABIH90,,"<img src=""img/set1/S1.jpg"" width=""540"" height = ""360"" style=""border:16px solid orange"">",null,,,,,,,,
null,,html-keyboard-response,108,230981,0.0-108.0,31LM9EDVOMEL1TA4LTGMI90I0FOJNM,A11FFJZ0C984W4,30OITAWPBQP2Z1DQ5HPUZCTXABIH90,,,null,,,,,,,,
814,,image-keyboard-response,109,231796,0.0-109.0,31LM9EDVOMEL1TA4LTGMI90I0FOJNM,A11FFJZ0C984W4,30OITAWPBQP2Z1DQ5HPUZCTXABIH90,,img/set1/S3.jpg,72,3,random,72,"random,structured_normal,structured_incentive","2,3,1,2",TRUE,,
null,,html-keyboard-response,110,232162,0.0-110.0,31LM9EDVOMEL1TA4LTGMI90I0FOJNM,A11FFJZ0C984W4,30OITAWPBQP2Z1DQ5HPUZCTXABIH90,,"<img src=""img/set1/S3.jpg"" width=""540"" height = ""360"" style=""border:16px solid orange"">",null,,,,,,,,
null,,html-keyboard-response,111,232363,0.0-111.0,31LM9EDVOMEL1TA4LTGMI90I0FOJNM,A11FFJZ0C984W4,30OITAWPBQP2Z1DQ5HPUZCTXABIH90,,,null,,,,,,,,
647,,image-keyboard-response,112,233012,0.0-112.0,31LM9EDVOMEL1TA4LTGMI90I0FOJNM,A11FFJZ0C984W4,30OITAWPBQP2Z1DQ5HPUZCTXABIH90,,img/set1/S2.jpg,83,2,random,68,"random,structured_normal,structured_incentive","2,3,1,2",FALSE,,
null,,html-keyboard-response,113,233375,0.0-113.0,31LM9EDVOMEL1TA4LTGMI90I0FOJNM,A11FFJZ0C984W4,30OITAWPBQP2Z1DQ5HPUZCTXABIH90,,"<img src=""img/set1/S2.jpg"" width=""540"" height = ""360"">",null,,,,,,,,
null,,html-keyboard-response,114,233591,0.0-114.0,31LM9EDVOMEL1TA4LTGMI90I0FOJNM,A11FFJZ0C984W4,30OITAWPBQP2Z1DQ5HPUZCTXABIH90,,,null,,,,,,,,
1106,,image-keyboard-response,115,234698,0.0-115.0,31LM9EDVOMEL1TA4LTGMI90I0FOJNM,A11FFJZ0C984W4,30OITAWPBQP2Z1DQ5HPUZCTXABIH90,,img/set1/S3.jpg,72,3,random,72,"random,structured_normal,structured_incentive","2,3,1,2",TRUE,,
null,,html-keyboard-response,116,235052,0.0-116.0,31LM9EDVOMEL1TA4LTGMI90I0FOJNM,A11FFJZ0C984W4,30OITAWPBQP2Z1DQ5HPUZCTXABIH90,,"<img src=""img/set1/S3.jpg"" width=""540"" height = ""360"" style=""border:16px solid orange"">",null,,,,,,,,
null,,html-keyboard-response,117,235254,0.0-117.0,31LM9EDVOMEL1TA4LTGMI90I0FOJNM,A11FFJZ0C984W4,30OITAWPBQP2Z1DQ5HPUZCTXABIH90,,,null,,,,,,,,
576,,image-keyboard-response,118,235831,0.0-118.0,31LM9EDVOMEL1TA4LTGMI90I0FOJNM,A11FFJZ0C984W4,30OITAWPBQP2Z1DQ5HPUZCTXABIH90,,img/set1/S2.jpg,68,2,random,68,"random,structured_normal,structured_incentive","2,3,1,2",TRUE,,
null,,html-keyboard-response,119,236188,0.0-119.0,31LM9EDVOMEL1TA4LTGMI90I0FOJNM,A11FFJZ0C984W4,30OITAWPBQP2Z1DQ5HPUZCTXABIH90,,"<img src=""img/set1/S2.jpg"" width=""540"" height = ""360"" style=""border:16px solid orange"">",null,,,,,,,,
null,,html-keyboard-response,120,236390,0.0-120.0,31LM9EDVOMEL1TA4LTGMI90I0FOJNM,A11FFJZ0C984W4,30OITAWPBQP2Z1DQ5HPUZCTXABIH90,,,null,,,,,,,,
749,,image-keyboard-response,121,237140,0.0-121.0,31LM9EDVOMEL1TA4LTGMI90I0FOJNM,A11FFJZ0C984W4,30OITAWPBQP2Z1DQ5HPUZCTXABIH90,,img/set1/S1.jpg,83,1,random,83,"random,structured_normal,structured_incentive","2,3,1,2",TRUE,,
null,,html-keyboard-response,122,237498,0.0-122.0,31LM9EDVOMEL1TA4LTGMI90I0FOJNM,A11FFJZ0C984W4,30OITAWPBQP2Z1DQ5HPUZCTXABIH90,,"<img src=""img/set1/S1.jpg"" width=""540"" height = ""360"" style=""border:16px solid orange"">",null,,,,,,,,
null,,html-keyboard-response,123,237699,0.0-123.0,31LM9EDVOMEL1TA4LTGMI90I0FOJNM,A11FFJZ0C984W4,30OITAWPBQP2Z1DQ5HPUZCTXABIH90,,,null,,,,,,,,
746,,image-keyboard-response,124,238447,0.0-124.0,31LM9EDVOMEL1TA4LTGMI90I0FOJNM,A11FFJZ0C984W4,30OITAWPBQP2Z1DQ5HPUZCTXABIH90,,img/set1/S2.jpg,68,2,random,68,"random,structured_normal,structured_incentive","2,3,1,2",TRUE,,
null,,html-keyboard-response,125,238801,0.0-125.0,31LM9EDVOMEL1TA4LTGMI90I0FOJNM,A11FFJZ0C984W4,30OITAWPBQP2Z1DQ5HPUZCTXABIH90,,"<img src=""img/set1/S2.jpg"" width=""540"" height = ""360"" style=""border:16px solid orange"">",null,,,,,,,,
null,,html-keyboard-response,126,239003,0.0-126.0,31LM9EDVOMEL1TA4LTGMI90I0FOJNM,A11FFJZ0C984W4,30OITAWPBQP2Z1DQ5HPUZCTXABIH90,,,null,,,,,,,,
651,,image-keyboard-response,127,239654,0.0-127.0,31LM9EDVOMEL1TA4LTGMI90I0FOJNM,A11FFJZ0C984W4,30OITAWPBQP2Z1DQ5HPUZCTXABIH90,,img/set1/S3.jpg,72,3,random,72,"random,structured_normal,structured_incentive","2,3,1,2",TRUE,,
null,,html-keyboard-response,128,240017,0.0-128.0,31LM9EDVOMEL1TA4LTGMI90I0FOJNM,A11FFJZ0C984W4,30OITAWPBQP2Z1DQ5HPUZCTXABIH90,,"<img src=""img/set1/S3.jpg"" width=""540"" height = ""360"" style=""border:16px solid orange"">",null,,,,,,,,
null,,html-keyboard-response,129,240220,0.0-129.0,31LM9EDVOMEL1TA4LTGMI90I0FOJNM,A11FFJZ0C984W4,30OITAWPBQP2Z1DQ5HPUZCTXABIH90,,,null,,,,,,,,
782,,image-keyboard-response,130,241002,0.0-130.0,31LM9EDVOMEL1TA4LTGMI90I0FOJNM,A11FFJZ0C984W4,30OITAWPBQP2Z1DQ5HPUZCTXABIH90,,img/set1/S2.jpg,68,2,random,68,"random,structured_normal,structured_incentive","2,3,1,2",TRUE,,
null,,html-keyboard-response,131,241353,0.0-131.0,31LM9EDVOMEL1TA4LTGMI90I0FOJNM,A11FFJZ0C984W4,30OITAWPBQP2Z1DQ5HPUZCTXABIH90,,"<img src=""img/set1/S2.jpg"" width=""540"" height = ""360"" style=""border:16px solid orange"">",null,,,,,,,,
null,,html-keyboard-response,132,241555,0.0-132.0,31LM9EDVOMEL1TA4LTGMI90I0FOJNM,A11FFJZ0C984W4,30OITAWPBQP2Z1DQ5HPUZCTXABIH90,,,null,,,,,,,,
724,,image-keyboard-response,133,242279,0.0-133.0,31LM9EDVOMEL1TA4LTGMI90I0FOJNM,A11FFJZ0C984W4,30OITAWPBQP2Z1DQ5HPUZCTXABIH90,,img/set1/S4.jpg,74,4,random,74,"random,structured_normal,structured_incentive","2,3,1,2",TRUE,,
null,,html-keyboard-response,134,242640,0.0-134.0,31LM9EDVOMEL1TA4LTGMI90I0FOJNM,A11FFJZ0C984W4,30OITAWPBQP2Z1DQ5HPUZCTXABIH90,,"<img src=""img/set1/S4.jpg"" width=""540"" height = ""360"" style=""border:16px solid orange"">",null,,,,,,,,
null,,html-keyboard-response,135,242842,0.0-135.0,31LM9EDVOMEL1TA4LTGMI90I0FOJNM,A11FFJZ0C984W4,30OITAWPBQP2Z1DQ5HPUZCTXABIH90,,,null,,,,,,,,
703,,image-keyboard-response,136,243546,0.0-136.0,31LM9EDVOMEL1TA4LTGMI90I0FOJNM,A11FFJZ0C984W4,30OITAWPBQP2Z1DQ5HPUZCTXABIH90,,img/set1/S2.jpg,68,2,random,68,"random,structured_normal,structured_incentive","2,3,1,2",TRUE,,
null,,html-keyboard-response,137,243900,0.0-137.0,31LM9EDVOMEL1TA4LTGMI90I0FOJNM,A11FFJZ0C984W4,30OITAWPBQP2Z1DQ5HPUZCTXABIH90,,"<img src=""img/set1/S2.jpg"" width=""540"" height = ""360"" style=""border:16px solid orange"">",null,,,,,,,,
null,,html-keyboard-response,138,244102,0.0-138.0,31LM9EDVOMEL1TA4LTGMI90I0FOJNM,A11FFJZ0C984W4,30OITAWPBQP2Z1DQ5HPUZCTXABIH90,,,null,,,,,,,,
884,,image-keyboard-response,139,244985,0.0-139.0,31LM9EDVOMEL1TA4LTGMI90I0FOJNM,A11FFJZ0C984W4,30OITAWPBQP2Z1DQ5HPUZCTXABIH90,,img/set1/S3.jpg,74,3,random,72,"random,structured_normal,structured_incentive","2,3,1,2",FALSE,,
null,,html-keyboard-response,140,245345,0.0-140.0,31LM9EDVOMEL1TA4LTGMI90I0FOJNM,A11FFJZ0C984W4,30OITAWPBQP2Z1DQ5HPUZCTXABIH90,,"<img src=""img/set1/S3.jpg"" width=""540"" height = ""360"">",null,,,,,,,,
null,,html-keyboard-response,141,245548,0.0-141.0,31LM9EDVOMEL1TA4LTGMI90I0FOJNM,A11FFJZ0C984W4,30OITAWPBQP2Z1DQ5HPUZCTXABIH90,,,null,,,,,,,,
1008,,image-keyboard-response,142,246557,0.0-142.0,31LM9EDVOMEL1TA4LTGMI90I0FOJNM,A11FFJZ0C984W4,30OITAWPBQP2Z1DQ5HPUZCTXABIH90,,img/set1/S1.jpg,83,1,random,83,"random,structured_normal,structured_incentive","2,3,1,2",TRUE,,
null,,html-keyboard-response,143,246919,0.0-143.0,31LM9EDVOMEL1TA4LTGMI90I0FOJNM,A11FFJZ0C984W4,30OITAWPBQP2Z1DQ5HPUZCTXABIH90,,"<img src=""img/set1/S1.jpg"" width=""540"" height = ""360"" style=""border:16px solid orange"">",null,,,,,,,,
null,,html-keyboard-response,144,247122,0.0-144.0,31LM9EDVOMEL1TA4LTGMI90I0FOJNM,A11FFJZ0C984W4,30OITAWPBQP2Z1DQ5HPUZCTXABIH90,,,null,,,,,,,,
834,,image-keyboard-response,145,247956,0.0-145.0,31LM9EDVOMEL1TA4LTGMI90I0FOJNM,A11FFJZ0C984W4,30OITAWPBQP2Z1DQ5HPUZCTXABIH90,,img/set1/S2.jpg,68,2,random,68,"random,structured_normal,structured_incentive","2,3,1,2",TRUE,,
null,,html-keyboard-response,146,248319,0.0-146.0,31LM9EDVOMEL1TA4LTGMI90I0FOJNM,A11FFJZ0C984W4,30OITAWPBQP2Z1DQ5HPUZCTXABIH90,,"<img src=""img/set1/S2.jpg"" width=""540"" height = ""360"" style=""border:16px solid orange"">",null,,,,,,,,
null,,html-keyboard-response,147,248521,0.0-147.0,31LM9EDVOMEL1TA4LTGMI90I0FOJNM,A11FFJZ0C984W4,30OITAWPBQP2Z1DQ5HPUZCTXABIH90,,,null,,,,,,,,
873,,image-keyboard-response,148,249395,0.0-148.0,31LM9EDVOMEL1TA4LTGMI90I0FOJNM,A11FFJZ0C984W4,30OITAWPBQP2Z1DQ5HPUZCTXABIH90,,img/set1/S3.jpg,72,3,random,72,"random,structured_normal,structured_incentive","2,3,1,2",TRUE,,
null,,html-keyboard-response,149,249748,0.0-149.0,31LM9EDVOMEL1TA4LTGMI90I0FOJNM,A11FFJZ0C984W4,30OITAWPBQP2Z1DQ5HPUZCTXABIH90,,"<img src=""img/set1/S3.jpg"" width=""540"" height = ""360"" style=""border:16px solid orange"">",null,,,,,,,,
null,,html-keyboard-response,150,249951,0.0-150.0,31LM9EDVOMEL1TA4LTGMI90I0FOJNM,A11FFJZ0C984W4,30OITAWPBQP2Z1DQ5HPUZCTXABIH90,,,null,,,,,,,,
701,,image-keyboard-response,151,250653,0.0-151.0,31LM9EDVOMEL1TA4LTGMI90I0FOJNM,A11FFJZ0C984W4,30OITAWPBQP2Z1DQ5HPUZCTXABIH90,,img/set1/S3.jpg,72,3,random,72,"random,structured_normal,structured_incentive","2,3,1,2",TRUE,,
null,,html-keyboard-response,152,251010,0.0-152.0,31LM9EDVOMEL1TA4LTGMI90I0FOJNM,A11FFJZ0C984W4,30OITAWPBQP2Z1DQ5HPUZCTXABIH90,,"<img src=""img/set1/S3.jpg"" width=""540"" height = ""360"" style=""border:16px solid orange"">",null,,,,,,,,
null,,html-keyboard-response,153,251212,0.0-153.0,31LM9EDVOMEL1TA4LTGMI90I0FOJNM,A11FFJZ0C984W4,30OITAWPBQP2Z1DQ5HPUZCTXABIH90,,,null,,,,,,,,
766,,image-keyboard-response,154,251978,0.0-154.0,31LM9EDVOMEL1TA4LTGMI90I0FOJNM,A11FFJZ0C984W4,30OITAWPBQP2Z1DQ5HPUZCTXABIH90,,img/set1/S1.jpg,83,1,random,83,"random,structured_normal,structured_incentive","2,3,1,2",TRUE,,
null,,html-keyboard-response,155,252335,0.0-155.0,31LM9EDVOMEL1TA4LTGMI90I0FOJNM,A11FFJZ0C984W4,30OITAWPBQP2Z1DQ5HPUZCTXABIH90,,"<img src=""img/set1/S1.jpg"" width=""540"" height = ""360"" style=""border:16px solid orange"">",null,,,,,,,,
null,,html-keyboard-response,156,252536,0.0-156.0,31LM9EDVOMEL1TA4LTGMI90I0FOJNM,A11FFJZ0C984W4,30OITAWPBQP2Z1DQ5HPUZCTXABIH90,,,null,,,,,,,,
763,,image-keyboard-response,157,253299,0.0-157.0,31LM9EDVOMEL1TA4LTGMI90I0FOJNM,A11FFJZ0C984W4,30OITAWPBQP2Z1DQ5HPUZCTXABIH90,,img/set1/S2.jpg,68,2,random,68,"random,structured_normal,structured_incentive","2,3,1,2",TRUE,,
null,,html-keyboard-response,158,253653,0.0-158.0,31LM9EDVOMEL1TA4LTGMI90I0FOJNM,A11FFJZ0C984W4,30OITAWPBQP2Z1DQ5HPUZCTXABIH90,,"<img src=""img/set1/S2.jpg"" width=""540"" height = ""360"" style=""border:16px solid orange"">",null,,,,,,,,
null,,html-keyboard-response,159,253854,0.0-159.0,31LM9EDVOMEL1TA4LTGMI90I0FOJNM,A11FFJZ0C984W4,30OITAWPBQP2Z1DQ5HPUZCTXABIH90,,,null,,,,,,,,
720,,image-keyboard-response,160,254575,0.0-160.0,31LM9EDVOMEL1TA4LTGMI90I0FOJNM,A11FFJZ0C984W4,30OITAWPBQP2Z1DQ5HPUZCTXABIH90,,img/set1/S2.jpg,68,2,random,68,"random,structured_normal,structured_incentive","2,3,1,2",TRUE,,
null,,html-keyboard-response,161,254939,0.0-161.0,31LM9EDVOMEL1TA4LTGMI90I0FOJNM,A11FFJZ0C984W4,30OITAWPBQP2Z1DQ5HPUZCTXABIH90,,"<img src=""img/set1/S2.jpg"" width=""540"" height = ""360"" style=""border:16px solid orange"">",null,,,,,,,,
null,,html-keyboard-response,162,255141,0.0-162.0,31LM9EDVOMEL1TA4LTGMI90I0FOJNM,A11FFJZ0C984W4,30OITAWPBQP2Z1DQ5HPUZCTXABIH90,,,null,,,,,,,,
799,,image-keyboard-response,163,255941,0.0-163.0,31LM9EDVOMEL1TA4LTGMI90I0FOJNM,A11FFJZ0C984W4,30OITAWPBQP2Z1DQ5HPUZCTXABIH90,,img/set1/S1.jpg,83,1,random,83,"random,structured_normal,structured_incentive","2,3,1,2",TRUE,,
null,,html-keyboard-response,164,256302,0.0-164.0,31LM9EDVOMEL1TA4LTGMI90I0FOJNM,A11FFJZ0C984W4,30OITAWPBQP2Z1DQ5HPUZCTXABIH90,,"<img src=""img/set1/S1.jpg"" width=""540"" height = ""360"" style=""border:16px solid orange"">",null,,,,,,,,
null,,html-keyboard-response,165,256505,0.0-165.0,31LM9EDVOMEL1TA4LTGMI90I0FOJNM,A11FFJZ0C984W4,30OITAWPBQP2Z1DQ5HPUZCTXABIH90,,,null,,,,,,,,
748,,image-keyboard-response,166,257254,0.0-166.0,31LM9EDVOMEL1TA4LTGMI90I0FOJNM,A11FFJZ0C984W4,30OITAWPBQP2Z1DQ5HPUZCTXABIH90,,img/set1/S2.jpg,68,2,random,68,"random,structured_normal,structured_incentive","2,3,1,2",TRUE,,
null,,html-keyboard-response,167,257610,0.0-167.0,31LM9EDVOMEL1TA4LTGMI90I0FOJNM,A11FFJZ0C984W4,30OITAWPBQP2Z1DQ5HPUZCTXABIH90,,"<img src=""img/set1/S2.jpg"" width=""540"" height = ""360"" style=""border:16px solid orange"">",null,,,,,,,,
null,,html-keyboard-response,168,257825,0.0-168.0,31LM9EDVOMEL1TA4LTGMI90I0FOJNM,A11FFJZ0C984W4,30OITAWPBQP2Z1DQ5HPUZCTXABIH90,,,null,,,,,,,,
855,,image-keyboard-response,169,258681,0.0-169.0,31LM9EDVOMEL1TA4LTGMI90I0FOJNM,A11FFJZ0C984W4,30OITAWPBQP2Z1DQ5HPUZCTXABIH90,,img/set1/S3.jpg,72,3,random,72,"random,structured_normal,structured_incentive","2,3,1,2",TRUE,,
null,,html-keyboard-response,170,259039,0.0-170.0,31LM9EDVOMEL1TA4LTGMI90I0FOJNM,A11FFJZ0C984W4,30OITAWPBQP2Z1DQ5HPUZCTXABIH90,,"<img src=""img/set1/S3.jpg"" width=""540"" height = ""360"" style=""border:16px solid orange"">",null,,,,,,,,
null,,html-keyboard-response,171,259242,0.0-171.0,31LM9EDVOMEL1TA4LTGMI90I0FOJNM,A11FFJZ0C984W4,30OITAWPBQP2Z1DQ5HPUZCTXABIH90,,,null,,,,,,,,
711,,image-keyboard-response,172,259953,0.0-172.0,31LM9EDVOMEL1TA4LTGMI90I0FOJNM,A11FFJZ0C984W4,30OITAWPBQP2Z1DQ5HPUZCTXABIH90,,img/set1/S4.jpg,74,4,random,74,"random,structured_normal,structured_incentive","2,3,1,2",TRUE,,
null,,html-keyboard-response,173,260315,0.0-173.0,31LM9EDVOMEL1TA4LTGMI90I0FOJNM,A11FFJZ0C984W4,30OITAWPBQP2Z1DQ5HPUZCTXABIH90,,"<img src=""img/set1/S4.jpg"" width=""540"" height = ""360"" style=""border:16px solid orange"">",null,,,,,,,,
null,,html-keyboard-response,174,260515,0.0-174.0,31LM9EDVOMEL1TA4LTGMI90I0FOJNM,A11FFJZ0C984W4,30OITAWPBQP2Z1DQ5HPUZCTXABIH90,,,null,,,,,,,,
758,,image-keyboard-response,175,261275,0.0-175.0,31LM9EDVOMEL1TA4LTGMI90I0FOJNM,A11FFJZ0C984W4,30OITAWPBQP2Z1DQ5HPUZCTXABIH90,,img/set1/S1.jpg,83,1,random,83,"random,structured_normal,structured_incentive","2,3,1,2",TRUE,,
null,,html-keyboard-response,176,261635,0.0-176.0,31LM9EDVOMEL1TA4LTGMI90I0FOJNM,A11FFJZ0C984W4,30OITAWPBQP2Z1DQ5HPUZCTXABIH90,,"<img src=""img/set1/S1.jpg"" width=""540"" height = ""360"" style=""border:16px solid orange"">",null,,,,,,,,
null,,html-keyboard-response,177,261838,0.0-177.0,31LM9EDVOMEL1TA4LTGMI90I0FOJNM,A11FFJZ0C984W4,30OITAWPBQP2Z1DQ5HPUZCTXABIH90,,,null,,,,,,,,
757,,image-keyboard-response,178,262596,0.0-178.0,31LM9EDVOMEL1TA4LTGMI90I0FOJNM,A11FFJZ0C984W4,30OITAWPBQP2Z1DQ5HPUZCTXABIH90,,img/set1/S4.jpg,74,4,random,74,"random,structured_normal,structured_incentive","2,3,1,2",TRUE,,
null,,html-keyboard-response,179,262956,0.0-179.0,31LM9EDVOMEL1TA4LTGMI90I0FOJNM,A11FFJZ0C984W4,30OITAWPBQP2Z1DQ5HPUZCTXABIH90,,"<img src=""img/set1/S4.jpg"" width=""540"" height = ""360"" style=""border:16px solid orange"">",null,,,,,,,,
null,,html-keyboard-response,180,263159,0.0-180.0,31LM9EDVOMEL1TA4LTGMI90I0FOJNM,A11FFJZ0C984W4,30OITAWPBQP2Z1DQ5HPUZCTXABIH90,,,null,,,,,,,,
1156,,image-keyboard-response,181,264315,0.0-181.0,31LM9EDVOMEL1TA4LTGMI90I0FOJNM,A11FFJZ0C984W4,30OITAWPBQP2Z1DQ5HPUZCTXABIH90,,img/set1/S2.jpg,68,2,random,68,"random,structured_normal,structured_incentive","2,3,1,2",TRUE,,
null,,html-keyboard-response,182,264669,0.0-182.0,31LM9EDVOMEL1TA4LTGMI90I0FOJNM,A11FFJZ0C984W4,30OITAWPBQP2Z1DQ5HPUZCTXABIH90,,"<img src=""img/set1/S2.jpg"" width=""540"" height = ""360"" style=""border:16px solid orange"">",null,,,,,,,,
null,,html-keyboard-response,183,264870,0.0-183.0,31LM9EDVOMEL1TA4LTGMI90I0FOJNM,A11FFJZ0C984W4,30OITAWPBQP2Z1DQ5HPUZCTXABIH90,,,null,,,,,,,,
936,,image-keyboard-response,184,265807,0.0-184.0,31LM9EDVOMEL1TA4LTGMI90I0FOJNM,A11FFJZ0C984W4,30OITAWPBQP2Z1DQ5HPUZCTXABIH90,,img/set1/S4.jpg,74,4,random,74,"random,structured_normal,structured_incentive","2,3,1,2",TRUE,,
null,,html-keyboard-response,185,266165,0.0-185.0,31LM9EDVOMEL1TA4LTGMI90I0FOJNM,A11FFJZ0C984W4,30OITAWPBQP2Z1DQ5HPUZCTXABIH90,,"<img src=""img/set1/S4.jpg"" width=""540"" height = ""360"" style=""border:16px solid orange"">",null,,,,,,,,
null,,html-keyboard-response,186,266368,0.0-186.0,31LM9EDVOMEL1TA4LTGMI90I0FOJNM,A11FFJZ0C984W4,30OITAWPBQP2Z1DQ5HPUZCTXABIH90,,,null,,,,,,,,
1696,,image-keyboard-response,187,268064,0.0-187.0,31LM9EDVOMEL1TA4LTGMI90I0FOJNM,A11FFJZ0C984W4,30OITAWPBQP2Z1DQ5HPUZCTXABIH90,,img/set1/S1.jpg,83,1,random,83,"random,structured_normal,structured_incentive","2,3,1,2",TRUE,,
null,,html-keyboard-response,188,268420,0.0-188.0,31LM9EDVOMEL1TA4LTGMI90I0FOJNM,A11FFJZ0C984W4,30OITAWPBQP2Z1DQ5HPUZCTXABIH90,,"<img src=""img/set1/S1.jpg"" width=""540"" height = ""360"" style=""border:16px solid orange"">",null,,,,,,,,
null,,html-keyboard-response,189,268624,0.0-189.0,31LM9EDVOMEL1TA4LTGMI90I0FOJNM,A11FFJZ0C984W4,30OITAWPBQP2Z1DQ5HPUZCTXABIH90,,,null,,,,,,,,
679,,image-keyboard-response,190,269303,0.0-190.0,31LM9EDVOMEL1TA4LTGMI90I0FOJNM,A11FFJZ0C984W4,30OITAWPBQP2Z1DQ5HPUZCTXABIH90,,img/set1/S2.jpg,68,2,random,68,"random,structured_normal,structured_incentive","2,3,1,2",TRUE,,
null,,html-keyboard-response,191,269666,0.0-191.0,31LM9EDVOMEL1TA4LTGMI90I0FOJNM,A11FFJZ0C984W4,30OITAWPBQP2Z1DQ5HPUZCTXABIH90,,"<img src=""img/set1/S2.jpg"" width=""540"" height = ""360"" style=""border:16px solid orange"">",null,,,,,,,,
null,,html-keyboard-response,192,269869,0.0-192.0,31LM9EDVOMEL1TA4LTGMI90I0FOJNM,A11FFJZ0C984W4,30OITAWPBQP2Z1DQ5HPUZCTXABIH90,,,null,,,,,,,,
666,,image-keyboard-response,193,270534,0.0-193.0,31LM9EDVOMEL1TA4LTGMI90I0FOJNM,A11FFJZ0C984W4,30OITAWPBQP2Z1DQ5HPUZCTXABIH90,,img/set1/S4.jpg,74,4,random,74,"random,structured_normal,structured_incentive","2,3,1,2",TRUE,,
null,,html-keyboard-response,194,270897,0.0-194.0,31LM9EDVOMEL1TA4LTGMI90I0FOJNM,A11FFJZ0C984W4,30OITAWPBQP2Z1DQ5HPUZCTXABIH90,,"<img src=""img/set1/S4.jpg"" width=""540"" height = ""360"" style=""border:16px solid orange"">",null,,,,,,,,
null,,html-keyboard-response,195,271099,0.0-195.0,31LM9EDVOMEL1TA4LTGMI90I0FOJNM,A11FFJZ0C984W4,30OITAWPBQP2Z1DQ5HPUZCTXABIH90,,,null,,,,,,,,
679,,image-keyboard-response,196,271778,0.0-196.0,31LM9EDVOMEL1TA4LTGMI90I0FOJNM,A11FFJZ0C984W4,30OITAWPBQP2Z1DQ5HPUZCTXABIH90,,img/set1/S1.jpg,83,1,random,83,"random,structured_normal,structured_incentive","2,3,1,2",TRUE,,
null,,html-keyboard-response,197,272141,0.0-197.0,31LM9EDVOMEL1TA4LTGMI90I0FOJNM,A11FFJZ0C984W4,30OITAWPBQP2Z1DQ5HPUZCTXABIH90,,"<img src=""img/set1/S1.jpg"" width=""540"" height = ""360"" style=""border:16px solid orange"">",null,,,,,,,,
null,,html-keyboard-response,198,272344,0.0-198.0,31LM9EDVOMEL1TA4LTGMI90I0FOJNM,A11FFJZ0C984W4,30OITAWPBQP2Z1DQ5HPUZCTXABIH90,,,null,,,,,,,,
1162,,image-keyboard-response,199,273507,0.0-199.0,31LM9EDVOMEL1TA4LTGMI90I0FOJNM,A11FFJZ0C984W4,30OITAWPBQP2Z1DQ5HPUZCTXABIH90,,img/set1/S3.jpg,72,3,random,72,"random,structured_normal,structured_incentive","2,3,1,2",TRUE,,
null,,html-keyboard-response,200,273867,0.0-200.0,31LM9EDVOMEL1TA4LTGMI90I0FOJNM,A11FFJZ0C984W4,30OITAWPBQP2Z1DQ5HPUZCTXABIH90,,"<img src=""img/set1/S3.jpg"" width=""540"" height = ""360"" style=""border:16px solid orange"">",null,,,,,,,,
null,,html-keyboard-response,201,274070,0.0-201.0,31LM9EDVOMEL1TA4LTGMI90I0FOJNM,A11FFJZ0C984W4,30OITAWPBQP2Z1DQ5HPUZCTXABIH90,,,null,,,,,,,,
562,,image-keyboard-response,202,274633,0.0-202.0,31LM9EDVOMEL1TA4LTGMI90I0FOJNM,A11FFJZ0C984W4,30OITAWPBQP2Z1DQ5HPUZCTXABIH90,,img/set1/S3.jpg,72,3,random,72,"random,structured_normal,structured_incentive","2,3,1,2",TRUE,,
null,,html-keyboard-response,203,274991,0.0-203.0,31LM9EDVOMEL1TA4LTGMI90I0FOJNM,A11FFJZ0C984W4,30OITAWPBQP2Z1DQ5HPUZCTXABIH90,,"<img src=""img/set1/S3.jpg"" width=""540"" height = ""360"" style=""border:16px solid orange"">",null,,,,,,,,
null,,html-keyboard-response,204,275206,0.0-204.0,31LM9EDVOMEL1TA4LTGMI90I0FOJNM,A11FFJZ0C984W4,30OITAWPBQP2Z1DQ5HPUZCTXABIH90,,,null,,,,,,,,
556,,image-keyboard-response,205,275763,0.0-205.0,31LM9EDVOMEL1TA4LTGMI90I0FOJNM,A11FFJZ0C984W4,30OITAWPBQP2Z1DQ5HPUZCTXABIH90,,img/set1/S3.jpg,72,3,random,72,"random,structured_normal,structured_incentive","2,3,1,2",TRUE,,
null,,html-keyboard-response,206,276119,0.0-206.0,31LM9EDVOMEL1TA4LTGMI90I0FOJNM,A11FFJZ0C984W4,30OITAWPBQP2Z1DQ5HPUZCTXABIH90,,"<img src=""img/set1/S3.jpg"" width=""540"" height = ""360"" style=""border:16px solid orange"">",null,,,,,,,,
null,,html-keyboard-response,207,276320,0.0-207.0,31LM9EDVOMEL1TA4LTGMI90I0FOJNM,A11FFJZ0C984W4,30OITAWPBQP2Z1DQ5HPUZCTXABIH90,,,null,,,,,,,,
624,,image-keyboard-response,208,276944,0.0-208.0,31LM9EDVOMEL1TA4LTGMI90I0FOJNM,A11FFJZ0C984W4,30OITAWPBQP2Z1DQ5HPUZCTXABIH90,,img/set1/S2.jpg,68,2,random,68,"random,structured_normal,structured_incentive","2,3,1,2",TRUE,,
null,,html-keyboard-response,209,277299,0.0-209.0,31LM9EDVOMEL1TA4LTGMI90I0FOJNM,A11FFJZ0C984W4,30OITAWPBQP2Z1DQ5HPUZCTXABIH90,,"<img src=""img/set1/S2.jpg"" width=""540"" height = ""360"" style=""border:16px solid orange"">",null,,,,,,,,
null,,html-keyboard-response,210,277501,0.0-210.0,31LM9EDVOMEL1TA4LTGMI90I0FOJNM,A11FFJZ0C984W4,30OITAWPBQP2Z1DQ5HPUZCTXABIH90,,,null,,,,,,,,
714,,image-keyboard-response,211,278216,0.0-211.0,31LM9EDVOMEL1TA4LTGMI90I0FOJNM,A11FFJZ0C984W4,30OITAWPBQP2Z1DQ5HPUZCTXABIH90,,img/set1/S1.jpg,83,1,random,83,"random,structured_normal,structured_incentive","2,3,1,2",TRUE,,
null,,html-keyboard-response,212,278570,0.0-212.0,31LM9EDVOMEL1TA4LTGMI90I0FOJNM,A11FFJZ0C984W4,30OITAWPBQP2Z1DQ5HPUZCTXABIH90,,"<img src=""img/set1/S1.jpg"" width=""540"" height = ""360"" style=""border:16px solid orange"">",null,,,,,,,,
null,,html-keyboard-response,213,278771,0.0-213.0,31LM9EDVOMEL1TA4LTGMI90I0FOJNM,A11FFJZ0C984W4,30OITAWPBQP2Z1DQ5HPUZCTXABIH90,,,null,,,,,,,,
806,,image-keyboard-response,214,279578,0.0-214.0,31LM9EDVOMEL1TA4LTGMI90I0FOJNM,A11FFJZ0C984W4,30OITAWPBQP2Z1DQ5HPUZCTXABIH90,,img/set1/S3.jpg,72,3,random,72,"random,structured_normal,structured_incentive","2,3,1,2",TRUE,,
null,,html-keyboard-response,215,279934,0.0-215.0,31LM9EDVOMEL1TA4LTGMI90I0FOJNM,A11FFJZ0C984W4,30OITAWPBQP2Z1DQ5HPUZCTXABIH90,,"<img src=""img/set1/S3.jpg"" width=""540"" height = ""360"" style=""border:16px solid orange"">",null,,,,,,,,
null,,html-keyboard-response,216,280137,0.0-216.0,31LM9EDVOMEL1TA4LTGMI90I0FOJNM,A11FFJZ0C984W4,30OITAWPBQP2Z1DQ5HPUZCTXABIH90,,,null,,,,,,,,
659,,image-keyboard-response,217,280796,0.0-217.0,31LM9EDVOMEL1TA4LTGMI90I0FOJNM,A11FFJZ0C984W4,30OITAWPBQP2Z1DQ5HPUZCTXABIH90,,img/set1/S4.jpg,74,4,random,74,"random,structured_normal,structured_incentive","2,3,1,2",TRUE,,
null,,html-keyboard-response,218,281157,0.0-218.0,31LM9EDVOMEL1TA4LTGMI90I0FOJNM,A11FFJZ0C984W4,30OITAWPBQP2Z1DQ5HPUZCTXABIH90,,"<img src=""img/set1/S4.jpg"" width=""540"" height = ""360"" style=""border:16px solid orange"">",null,,,,,,,,
null,,html-keyboard-response,219,281359,0.0-219.0,31LM9EDVOMEL1TA4LTGMI90I0FOJNM,A11FFJZ0C984W4,30OITAWPBQP2Z1DQ5HPUZCTXABIH90,,,null,,,,,,,,
687,,image-keyboard-response,220,282045,0.0-220.0,31LM9EDVOMEL1TA4LTGMI90I0FOJNM,A11FFJZ0C984W4,30OITAWPBQP2Z1DQ5HPUZCTXABIH90,,img/set1/S2.jpg,68,2,random,68,"random,structured_normal,structured_incentive","2,3,1,2",TRUE,,
null,,html-keyboard-response,221,282399,0.0-221.0,31LM9EDVOMEL1TA4LTGMI90I0FOJNM,A11FFJZ0C984W4,30OITAWPBQP2Z1DQ5HPUZCTXABIH90,,"<img src=""img/set1/S2.jpg"" width=""540"" height = ""360"" style=""border:16px solid orange"">",null,,,,,,,,
null,,html-keyboard-response,222,282604,0.0-222.0,31LM9EDVOMEL1TA4LTGMI90I0FOJNM,A11FFJZ0C984W4,30OITAWPBQP2Z1DQ5HPUZCTXABIH90,,,null,,,,,,,,
771,,image-keyboard-response,223,283377,0.0-223.0,31LM9EDVOMEL1TA4LTGMI90I0FOJNM,A11FFJZ0C984W4,30OITAWPBQP2Z1DQ5HPUZCTXABIH90,,img/set1/S4.jpg,74,4,random,74,"random,structured_normal,structured_incentive","2,3,1,2",TRUE,,
null,,html-keyboard-response,224,283739,0.0-224.0,31LM9EDVOMEL1TA4LTGMI90I0FOJNM,A11FFJZ0C984W4,30OITAWPBQP2Z1DQ5HPUZCTXABIH90,,"<img src=""img/set1/S4.jpg"" width=""540"" height = ""360"" style=""border:16px solid orange"">",null,,,,,,,,
null,,html-keyboard-response,225,283942,0.0-225.0,31LM9EDVOMEL1TA4LTGMI90I0FOJNM,A11FFJZ0C984W4,30OITAWPBQP2Z1DQ5HPUZCTXABIH90,,,null,,,,,,,,
693,,image-keyboard-response,226,284635,0.0-226.0,31LM9EDVOMEL1TA4LTGMI90I0FOJNM,A11FFJZ0C984W4,30OITAWPBQP2Z1DQ5HPUZCTXABIH90,,img/set1/S1.jpg,83,1,random,83,"random,structured_normal,structured_incentive","2,3,1,2",TRUE,,
null,,html-keyboard-response,227,284999,0.0-227.0,31LM9EDVOMEL1TA4LTGMI90I0FOJNM,A11FFJZ0C984W4,30OITAWPBQP2Z1DQ5HPUZCTXABIH90,,"<img src=""img/set1/S1.jpg"" width=""540"" height = ""360"" style=""border:16px solid orange"">",null,,,,,,,,
null,,html-keyboard-response,228,285200,0.0-228.0,31LM9EDVOMEL1TA4LTGMI90I0FOJNM,A11FFJZ0C984W4,30OITAWPBQP2Z1DQ5HPUZCTXABIH90,,,null,,,,,,,,
646,,image-keyboard-response,229,285848,0.0-229.0,31LM9EDVOMEL1TA4LTGMI90I0FOJNM,A11FFJZ0C984W4,30OITAWPBQP2Z1DQ5HPUZCTXABIH90,,img/set1/S1.jpg,83,1,random,83,"random,structured_normal,structured_incentive","2,3,1,2",TRUE,,
null,,html-keyboard-response,230,286207,0.0-230.0,31LM9EDVOMEL1TA4LTGMI90I0FOJNM,A11FFJZ0C984W4,30OITAWPBQP2Z1DQ5HPUZCTXABIH90,,"<img src=""img/set1/S1.jpg"" width=""540"" height = ""360"" style=""border:16px solid orange"">",null,,,,,,,,
null,,html-keyboard-response,231,286410,0.0-231.0,31LM9EDVOMEL1TA4LTGMI90I0FOJNM,A11FFJZ0C984W4,30OITAWPBQP2Z1DQ5HPUZCTXABIH90,,,null,,,,,,,,
645,,image-keyboard-response,232,287055,0.0-232.0,31LM9EDVOMEL1TA4LTGMI90I0FOJNM,A11FFJZ0C984W4,30OITAWPBQP2Z1DQ5HPUZCTXABIH90,,img/set1/S1.jpg,83,1,random,83,"random,structured_normal,structured_incentive","2,3,1,2",TRUE,,
null,,html-keyboard-response,233,287418,0.0-233.0,31LM9EDVOMEL1TA4LTGMI90I0FOJNM,A11FFJZ0C984W4,30OITAWPBQP2Z1DQ5HPUZCTXABIH90,,"<img src=""img/set1/S1.jpg"" width=""540"" height = ""360"" style=""border:16px solid orange"">",null,,,,,,,,
null,,html-keyboard-response,234,287619,0.0-234.0,31LM9EDVOMEL1TA4LTGMI90I0FOJNM,A11FFJZ0C984W4,30OITAWPBQP2Z1DQ5HPUZCTXABIH90,,,null,,,,,,,,
668,,image-keyboard-response,235,288288,0.0-235.0,31LM9EDVOMEL1TA4LTGMI90I0FOJNM,A11FFJZ0C984W4,30OITAWPBQP2Z1DQ5HPUZCTXABIH90,,img/set1/S1.jpg,83,1,random,83,"random,structured_normal,structured_incentive","2,3,1,2",TRUE,,
null,,html-keyboard-response,236,288648,0.0-236.0,31LM9EDVOMEL1TA4LTGMI90I0FOJNM,A11FFJZ0C984W4,30OITAWPBQP2Z1DQ5HPUZCTXABIH90,,"<img src=""img/set1/S1.jpg"" width=""540"" height = ""360"" style=""border:16px solid orange"">",null,,,,,,,,
null,,html-keyboard-response,237,288851,0.0-237.0,31LM9EDVOMEL1TA4LTGMI90I0FOJNM,A11FFJZ0C984W4,30OITAWPBQP2Z1DQ5HPUZCTXABIH90,,,null,,,,,,,,
728,,image-keyboard-response,238,289578,0.0-238.0,31LM9EDVOMEL1TA4LTGMI90I0FOJNM,A11FFJZ0C984W4,30OITAWPBQP2Z1DQ5HPUZCTXABIH90,,img/set1/S3.jpg,72,3,random,72,"random,structured_normal,structured_incentive","2,3,1,2",TRUE,,
null,,html-keyboard-response,239,289935,0.0-239.0,31LM9EDVOMEL1TA4LTGMI90I0FOJNM,A11FFJZ0C984W4,30OITAWPBQP2Z1DQ5HPUZCTXABIH90,,"<img src=""img/set1/S3.jpg"" width=""540"" height = ""360"" style=""border:16px solid orange"">",null,,,,,,,,
null,,html-keyboard-response,240,290139,0.0-240.0,31LM9EDVOMEL1TA4LTGMI90I0FOJNM,A11FFJZ0C984W4,30OITAWPBQP2Z1DQ5HPUZCTXABIH90,,,null,,,,,,,,
655,,image-keyboard-response,241,290795,0.0-241.0,31LM9EDVOMEL1TA4LTGMI90I0FOJNM,A11FFJZ0C984W4,30OITAWPBQP2Z1DQ5HPUZCTXABIH90,,img/set1/S2.jpg,68,2,random,68,"random,structured_normal,structured_incentive","2,3,1,2",TRUE,,
null,,html-keyboard-response,242,291149,0.0-242.0,31LM9EDVOMEL1TA4LTGMI90I0FOJNM,A11FFJZ0C984W4,30OITAWPBQP2Z1DQ5HPUZCTXABIH90,,"<img src=""img/set1/S2.jpg"" width=""540"" height = ""360"" style=""border:16px solid orange"">",null,,,,,,,,
null,,html-keyboard-response,243,291352,0.0-243.0,31LM9EDVOMEL1TA4LTGMI90I0FOJNM,A11FFJZ0C984W4,30OITAWPBQP2Z1DQ5HPUZCTXABIH90,,,null,,,,,,,,
709,,image-keyboard-response,244,292062,0.0-244.0,31LM9EDVOMEL1TA4LTGMI90I0FOJNM,A11FFJZ0C984W4,30OITAWPBQP2Z1DQ5HPUZCTXABIH90,,img/set1/S1.jpg,83,1,random,83,"random,structured_normal,structured_incentive","2,3,1,2",TRUE,,
null,,html-keyboard-response,245,292422,0.0-245.0,31LM9EDVOMEL1TA4LTGMI90I0FOJNM,A11FFJZ0C984W4,30OITAWPBQP2Z1DQ5HPUZCTXABIH90,,"<img src=""img/set1/S1.jpg"" width=""540"" height = ""360"" style=""border:16px solid orange"">",null,,,,,,,,
null,,html-keyboard-response,246,292623,0.0-246.0,31LM9EDVOMEL1TA4LTGMI90I0FOJNM,A11FFJZ0C984W4,30OITAWPBQP2Z1DQ5HPUZCTXABIH90,,,null,,,,,,,,
596,,image-keyboard-response,247,293221,0.0-247.0,31LM9EDVOMEL1TA4LTGMI90I0FOJNM,A11FFJZ0C984W4,30OITAWPBQP2Z1DQ5HPUZCTXABIH90,,img/set1/S1.jpg,83,1,random,83,"random,structured_normal,structured_incentive","2,3,1,2",TRUE,,
null,,html-keyboard-response,248,293585,0.0-248.0,31LM9EDVOMEL1TA4LTGMI90I0FOJNM,A11FFJZ0C984W4,30OITAWPBQP2Z1DQ5HPUZCTXABIH90,,"<img src=""img/set1/S1.jpg"" width=""540"" height = ""360"" style=""border:16px solid orange"">",null,,,,,,,,
null,,html-keyboard-response,249,293786,0.0-249.0,31LM9EDVOMEL1TA4LTGMI90I0FOJNM,A11FFJZ0C984W4,30OITAWPBQP2Z1DQ5HPUZCTXABIH90,,,null,,,,,,,,
546,,image-keyboard-response,250,294333,0.0-250.0,31LM9EDVOMEL1TA4LTGMI90I0FOJNM,A11FFJZ0C984W4,30OITAWPBQP2Z1DQ5HPUZCTXABIH90,,img/set1/S1.jpg,83,1,random,83,"random,structured_normal,structured_incentive","2,3,1,2",TRUE,,
null,,html-keyboard-response,251,294685,0.0-251.0,31LM9EDVOMEL1TA4LTGMI90I0FOJNM,A11FFJZ0C984W4,30OITAWPBQP2Z1DQ5HPUZCTXABIH90,,"<img src=""img/set1/S1.jpg"" width=""540"" height = ""360"" style=""border:16px solid orange"">",null,,,,,,,,
null,,html-keyboard-response,252,294888,0.0-252.0,31LM9EDVOMEL1TA4LTGMI90I0FOJNM,A11FFJZ0C984W4,30OITAWPBQP2Z1DQ5HPUZCTXABIH90,,,null,,,,,,,,
620,,image-keyboard-response,253,295509,0.0-253.0,31LM9EDVOMEL1TA4LTGMI90I0FOJNM,A11FFJZ0C984W4,30OITAWPBQP2Z1DQ5HPUZCTXABIH90,,img/set1/S4.jpg,74,4,random,74,"random,structured_normal,structured_incentive","2,3,1,2",TRUE,,
null,,html-keyboard-response,254,295868,0.0-254.0,31LM9EDVOMEL1TA4LTGMI90I0FOJNM,A11FFJZ0C984W4,30OITAWPBQP2Z1DQ5HPUZCTXABIH90,,"<img src=""img/set1/S4.jpg"" width=""540"" height = ""360"" style=""border:16px solid orange"">",null,,,,,,,,
null,,html-keyboard-response,255,296083,0.0-255.0,31LM9EDVOMEL1TA4LTGMI90I0FOJNM,A11FFJZ0C984W4,30OITAWPBQP2Z1DQ5HPUZCTXABIH90,,,null,,,,,,,,
587,,image-keyboard-response,256,296671,0.0-256.0,31LM9EDVOMEL1TA4LTGMI90I0FOJNM,A11FFJZ0C984W4,30OITAWPBQP2Z1DQ5HPUZCTXABIH90,,img/set1/S3.jpg,72,3,random,72,"random,structured_normal,structured_incentive","2,3,1,2",TRUE,,
null,,html-keyboard-response,257,297028,0.0-257.0,31LM9EDVOMEL1TA4LTGMI90I0FOJNM,A11FFJZ0C984W4,30OITAWPBQP2Z1DQ5HPUZCTXABIH90,,"<img src=""img/set1/S3.jpg"" width=""540"" height = ""360"" style=""border:16px solid orange"">",null,,,,,,,,
null,,html-keyboard-response,258,297232,0.0-258.0,31LM9EDVOMEL1TA4LTGMI90I0FOJNM,A11FFJZ0C984W4,30OITAWPBQP2Z1DQ5HPUZCTXABIH90,,,null,,,,,,,,
641,,image-keyboard-response,259,297874,0.0-259.0,31LM9EDVOMEL1TA4LTGMI90I0FOJNM,A11FFJZ0C984W4,30OITAWPBQP2Z1DQ5HPUZCTXABIH90,,img/set1/S4.jpg,74,4,random,74,"random,structured_normal,structured_incentive","2,3,1,2",TRUE,,
null,,html-keyboard-response,260,298227,0.0-260.0,31LM9EDVOMEL1TA4LTGMI90I0FOJNM,A11FFJZ0C984W4,30OITAWPBQP2Z1DQ5HPUZCTXABIH90,,"<img src=""img/set1/S4.jpg"" width=""540"" height = ""360"" style=""border:16px solid orange"">",null,,,,,,,,
null,,html-keyboard-response,261,298427,0.0-261.0,31LM9EDVOMEL1TA4LTGMI90I0FOJNM,A11FFJZ0C984W4,30OITAWPBQP2Z1DQ5HPUZCTXABIH90,,,null,,,,,,,,
635,,image-keyboard-response,262,299064,0.0-262.0,31LM9EDVOMEL1TA4LTGMI90I0FOJNM,A11FFJZ0C984W4,30OITAWPBQP2Z1DQ5HPUZCTXABIH90,,img/set1/S2.jpg,68,2,random,68,"random,structured_normal,structured_incentive","2,3,1,2",TRUE,,
null,,html-keyboard-response,263,299425,0.0-263.0,31LM9EDVOMEL1TA4LTGMI90I0FOJNM,A11FFJZ0C984W4,30OITAWPBQP2Z1DQ5HPUZCTXABIH90,,"<img src=""img/set1/S2.jpg"" width=""540"" height = ""360"" style=""border:16px solid orange"">",null,,,,,,,,
null,,html-keyboard-response,264,299626,0.0-264.0,31LM9EDVOMEL1TA4LTGMI90I0FOJNM,A11FFJZ0C984W4,30OITAWPBQP2Z1DQ5HPUZCTXABIH90,,,null,,,,,,,,
623,,image-keyboard-response,265,300248,0.0-265.0,31LM9EDVOMEL1TA4LTGMI90I0FOJNM,A11FFJZ0C984W4,30OITAWPBQP2Z1DQ5HPUZCTXABIH90,,img/set1/S3.jpg,72,3,random,72,"random,structured_normal,structured_incentive","2,3,1,2",TRUE,,
null,,html-keyboard-response,266,300606,0.0-266.0,31LM9EDVOMEL1TA4LTGMI90I0FOJNM,A11FFJZ0C984W4,30OITAWPBQP2Z1DQ5HPUZCTXABIH90,,"<img src=""img/set1/S3.jpg"" width=""540"" height = ""360"" style=""border:16px solid orange"">",null,,,,,,,,
null,,html-keyboard-response,267,300807,0.0-267.0,31LM9EDVOMEL1TA4LTGMI90I0FOJNM,A11FFJZ0C984W4,30OITAWPBQP2Z1DQ5HPUZCTXABIH90,,,null,,,,,,,,
594,,image-keyboard-response,268,301403,0.0-268.0,31LM9EDVOMEL1TA4LTGMI90I0FOJNM,A11FFJZ0C984W4,30OITAWPBQP2Z1DQ5HPUZCTXABIH90,,img/set1/S1.jpg,83,1,random,83,"random,structured_normal,structured_incentive","2,3,1,2",TRUE,,
null,,html-keyboard-response,269,301757,0.0-269.0,31LM9EDVOMEL1TA4LTGMI90I0FOJNM,A11FFJZ0C984W4,30OITAWPBQP2Z1DQ5HPUZCTXABIH90,,"<img src=""img/set1/S1.jpg"" width=""540"" height = ""360"" style=""border:16px solid orange"">",null,,,,,,,,
null,,html-keyboard-response,270,301959,0.0-270.0,31LM9EDVOMEL1TA4LTGMI90I0FOJNM,A11FFJZ0C984W4,30OITAWPBQP2Z1DQ5HPUZCTXABIH90,,,null,,,,,,,,
633,,image-keyboard-response,271,302593,0.0-271.0,31LM9EDVOMEL1TA4LTGMI90I0FOJNM,A11FFJZ0C984W4,30OITAWPBQP2Z1DQ5HPUZCTXABIH90,,img/set1/S2.jpg,68,2,random,68,"random,structured_normal,structured_incentive","2,3,1,2",TRUE,,
null,,html-keyboard-response,272,302953,0.0-272.0,31LM9EDVOMEL1TA4LTGMI90I0FOJNM,A11FFJZ0C984W4,30OITAWPBQP2Z1DQ5HPUZCTXABIH90,,"<img src=""img/set1/S2.jpg"" width=""540"" height = ""360"" style=""border:16px solid orange"">",null,,,,,,,,
null,,html-keyboard-response,273,303155,0.0-273.0,31LM9EDVOMEL1TA4LTGMI90I0FOJNM,A11FFJZ0C984W4,30OITAWPBQP2Z1DQ5HPUZCTXABIH90,,,null,,,,,,,,
551,,image-keyboard-response,274,303706,0.0-274.0,31LM9EDVOMEL1TA4LTGMI90I0FOJNM,A11FFJZ0C984W4,30OITAWPBQP2Z1DQ5HPUZCTXABIH90,,img/set1/S2.jpg,68,2,random,68,"random,structured_normal,structured_incentive","2,3,1,2",TRUE,,
null,,html-keyboard-response,275,304063,0.0-275.0,31LM9EDVOMEL1TA4LTGMI90I0FOJNM,A11FFJZ0C984W4,30OITAWPBQP2Z1DQ5HPUZCTXABIH90,,"<img src=""img/set1/S2.jpg"" width=""540"" height = ""360"" style=""border:16px solid orange"">",null,,,,,,,,
null,,html-keyboard-response,276,304265,0.0-276.0,31LM9EDVOMEL1TA4LTGMI90I0FOJNM,A11FFJZ0C984W4,30OITAWPBQP2Z1DQ5HPUZCTXABIH90,,,null,,,,,,,,
657,,image-keyboard-response,277,304923,0.0-277.0,31LM9EDVOMEL1TA4LTGMI90I0FOJNM,A11FFJZ0C984W4,30OITAWPBQP2Z1DQ5HPUZCTXABIH90,,img/set1/S1.jpg,83,1,random,83,"random,structured_normal,structured_incentive","2,3,1,2",TRUE,,
null,,html-keyboard-response,278,305276,0.0-278.0,31LM9EDVOMEL1TA4LTGMI90I0FOJNM,A11FFJZ0C984W4,30OITAWPBQP2Z1DQ5HPUZCTXABIH90,,"<img src=""img/set1/S1.jpg"" width=""540"" height = ""360"" style=""border:16px solid orange"">",null,,,,,,,,
null,,html-keyboard-response,279,305477,0.0-279.0,31LM9EDVOMEL1TA4LTGMI90I0FOJNM,A11FFJZ0C984W4,30OITAWPBQP2Z1DQ5HPUZCTXABIH90,,,null,,,,,,,,
523,,image-keyboard-response,280,306000,0.0-280.0,31LM9EDVOMEL1TA4LTGMI90I0FOJNM,A11FFJZ0C984W4,30OITAWPBQP2Z1DQ5HPUZCTXABIH90,,img/set1/S3.jpg,72,3,random,72,"random,structured_normal,structured_incentive","2,3,1,2",TRUE,,
null,,html-keyboard-response,281,306360,0.0-281.0,31LM9EDVOMEL1TA4LTGMI90I0FOJNM,A11FFJZ0C984W4,30OITAWPBQP2Z1DQ5HPUZCTXABIH90,,"<img src=""img/set1/S3.jpg"" width=""540"" height = ""360"" style=""border:16px solid orange"">",null,,,,,,,,
null,,html-keyboard-response,282,306561,0.0-282.0,31LM9EDVOMEL1TA4LTGMI90I0FOJNM,A11FFJZ0C984W4,30OITAWPBQP2Z1DQ5HPUZCTXABIH90,,,null,,,,,,,,
664,,image-keyboard-response,283,307226,0.0-283.0,31LM9EDVOMEL1TA4LTGMI90I0FOJNM,A11FFJZ0C984W4,30OITAWPBQP2Z1DQ5HPUZCTXABIH90,,img/set1/S2.jpg,68,2,random,68,"random,structured_normal,structured_incentive","2,3,1,2",TRUE,,
null,,html-keyboard-response,284,307586,0.0-284.0,31LM9EDVOMEL1TA4LTGMI90I0FOJNM,A11FFJZ0C984W4,30OITAWPBQP2Z1DQ5HPUZCTXABIH90,,"<img src=""img/set1/S2.jpg"" width=""540"" height = ""360"" style=""border:16px solid orange"">",null,,,,,,,,
null,,html-keyboard-response,285,307788,0.0-285.0,31LM9EDVOMEL1TA4LTGMI90I0FOJNM,A11FFJZ0C984W4,30OITAWPBQP2Z1DQ5HPUZCTXABIH90,,,null,,,,,,,,
682,,image-keyboard-response,286,308471,0.0-286.0,31LM9EDVOMEL1TA4LTGMI90I0FOJNM,A11FFJZ0C984W4,30OITAWPBQP2Z1DQ5HPUZCTXABIH90,,img/set1/S2.jpg,68,2,random,68,"random,structured_normal,structured_incentive","2,3,1,2",TRUE,,
null,,html-keyboard-response,287,308828,0.0-287.0,31LM9EDVOMEL1TA4LTGMI90I0FOJNM,A11FFJZ0C984W4,30OITAWPBQP2Z1DQ5HPUZCTXABIH90,,"<img src=""img/set1/S2.jpg"" width=""540"" height = ""360"" style=""border:16px solid orange"">",null,,,,,,,,
null,,html-keyboard-response,288,309033,0.0-288.0,31LM9EDVOMEL1TA4LTGMI90I0FOJNM,A11FFJZ0C984W4,30OITAWPBQP2Z1DQ5HPUZCTXABIH90,,,null,,,,,,,,
617,,image-keyboard-response,289,309650,0.0-289.0,31LM9EDVOMEL1TA4LTGMI90I0FOJNM,A11FFJZ0C984W4,30OITAWPBQP2Z1DQ5HPUZCTXABIH90,,img/set1/S1.jpg,83,1,random,83,"random,structured_normal,structured_incentive","2,3,1,2",TRUE,,
null,,html-keyboard-response,290,310015,0.0-290.0,31LM9EDVOMEL1TA4LTGMI90I0FOJNM,A11FFJZ0C984W4,30OITAWPBQP2Z1DQ5HPUZCTXABIH90,,"<img src=""img/set1/S1.jpg"" width=""540"" height = ""360"" style=""border:16px solid orange"">",null,,,,,,,,
null,,html-keyboard-response,291,310216,0.0-291.0,31LM9EDVOMEL1TA4LTGMI90I0FOJNM,A11FFJZ0C984W4,30OITAWPBQP2Z1DQ5HPUZCTXABIH90,,,null,,,,,,,,
582,,image-keyboard-response,292,310800,0.0-292.0,31LM9EDVOMEL1TA4LTGMI90I0FOJNM,A11FFJZ0C984W4,30OITAWPBQP2Z1DQ5HPUZCTXABIH90,,img/set1/S4.jpg,74,4,random,74,"random,structured_normal,structured_incentive","2,3,1,2",TRUE,,
null,,html-keyboard-response,293,311162,0.0-293.0,31LM9EDVOMEL1TA4LTGMI90I0FOJNM,A11FFJZ0C984W4,30OITAWPBQP2Z1DQ5HPUZCTXABIH90,,"<img src=""img/set1/S4.jpg"" width=""540"" height = ""360"" style=""border:16px solid orange"">",null,,,,,,,,
null,,html-keyboard-response,294,311362,0.0-294.0,31LM9EDVOMEL1TA4LTGMI90I0FOJNM,A11FFJZ0C984W4,30OITAWPBQP2Z1DQ5HPUZCTXABIH90,,,null,,,,,,,,
562,,image-keyboard-response,295,311926,0.0-295.0,31LM9EDVOMEL1TA4LTGMI90I0FOJNM,A11FFJZ0C984W4,30OITAWPBQP2Z1DQ5HPUZCTXABIH90,,img/set1/S4.jpg,74,4,random,74,"random,structured_normal,structured_incentive","2,3,1,2",TRUE,,
null,,html-keyboard-response,296,312289,0.0-296.0,31LM9EDVOMEL1TA4LTGMI90I0FOJNM,A11FFJZ0C984W4,30OITAWPBQP2Z1DQ5HPUZCTXABIH90,,"<img src=""img/set1/S4.jpg"" width=""540"" height = ""360"" style=""border:16px solid orange"">",null,,,,,,,,
null,,html-keyboard-response,297,312490,0.0-297.0,31LM9EDVOMEL1TA4LTGMI90I0FOJNM,A11FFJZ0C984W4,30OITAWPBQP2Z1DQ5HPUZCTXABIH90,,,null,,,,,,,,
616,,image-keyboard-response,298,313106,0.0-298.0,31LM9EDVOMEL1TA4LTGMI90I0FOJNM,A11FFJZ0C984W4,30OITAWPBQP2Z1DQ5HPUZCTXABIH90,,img/set1/S1.jpg,83,1,random,83,"random,structured_normal,structured_incentive","2,3,1,2",TRUE,,
null,,html-keyboard-response,299,313467,0.0-299.0,31LM9EDVOMEL1TA4LTGMI90I0FOJNM,A11FFJZ0C984W4,30OITAWPBQP2Z1DQ5HPUZCTXABIH90,,"<img src=""img/set1/S1.jpg"" width=""540"" height = ""360"" style=""border:16px solid orange"">",null,,,,,,,,
null,,html-keyboard-response,300,313669,0.0-300.0,31LM9EDVOMEL1TA4LTGMI90I0FOJNM,A11FFJZ0C984W4,30OITAWPBQP2Z1DQ5HPUZCTXABIH90,,,null,,,,,,,,
531,,image-keyboard-response,301,314201,0.0-301.0,31LM9EDVOMEL1TA4LTGMI90I0FOJNM,A11FFJZ0C984W4,30OITAWPBQP2Z1DQ5HPUZCTXABIH90,,img/set1/S2.jpg,68,2,random,68,"random,structured_normal,structured_incentive","2,3,1,2",TRUE,,
null,,html-keyboard-response,302,314554,0.0-302.0,31LM9EDVOMEL1TA4LTGMI90I0FOJNM,A11FFJZ0C984W4,30OITAWPBQP2Z1DQ5HPUZCTXABIH90,,"<img src=""img/set1/S2.jpg"" width=""540"" height = ""360"" style=""border:16px solid orange"">",null,,,,,,,,
null,,html-keyboard-response,303,314756,0.0-303.0,31LM9EDVOMEL1TA4LTGMI90I0FOJNM,A11FFJZ0C984W4,30OITAWPBQP2Z1DQ5HPUZCTXABIH90,,,null,,,,,,,,
570,,image-keyboard-response,304,315326,0.0-304.0,31LM9EDVOMEL1TA4LTGMI90I0FOJNM,A11FFJZ0C984W4,30OITAWPBQP2Z1DQ5HPUZCTXABIH90,,img/set1/S1.jpg,68,1,random,83,"random,structured_normal,structured_incentive","2,3,1,2",FALSE,,
null,,html-keyboard-response,305,315689,0.0-305.0,31LM9EDVOMEL1TA4LTGMI90I0FOJNM,A11FFJZ0C984W4,30OITAWPBQP2Z1DQ5HPUZCTXABIH90,,"<img src=""img/set1/S1.jpg"" width=""540"" height = ""360"">",null,,,,,,,,
null,,html-keyboard-response,306,315892,0.0-306.0,31LM9EDVOMEL1TA4LTGMI90I0FOJNM,A11FFJZ0C984W4,30OITAWPBQP2Z1DQ5HPUZCTXABIH90,,,null,,,,,,,,
861,,image-keyboard-response,307,316753,0.0-307.0,31LM9EDVOMEL1TA4LTGMI90I0FOJNM,A11FFJZ0C984W4,30OITAWPBQP2Z1DQ5HPUZCTXABIH90,,img/set1/S2.jpg,68,2,random,68,"random,structured_normal,structured_incentive","2,3,1,2",TRUE,,
null,,html-keyboard-response,308,317116,0.0-308.0,31LM9EDVOMEL1TA4LTGMI90I0FOJNM,A11FFJZ0C984W4,30OITAWPBQP2Z1DQ5HPUZCTXABIH90,,"<img src=""img/set1/S2.jpg"" width=""540"" height = ""360"" style=""border:16px solid orange"">",null,,,,,,,,
null,,html-keyboard-response,309,317318,0.0-309.0,31LM9EDVOMEL1TA4LTGMI90I0FOJNM,A11FFJZ0C984W4,30OITAWPBQP2Z1DQ5HPUZCTXABIH90,,,null,,,,,,,,
646,,image-keyboard-response,310,317965,0.0-310.0,31LM9EDVOMEL1TA4LTGMI90I0FOJNM,A11FFJZ0C984W4,30OITAWPBQP2Z1DQ5HPUZCTXABIH90,,img/set1/S3.jpg,72,3,random,72,"random,structured_normal,structured_incentive","2,3,1,2",TRUE,,
null,,html-keyboard-response,311,318329,0.0-311.0,31LM9EDVOMEL1TA4LTGMI90I0FOJNM,A11FFJZ0C984W4,30OITAWPBQP2Z1DQ5HPUZCTXABIH90,,"<img src=""img/set1/S3.jpg"" width=""540"" height = ""360"" style=""border:16px solid orange"">",null,,,,,,,,
null,,html-keyboard-response,312,318533,0.0-312.0,31LM9EDVOMEL1TA4LTGMI90I0FOJNM,A11FFJZ0C984W4,30OITAWPBQP2Z1DQ5HPUZCTXABIH90,,,null,,,,,,,,
586,,image-keyboard-response,313,319119,0.0-313.0,31LM9EDVOMEL1TA4LTGMI90I0FOJNM,A11FFJZ0C984W4,30OITAWPBQP2Z1DQ5HPUZCTXABIH90,,img/set1/S3.jpg,72,3,random,72,"random,structured_normal,structured_incentive","2,3,1,2",TRUE,,
null,,html-keyboard-response,314,319484,0.0-314.0,31LM9EDVOMEL1TA4LTGMI90I0FOJNM,A11FFJZ0C984W4,30OITAWPBQP2Z1DQ5HPUZCTXABIH90,,"<img src=""img/set1/S3.jpg"" width=""540"" height = ""360"" style=""border:16px solid orange"">",null,,,,,,,,
null,,html-keyboard-response,315,319685,0.0-315.0,31LM9EDVOMEL1TA4LTGMI90I0FOJNM,A11FFJZ0C984W4,30OITAWPBQP2Z1DQ5HPUZCTXABIH90,,,null,,,,,,,,
649,,image-keyboard-response,316,320336,0.0-316.0,31LM9EDVOMEL1TA4LTGMI90I0FOJNM,A11FFJZ0C984W4,30OITAWPBQP2Z1DQ5HPUZCTXABIH90,,img/set1/S1.jpg,83,1,random,83,"random,structured_normal,structured_incentive","2,3,1,2",TRUE,,
null,,html-keyboard-response,317,320697,0.0-317.0,31LM9EDVOMEL1TA4LTGMI90I0FOJNM,A11FFJZ0C984W4,30OITAWPBQP2Z1DQ5HPUZCTXABIH90,,"<img src=""img/set1/S1.jpg"" width=""540"" height = ""360"" style=""border:16px solid orange"">",null,,,,,,,,
null,,html-keyboard-response,318,320897,0.0-318.0,31LM9EDVOMEL1TA4LTGMI90I0FOJNM,A11FFJZ0C984W4,30OITAWPBQP2Z1DQ5HPUZCTXABIH90,,,null,,,,,,,,
677,,image-keyboard-response,319,321574,0.0-319.0,31LM9EDVOMEL1TA4LTGMI90I0FOJNM,A11FFJZ0C984W4,30OITAWPBQP2Z1DQ5HPUZCTXABIH90,,img/set1/S3.jpg,72,3,random,72,"random,structured_normal,structured_incentive","2,3,1,2",TRUE,,
null,,html-keyboard-response,320,321928,0.0-320.0,31LM9EDVOMEL1TA4LTGMI90I0FOJNM,A11FFJZ0C984W4,30OITAWPBQP2Z1DQ5HPUZCTXABIH90,,"<img src=""img/set1/S3.jpg"" width=""540"" height = ""360"" style=""border:16px solid orange"">",null,,,,,,,,
null,,html-keyboard-response,321,322131,0.0-321.0,31LM9EDVOMEL1TA4LTGMI90I0FOJNM,A11FFJZ0C984W4,30OITAWPBQP2Z1DQ5HPUZCTXABIH90,,,null,,,,,,,,
646,,image-keyboard-response,322,322777,0.0-322.0,31LM9EDVOMEL1TA4LTGMI90I0FOJNM,A11FFJZ0C984W4,30OITAWPBQP2Z1DQ5HPUZCTXABIH90,,img/set1/S2.jpg,68,2,random,68,"random,structured_normal,structured_incentive","2,3,1,2",TRUE,,
null,,html-keyboard-response,323,323140,0.0-323.0,31LM9EDVOMEL1TA4LTGMI90I0FOJNM,A11FFJZ0C984W4,30OITAWPBQP2Z1DQ5HPUZCTXABIH90,,"<img src=""img/set1/S2.jpg"" width=""540"" height = ""360"" style=""border:16px solid orange"">",null,,,,,,,,
null,,html-keyboard-response,324,323341,0.0-324.0,31LM9EDVOMEL1TA4LTGMI90I0FOJNM,A11FFJZ0C984W4,30OITAWPBQP2Z1DQ5HPUZCTXABIH90,,,null,,,,,,,,
648,,image-keyboard-response,325,323991,0.0-325.0,31LM9EDVOMEL1TA4LTGMI90I0FOJNM,A11FFJZ0C984W4,30OITAWPBQP2Z1DQ5HPUZCTXABIH90,,img/set1/S4.jpg,74,4,random,74,"random,structured_normal,structured_incentive","2,3,1,2",TRUE,,
null,,html-keyboard-response,326,324352,0.0-326.0,31LM9EDVOMEL1TA4LTGMI90I0FOJNM,A11FFJZ0C984W4,30OITAWPBQP2Z1DQ5HPUZCTXABIH90,,"<img src=""img/set1/S4.jpg"" width=""540"" height = ""360"" style=""border:16px solid orange"">",null,,,,,,,,
null,,html-keyboard-response,327,324556,0.0-327.0,31LM9EDVOMEL1TA4LTGMI90I0FOJNM,A11FFJZ0C984W4,30OITAWPBQP2Z1DQ5HPUZCTXABIH90,,,null,,,,,,,,
739,,image-keyboard-response,328,325294,0.0-328.0,31LM9EDVOMEL1TA4LTGMI90I0FOJNM,A11FFJZ0C984W4,30OITAWPBQP2Z1DQ5HPUZCTXABIH90,,img/set1/S1.jpg,83,1,random,83,"random,structured_normal,structured_incentive","2,3,1,2",TRUE,,
null,,html-keyboard-response,329,325653,0.0-329.0,31LM9EDVOMEL1TA4LTGMI90I0FOJNM,A11FFJZ0C984W4,30OITAWPBQP2Z1DQ5HPUZCTXABIH90,,"<img src=""img/set1/S1.jpg"" width=""540"" height = ""360"" style=""border:16px solid orange"">",null,,,,,,,,
null,,html-keyboard-response,330,325855,0.0-330.0,31LM9EDVOMEL1TA4LTGMI90I0FOJNM,A11FFJZ0C984W4,30OITAWPBQP2Z1DQ5HPUZCTXABIH90,,,null,,,,,,,,
597,,image-keyboard-response,331,326452,0.0-331.0,31LM9EDVOMEL1TA4LTGMI90I0FOJNM,A11FFJZ0C984W4,30OITAWPBQP2Z1DQ5HPUZCTXABIH90,,img/set1/S3.jpg,72,3,random,72,"random,structured_normal,structured_incentive","2,3,1,2",TRUE,,
null,,html-keyboard-response,332,326805,0.0-332.0,31LM9EDVOMEL1TA4LTGMI90I0FOJNM,A11FFJZ0C984W4,30OITAWPBQP2Z1DQ5HPUZCTXABIH90,,"<img src=""img/set1/S3.jpg"" width=""540"" height = ""360"" style=""border:16px solid orange"">",null,,,,,,,,
null,,html-keyboard-response,333,327008,0.0-333.0,31LM9EDVOMEL1TA4LTGMI90I0FOJNM,A11FFJZ0C984W4,30OITAWPBQP2Z1DQ5HPUZCTXABIH90,,,null,,,,,,,,
948,,image-keyboard-response,334,327956,0.0-334.0,31LM9EDVOMEL1TA4LTGMI90I0FOJNM,A11FFJZ0C984W4,30OITAWPBQP2Z1DQ5HPUZCTXABIH90,,img/set1/S2.jpg,68,2,random,68,"random,structured_normal,structured_incentive","2,3,1,2",TRUE,,
null,,html-keyboard-response,335,328314,0.0-335.0,31LM9EDVOMEL1TA4LTGMI90I0FOJNM,A11FFJZ0C984W4,30OITAWPBQP2Z1DQ5HPUZCTXABIH90,,"<img src=""img/set1/S2.jpg"" width=""540"" height = ""360"" style=""border:16px solid orange"">",null,,,,,,,,
null,,html-keyboard-response,336,328515,0.0-336.0,31LM9EDVOMEL1TA4LTGMI90I0FOJNM,A11FFJZ0C984W4,30OITAWPBQP2Z1DQ5HPUZCTXABIH90,,,null,,,,,,,,
555,,image-keyboard-response,337,329071,0.0-337.0,31LM9EDVOMEL1TA4LTGMI90I0FOJNM,A11FFJZ0C984W4,30OITAWPBQP2Z1DQ5HPUZCTXABIH90,,img/set1/S2.jpg,68,2,random,68,"random,structured_normal,structured_incentive","2,3,1,2",TRUE,,
null,,html-keyboard-response,338,329431,0.0-338.0,31LM9EDVOMEL1TA4LTGMI90I0FOJNM,A11FFJZ0C984W4,30OITAWPBQP2Z1DQ5HPUZCTXABIH90,,"<img src=""img/set1/S2.jpg"" width=""540"" height = ""360"" style=""border:16px solid orange"">",null,,,,,,,,
null,,html-keyboard-response,339,329636,0.0-339.0,31LM9EDVOMEL1TA4LTGMI90I0FOJNM,A11FFJZ0C984W4,30OITAWPBQP2Z1DQ5HPUZCTXABIH90,,,null,,,,,,,,
493,,image-keyboard-response,340,330128,0.0-340.0,31LM9EDVOMEL1TA4LTGMI90I0FOJNM,A11FFJZ0C984W4,30OITAWPBQP2Z1DQ5HPUZCTXABIH90,,img/set1/S2.jpg,68,2,random,68,"random,structured_normal,structured_incentive","2,3,1,2",TRUE,,
null,,html-keyboard-response,341,330488,0.0-341.0,31LM9EDVOMEL1TA4LTGMI90I0FOJNM,A11FFJZ0C984W4,30OITAWPBQP2Z1DQ5HPUZCTXABIH90,,"<img src=""img/set1/S2.jpg"" width=""540"" height = ""360"" style=""border:16px solid orange"">",null,,,,,,,,
null,,html-keyboard-response,342,330692,0.0-342.0,31LM9EDVOMEL1TA4LTGMI90I0FOJNM,A11FFJZ0C984W4,30OITAWPBQP2Z1DQ5HPUZCTXABIH90,,,null,,,,,,,,
558,,image-keyboard-response,343,331251,0.0-343.0,31LM9EDVOMEL1TA4LTGMI90I0FOJNM,A11FFJZ0C984W4,30OITAWPBQP2Z1DQ5HPUZCTXABIH90,,img/set1/S1.jpg,83,1,random,83,"random,structured_normal,structured_incentive","2,3,1,2",TRUE,,
null,,html-keyboard-response,344,331608,0.0-344.0,31LM9EDVOMEL1TA4LTGMI90I0FOJNM,A11FFJZ0C984W4,30OITAWPBQP2Z1DQ5HPUZCTXABIH90,,"<img src=""img/set1/S1.jpg"" width=""540"" height = ""360"" style=""border:16px solid orange"">",null,,,,,,,,
null,,html-keyboard-response,345,331810,0.0-345.0,31LM9EDVOMEL1TA4LTGMI90I0FOJNM,A11FFJZ0C984W4,30OITAWPBQP2Z1DQ5HPUZCTXABIH90,,,null,,,,,,,,
648,,image-keyboard-response,346,332459,0.0-346.0,31LM9EDVOMEL1TA4LTGMI90I0FOJNM,A11FFJZ0C984W4,30OITAWPBQP2Z1DQ5HPUZCTXABIH90,,img/set1/S2.jpg,68,2,random,68,"random,structured_normal,structured_incentive","2,3,1,2",TRUE,,
null,,html-keyboard-response,347,332824,0.0-347.0,31LM9EDVOMEL1TA4LTGMI90I0FOJNM,A11FFJZ0C984W4,30OITAWPBQP2Z1DQ5HPUZCTXABIH90,,"<img src=""img/set1/S2.jpg"" width=""540"" height = ""360"" style=""border:16px solid orange"">",null,,,,,,,,
null,,html-keyboard-response,348,333026,0.0-348.0,31LM9EDVOMEL1TA4LTGMI90I0FOJNM,A11FFJZ0C984W4,30OITAWPBQP2Z1DQ5HPUZCTXABIH90,,,null,,,,,,,,
640,,image-keyboard-response,349,333667,0.0-349.0,31LM9EDVOMEL1TA4LTGMI90I0FOJNM,A11FFJZ0C984W4,30OITAWPBQP2Z1DQ5HPUZCTXABIH90,,img/set1/S1.jpg,83,1,random,83,"random,structured_normal,structured_incentive","2,3,1,2",TRUE,,
null,,html-keyboard-response,350,334024,0.0-350.0,31LM9EDVOMEL1TA4LTGMI90I0FOJNM,A11FFJZ0C984W4,30OITAWPBQP2Z1DQ5HPUZCTXABIH90,,"<img src=""img/set1/S1.jpg"" width=""540"" height = ""360"" style=""border:16px solid orange"">",null,,,,,,,,
null,,html-keyboard-response,351,334226,0.0-351.0,31LM9EDVOMEL1TA4LTGMI90I0FOJNM,A11FFJZ0C984W4,30OITAWPBQP2Z1DQ5HPUZCTXABIH90,,,null,,,,,,,,
653,,image-keyboard-response,352,334880,0.0-352.0,31LM9EDVOMEL1TA4LTGMI90I0FOJNM,A11FFJZ0C984W4,30OITAWPBQP2Z1DQ5HPUZCTXABIH90,,img/set1/S1.jpg,83,1,random,83,"random,structured_normal,structured_incentive","2,3,1,2",TRUE,,
null,,html-keyboard-response,353,335234,0.0-353.0,31LM9EDVOMEL1TA4LTGMI90I0FOJNM,A11FFJZ0C984W4,30OITAWPBQP2Z1DQ5HPUZCTXABIH90,,"<img src=""img/set1/S1.jpg"" width=""540"" height = ""360"" style=""border:16px solid orange"">",null,,,,,,,,
null,,html-keyboard-response,354,335436,0.0-354.0,31LM9EDVOMEL1TA4LTGMI90I0FOJNM,A11FFJZ0C984W4,30OITAWPBQP2Z1DQ5HPUZCTXABIH90,,,null,,,,,,,,
760,,image-keyboard-response,355,336196,0.0-355.0,31LM9EDVOMEL1TA4LTGMI90I0FOJNM,A11FFJZ0C984W4,30OITAWPBQP2Z1DQ5HPUZCTXABIH90,,img/set1/S2.jpg,68,2,random,68,"random,structured_normal,structured_incentive","2,3,1,2",TRUE,,
null,,html-keyboard-response,356,336557,0.0-356.0,31LM9EDVOMEL1TA4LTGMI90I0FOJNM,A11FFJZ0C984W4,30OITAWPBQP2Z1DQ5HPUZCTXABIH90,,"<img src=""img/set1/S2.jpg"" width=""540"" height = ""360"" style=""border:16px solid orange"">",null,,,,,,,,
null,,html-keyboard-response,357,336760,0.0-357.0,31LM9EDVOMEL1TA4LTGMI90I0FOJNM,A11FFJZ0C984W4,30OITAWPBQP2Z1DQ5HPUZCTXABIH90,,,null,,,,,,,,
612,,image-keyboard-response,358,337372,0.0-358.0,31LM9EDVOMEL1TA4LTGMI90I0FOJNM,A11FFJZ0C984W4,30OITAWPBQP2Z1DQ5HPUZCTXABIH90,,img/set1/S3.jpg,72,3,random,72,"random,structured_normal,structured_incentive","2,3,1,2",TRUE,,
null,,html-keyboard-response,359,337727,0.0-359.0,31LM9EDVOMEL1TA4LTGMI90I0FOJNM,A11FFJZ0C984W4,30OITAWPBQP2Z1DQ5HPUZCTXABIH90,,"<img src=""img/set1/S3.jpg"" width=""540"" height = ""360"" style=""border:16px solid orange"">",null,,,,,,,,
null,,html-keyboard-response,360,337929,0.0-360.0,31LM9EDVOMEL1TA4LTGMI90I0FOJNM,A11FFJZ0C984W4,30OITAWPBQP2Z1DQ5HPUZCTXABIH90,,,null,,,,,,,,
729,,image-keyboard-response,361,338658,0.0-361.0,31LM9EDVOMEL1TA4LTGMI90I0FOJNM,A11FFJZ0C984W4,30OITAWPBQP2Z1DQ5HPUZCTXABIH90,,img/set1/S2.jpg,68,2,random,68,"random,structured_normal,structured_incentive","2,3,1,2",TRUE,,
null,,html-keyboard-response,362,339016,0.0-362.0,31LM9EDVOMEL1TA4LTGMI90I0FOJNM,A11FFJZ0C984W4,30OITAWPBQP2Z1DQ5HPUZCTXABIH90,,"<img src=""img/set1/S2.jpg"" width=""540"" height = ""360"" style=""border:16px solid orange"">",null,,,,,,,,
null,,html-keyboard-response,363,339218,0.0-363.0,31LM9EDVOMEL1TA4LTGMI90I0FOJNM,A11FFJZ0C984W4,30OITAWPBQP2Z1DQ5HPUZCTXABIH90,,,null,,,,,,,,
726,,image-keyboard-response,364,339944,0.0-364.0,31LM9EDVOMEL1TA4LTGMI90I0FOJNM,A11FFJZ0C984W4,30OITAWPBQP2Z1DQ5HPUZCTXABIH90,,img/set1/S1.jpg,83,1,random,83,"random,structured_normal,structured_incentive","2,3,1,2",TRUE,,
null,,html-keyboard-response,365,340304,0.0-365.0,31LM9EDVOMEL1TA4LTGMI90I0FOJNM,A11FFJZ0C984W4,30OITAWPBQP2Z1DQ5HPUZCTXABIH90,,"<img src=""img/set1/S1.jpg"" width=""540"" height = ""360"" style=""border:16px solid orange"">",null,,,,,,,,
null,,html-keyboard-response,366,340508,0.0-366.0,31LM9EDVOMEL1TA4LTGMI90I0FOJNM,A11FFJZ0C984W4,30OITAWPBQP2Z1DQ5HPUZCTXABIH90,,,null,,,,,,,,
648,,image-keyboard-response,367,341157,0.0-367.0,31LM9EDVOMEL1TA4LTGMI90I0FOJNM,A11FFJZ0C984W4,30OITAWPBQP2Z1DQ5HPUZCTXABIH90,,img/set1/S1.jpg,83,1,random,83,"random,structured_normal,structured_incentive","2,3,1,2",TRUE,,
null,,html-keyboard-response,368,341518,0.0-368.0,31LM9EDVOMEL1TA4LTGMI90I0FOJNM,A11FFJZ0C984W4,30OITAWPBQP2Z1DQ5HPUZCTXABIH90,,"<img src=""img/set1/S1.jpg"" width=""540"" height = ""360"" style=""border:16px solid orange"">",null,,,,,,,,
null,,html-keyboard-response,369,341719,0.0-369.0,31LM9EDVOMEL1TA4LTGMI90I0FOJNM,A11FFJZ0C984W4,30OITAWPBQP2Z1DQ5HPUZCTXABIH90,,,null,,,,,,,,
617,,image-keyboard-response,370,342338,0.0-370.0,31LM9EDVOMEL1TA4LTGMI90I0FOJNM,A11FFJZ0C984W4,30OITAWPBQP2Z1DQ5HPUZCTXABIH90,,img/set1/S1.jpg,83,1,random,83,"random,structured_normal,structured_incentive","2,3,1,2",TRUE,,
null,,html-keyboard-response,371,342696,0.0-371.0,31LM9EDVOMEL1TA4LTGMI90I0FOJNM,A11FFJZ0C984W4,30OITAWPBQP2Z1DQ5HPUZCTXABIH90,,"<img src=""img/set1/S1.jpg"" width=""540"" height = ""360"" style=""border:16px solid orange"">",null,,,,,,,,
null,,html-keyboard-response,372,342899,0.0-372.0,31LM9EDVOMEL1TA4LTGMI90I0FOJNM,A11FFJZ0C984W4,30OITAWPBQP2Z1DQ5HPUZCTXABIH90,,,null,,,,,,,,
727,,image-keyboard-response,373,343627,0.0-373.0,31LM9EDVOMEL1TA4LTGMI90I0FOJNM,A11FFJZ0C984W4,30OITAWPBQP2Z1DQ5HPUZCTXABIH90,,img/set1/S2.jpg,68,2,random,68,"random,structured_normal,structured_incentive","2,3,1,2",TRUE,,
null,,html-keyboard-response,374,343989,0.0-374.0,31LM9EDVOMEL1TA4LTGMI90I0FOJNM,A11FFJZ0C984W4,30OITAWPBQP2Z1DQ5HPUZCTXABIH90,,"<img src=""img/set1/S2.jpg"" width=""540"" height = ""360"" style=""border:16px solid orange"">",null,,,,,,,,
null,,html-keyboard-response,375,344190,0.0-375.0,31LM9EDVOMEL1TA4LTGMI90I0FOJNM,A11FFJZ0C984W4,30OITAWPBQP2Z1DQ5HPUZCTXABIH90,,,null,,,,,,,,
626,,image-keyboard-response,376,344817,0.0-376.0,31LM9EDVOMEL1TA4LTGMI90I0FOJNM,A11FFJZ0C984W4,30OITAWPBQP2Z1DQ5HPUZCTXABIH90,,img/set1/S4.jpg,74,4,random,74,"random,structured_normal,structured_incentive","2,3,1,2",TRUE,,
null,,html-keyboard-response,377,345170,0.0-377.0,31LM9EDVOMEL1TA4LTGMI90I0FOJNM,A11FFJZ0C984W4,30OITAWPBQP2Z1DQ5HPUZCTXABIH90,,"<img src=""img/set1/S4.jpg"" width=""540"" height = ""360"" style=""border:16px solid orange"">",null,,,,,,,,
null,,html-keyboard-response,378,345373,0.0-378.0,31LM9EDVOMEL1TA4LTGMI90I0FOJNM,A11FFJZ0C984W4,30OITAWPBQP2Z1DQ5HPUZCTXABIH90,,,null,,,,,,,,
692,,image-keyboard-response,379,346065,0.0-379.0,31LM9EDVOMEL1TA4LTGMI90I0FOJNM,A11FFJZ0C984W4,30OITAWPBQP2Z1DQ5HPUZCTXABIH90,,img/set1/S1.jpg,83,1,random,83,"random,structured_normal,structured_incentive","2,3,1,2",TRUE,,
null,,html-keyboard-response,380,346417,0.0-380.0,31LM9EDVOMEL1TA4LTGMI90I0FOJNM,A11FFJZ0C984W4,30OITAWPBQP2Z1DQ5HPUZCTXABIH90,,"<img src=""img/set1/S1.jpg"" width=""540"" height = ""360"" style=""border:16px solid orange"">",null,,,,,,,,
null,,html-keyboard-response,381,346632,0.0-381.0,31LM9EDVOMEL1TA4LTGMI90I0FOJNM,A11FFJZ0C984W4,30OITAWPBQP2Z1DQ5HPUZCTXABIH90,,,null,,,,,,,,
727,,image-keyboard-response,382,347361,0.0-382.0,31LM9EDVOMEL1TA4LTGMI90I0FOJNM,A11FFJZ0C984W4,30OITAWPBQP2Z1DQ5HPUZCTXABIH90,,img/set1/S4.jpg,74,4,random,74,"random,structured_normal,structured_incentive","2,3,1,2",TRUE,,
null,,html-keyboard-response,383,347716,0.0-383.0,31LM9EDVOMEL1TA4LTGMI90I0FOJNM,A11FFJZ0C984W4,30OITAWPBQP2Z1DQ5HPUZCTXABIH90,,"<img src=""img/set1/S4.jpg"" width=""540"" height = ""360"" style=""border:16px solid orange"">",null,,,,,,,,
null,,html-keyboard-response,384,347919,0.0-384.0,31LM9EDVOMEL1TA4LTGMI90I0FOJNM,A11FFJZ0C984W4,30OITAWPBQP2Z1DQ5HPUZCTXABIH90,,,null,,,,,,,,
589,,image-keyboard-response,385,348508,0.0-385.0,31LM9EDVOMEL1TA4LTGMI90I0FOJNM,A11FFJZ0C984W4,30OITAWPBQP2Z1DQ5HPUZCTXABIH90,,img/set1/S4.jpg,74,4,random,74,"random,structured_normal,structured_incentive","2,3,1,2",TRUE,,
null,,html-keyboard-response,386,348871,0.0-386.0,31LM9EDVOMEL1TA4LTGMI90I0FOJNM,A11FFJZ0C984W4,30OITAWPBQP2Z1DQ5HPUZCTXABIH90,,"<img src=""img/set1/S4.jpg"" width=""540"" height = ""360"" style=""border:16px solid orange"">",null,,,,,,,,
null,,html-keyboard-response,387,349074,0.0-387.0,31LM9EDVOMEL1TA4LTGMI90I0FOJNM,A11FFJZ0C984W4,30OITAWPBQP2Z1DQ5HPUZCTXABIH90,,,null,,,,,,,,
1347,,image-keyboard-response,388,350421,0.0-388.0,31LM9EDVOMEL1TA4LTGMI90I0FOJNM,A11FFJZ0C984W4,30OITAWPBQP2Z1DQ5HPUZCTXABIH90,,img/set1/S3.jpg,72,3,random,72,"random,structured_normal,structured_incentive","2,3,1,2",TRUE,,
null,,html-keyboard-response,389,350782,0.0-389.0,31LM9EDVOMEL1TA4LTGMI90I0FOJNM,A11FFJZ0C984W4,30OITAWPBQP2Z1DQ5HPUZCTXABIH90,,"<img src=""img/set1/S3.jpg"" width=""540"" height = ""360"" style=""border:16px solid orange"">",null,,,,,,,,
null,,html-keyboard-response,390,350985,0.0-390.0,31LM9EDVOMEL1TA4LTGMI90I0FOJNM,A11FFJZ0C984W4,30OITAWPBQP2Z1DQ5HPUZCTXABIH90,,,null,,,,,,,,
912,,image-keyboard-response,391,351899,0.0-391.0,31LM9EDVOMEL1TA4LTGMI90I0FOJNM,A11FFJZ0C984W4,30OITAWPBQP2Z1DQ5HPUZCTXABIH90,,img/set1/S1.jpg,83,1,random,83,"random,structured_normal,structured_incentive","2,3,1,2",TRUE,,
null,,html-keyboard-response,392,352261,0.0-392.0,31LM9EDVOMEL1TA4LTGMI90I0FOJNM,A11FFJZ0C984W4,30OITAWPBQP2Z1DQ5HPUZCTXABIH90,,"<img src=""img/set1/S1.jpg"" width=""540"" height = ""360"" style=""border:16px solid orange"">",null,,,,,,,,
null,,html-keyboard-response,393,352465,0.0-393.0,31LM9EDVOMEL1TA4LTGMI90I0FOJNM,A11FFJZ0C984W4,30OITAWPBQP2Z1DQ5HPUZCTXABIH90,,,null,,,,,,,,
601,,image-keyboard-response,394,353066,0.0-394.0,31LM9EDVOMEL1TA4LTGMI90I0FOJNM,A11FFJZ0C984W4,30OITAWPBQP2Z1DQ5HPUZCTXABIH90,,img/set1/S1.jpg,83,1,random,83,"random,structured_normal,structured_incentive","2,3,1,2",TRUE,,
null,,html-keyboard-response,395,353423,0.0-395.0,31LM9EDVOMEL1TA4LTGMI90I0FOJNM,A11FFJZ0C984W4,30OITAWPBQP2Z1DQ5HPUZCTXABIH90,,"<img src=""img/set1/S1.jpg"" width=""540"" height = ""360"" style=""border:16px solid orange"">",null,,,,,,,,
null,,html-keyboard-response,396,353625,0.0-396.0,31LM9EDVOMEL1TA4LTGMI90I0FOJNM,A11FFJZ0C984W4,30OITAWPBQP2Z1DQ5HPUZCTXABIH90,,,null,,,,,,,,
597,,image-keyboard-response,397,354223,0.0-397.0,31LM9EDVOMEL1TA4LTGMI90I0FOJNM,A11FFJZ0C984W4,30OITAWPBQP2Z1DQ5HPUZCTXABIH90,,img/set1/S1.jpg,83,1,random,83,"random,structured_normal,structured_incentive","2,3,1,2",TRUE,,
null,,html-keyboard-response,398,354575,0.0-398.0,31LM9EDVOMEL1TA4LTGMI90I0FOJNM,A11FFJZ0C984W4,30OITAWPBQP2Z1DQ5HPUZCTXABIH90,,"<img src=""img/set1/S1.jpg"" width=""540"" height = ""360"" style=""border:16px solid orange"">",null,,,,,,,,
null,,html-keyboard-response,399,354780,0.0-399.0,31LM9EDVOMEL1TA4LTGMI90I0FOJNM,A11FFJZ0C984W4,30OITAWPBQP2Z1DQ5HPUZCTXABIH90,,,null,,,,,,,,
744,,image-keyboard-response,400,355524,0.0-400.0,31LM9EDVOMEL1TA4LTGMI90I0FOJNM,A11FFJZ0C984W4,30OITAWPBQP2Z1DQ5HPUZCTXABIH90,,img/set1/S3.jpg,72,3,random,72,"random,structured_normal,structured_incentive","2,3,1,2",TRUE,,
null,,html-keyboard-response,401,355882,0.0-401.0,31LM9EDVOMEL1TA4LTGMI90I0FOJNM,A11FFJZ0C984W4,30OITAWPBQP2Z1DQ5HPUZCTXABIH90,,"<img src=""img/set1/S3.jpg"" width=""540"" height = ""360"" style=""border:16px solid orange"">",null,,,,,,,,
null,,html-keyboard-response,402,356083,0.0-402.0,31LM9EDVOMEL1TA4LTGMI90I0FOJNM,A11FFJZ0C984W4,30OITAWPBQP2Z1DQ5HPUZCTXABIH90,,,null,,,,,,,,
648,,image-keyboard-response,403,356732,0.0-403.0,31LM9EDVOMEL1TA4LTGMI90I0FOJNM,A11FFJZ0C984W4,30OITAWPBQP2Z1DQ5HPUZCTXABIH90,,img/set1/S1.jpg,83,1,random,83,"random,structured_normal,structured_incentive","2,3,1,2",TRUE,,
null,,html-keyboard-response,404,357091,0.0-404.0,31LM9EDVOMEL1TA4LTGMI90I0FOJNM,A11FFJZ0C984W4,30OITAWPBQP2Z1DQ5HPUZCTXABIH90,,"<img src=""img/set1/S1.jpg"" width=""540"" height = ""360"" style=""border:16px solid orange"">",null,,,,,,,,
null,,html-keyboard-response,405,357293,0.0-405.0,31LM9EDVOMEL1TA4LTGMI90I0FOJNM,A11FFJZ0C984W4,30OITAWPBQP2Z1DQ5HPUZCTXABIH90,,,null,,,,,,,,
700,,image-keyboard-response,406,357995,0.0-406.0,31LM9EDVOMEL1TA4LTGMI90I0FOJNM,A11FFJZ0C984W4,30OITAWPBQP2Z1DQ5HPUZCTXABIH90,,img/set1/S4.jpg,74,4,random,74,"random,structured_normal,structured_incentive","2,3,1,2",TRUE,,
null,,html-keyboard-response,407,358353,0.0-407.0,31LM9EDVOMEL1TA4LTGMI90I0FOJNM,A11FFJZ0C984W4,30OITAWPBQP2Z1DQ5HPUZCTXABIH90,,"<img src=""img/set1/S4.jpg"" width=""540"" height = ""360"" style=""border:16px solid orange"">",null,,,,,,,,
null,,html-keyboard-response,408,358556,0.0-408.0,31LM9EDVOMEL1TA4LTGMI90I0FOJNM,A11FFJZ0C984W4,30OITAWPBQP2Z1DQ5HPUZCTXABIH90,,,null,,,,,,,,
598,,image-keyboard-response,409,359153,0.0-409.0,31LM9EDVOMEL1TA4LTGMI90I0FOJNM,A11FFJZ0C984W4,30OITAWPBQP2Z1DQ5HPUZCTXABIH90,,img/set1/S4.jpg,74,4,random,74,"random,structured_normal,structured_incentive","2,3,1,2",TRUE,,
null,,html-keyboard-response,410,359516,0.0-410.0,31LM9EDVOMEL1TA4LTGMI90I0FOJNM,A11FFJZ0C984W4,30OITAWPBQP2Z1DQ5HPUZCTXABIH90,,"<img src=""img/set1/S4.jpg"" width=""540"" height = ""360"" style=""border:16px solid orange"">",null,,,,,,,,
null,,html-keyboard-response,411,359716,0.0-411.0,31LM9EDVOMEL1TA4LTGMI90I0FOJNM,A11FFJZ0C984W4,30OITAWPBQP2Z1DQ5HPUZCTXABIH90,,,null,,,,,,,,
730,,image-keyboard-response,412,360448,0.0-412.0,31LM9EDVOMEL1TA4LTGMI90I0FOJNM,A11FFJZ0C984W4,30OITAWPBQP2Z1DQ5HPUZCTXABIH90,,img/set1/S2.jpg,68,2,random,68,"random,structured_normal,structured_incentive","2,3,1,2",TRUE,,
null,,html-keyboard-response,413,360802,0.0-413.0,31LM9EDVOMEL1TA4LTGMI90I0FOJNM,A11FFJZ0C984W4,30OITAWPBQP2Z1DQ5HPUZCTXABIH90,,"<img src=""img/set1/S2.jpg"" width=""540"" height = ""360"" style=""border:16px solid orange"">",null,,,,,,,,
null,,html-keyboard-response,414,361004,0.0-414.0,31LM9EDVOMEL1TA4LTGMI90I0FOJNM,A11FFJZ0C984W4,30OITAWPBQP2Z1DQ5HPUZCTXABIH90,,,null,,,,,,,,
716,,image-keyboard-response,415,361721,0.0-415.0,31LM9EDVOMEL1TA4LTGMI90I0FOJNM,A11FFJZ0C984W4,30OITAWPBQP2Z1DQ5HPUZCTXABIH90,,img/set1/S4.jpg,74,4,random,74,"random,structured_normal,structured_incentive","2,3,1,2",TRUE,,
null,,html-keyboard-response,416,362078,0.0-416.0,31LM9EDVOMEL1TA4LTGMI90I0FOJNM,A11FFJZ0C984W4,30OITAWPBQP2Z1DQ5HPUZCTXABIH90,,"<img src=""img/set1/S4.jpg"" width=""540"" height = ""360"" style=""border:16px solid orange"">",null,,,,,,,,
null,,html-keyboard-response,417,362280,0.0-417.0,31LM9EDVOMEL1TA4LTGMI90I0FOJNM,A11FFJZ0C984W4,30OITAWPBQP2Z1DQ5HPUZCTXABIH90,,,null,,,,,,,,
677,,image-keyboard-response,418,362957,0.0-418.0,31LM9EDVOMEL1TA4LTGMI90I0FOJNM,A11FFJZ0C984W4,30OITAWPBQP2Z1DQ5HPUZCTXABIH90,,img/set1/S1.jpg,83,1,random,83,"random,structured_normal,structured_incentive","2,3,1,2",TRUE,,
null,,html-keyboard-response,419,363322,0.0-419.0,31LM9EDVOMEL1TA4LTGMI90I0FOJNM,A11FFJZ0C984W4,30OITAWPBQP2Z1DQ5HPUZCTXABIH90,,"<img src=""img/set1/S1.jpg"" width=""540"" height = ""360"" style=""border:16px solid orange"">",null,,,,,,,,
null,,html-keyboard-response,420,363523,0.0-420.0,31LM9EDVOMEL1TA4LTGMI90I0FOJNM,A11FFJZ0C984W4,30OITAWPBQP2Z1DQ5HPUZCTXABIH90,,,null,,,,,,,,
674,,image-keyboard-response,421,364196,0.0-421.0,31LM9EDVOMEL1TA4LTGMI90I0FOJNM,A11FFJZ0C984W4,30OITAWPBQP2Z1DQ5HPUZCTXABIH90,,img/set1/S1.jpg,83,1,random,83,"random,structured_normal,structured_incentive","2,3,1,2",TRUE,,
null,,html-keyboard-response,422,364552,0.0-422.0,31LM9EDVOMEL1TA4LTGMI90I0FOJNM,A11FFJZ0C984W4,30OITAWPBQP2Z1DQ5HPUZCTXABIH90,,"<img src=""img/set1/S1.jpg"" width=""540"" height = ""360"" style=""border:16px solid orange"">",null,,,,,,,,
null,,html-keyboard-response,423,364754,0.0-423.0,31LM9EDVOMEL1TA4LTGMI90I0FOJNM,A11FFJZ0C984W4,30OITAWPBQP2Z1DQ5HPUZCTXABIH90,,,null,,,,,,,,
697,,image-keyboard-response,424,365452,0.0-424.0,31LM9EDVOMEL1TA4LTGMI90I0FOJNM,A11FFJZ0C984W4,30OITAWPBQP2Z1DQ5HPUZCTXABIH90,,img/set1/S2.jpg,68,2,random,68,"random,structured_normal,structured_incentive","2,3,1,2",TRUE,,
null,,html-keyboard-response,425,365806,0.0-425.0,31LM9EDVOMEL1TA4LTGMI90I0FOJNM,A11FFJZ0C984W4,30OITAWPBQP2Z1DQ5HPUZCTXABIH90,,"<img src=""img/set1/S2.jpg"" width=""540"" height = ""360"" style=""border:16px solid orange"">",null,,,,,,,,
null,,html-keyboard-response,426,366011,0.0-426.0,31LM9EDVOMEL1TA4LTGMI90I0FOJNM,A11FFJZ0C984W4,30OITAWPBQP2Z1DQ5HPUZCTXABIH90,,,null,,,,,,,,
631,,image-keyboard-response,427,366642,0.0-427.0,31LM9EDVOMEL1TA4LTGMI90I0FOJNM,A11FFJZ0C984W4,30OITAWPBQP2Z1DQ5HPUZCTXABIH90,,img/set1/S3.jpg,72,3,random,72,"random,structured_normal,structured_incentive","2,3,1,2",TRUE,,
null,,html-keyboard-response,428,367005,0.0-428.0,31LM9EDVOMEL1TA4LTGMI90I0FOJNM,A11FFJZ0C984W4,30OITAWPBQP2Z1DQ5HPUZCTXABIH90,,"<img src=""img/set1/S3.jpg"" width=""540"" height = ""360"" style=""border:16px solid orange"">",null,,,,,,,,
null,,html-keyboard-response,429,367205,0.0-429.0,31LM9EDVOMEL1TA4LTGMI90I0FOJNM,A11FFJZ0C984W4,30OITAWPBQP2Z1DQ5HPUZCTXABIH90,,,null,,,,,,,,
679,,image-keyboard-response,430,367885,0.0-430.0,31LM9EDVOMEL1TA4LTGMI90I0FOJNM,A11FFJZ0C984W4,30OITAWPBQP2Z1DQ5HPUZCTXABIH90,,img/set1/S1.jpg,83,1,random,83,"random,structured_normal,structured_incentive","2,3,1,2",TRUE,,
null,,html-keyboard-response,431,368248,0.0-431.0,31LM9EDVOMEL1TA4LTGMI90I0FOJNM,A11FFJZ0C984W4,30OITAWPBQP2Z1DQ5HPUZCTXABIH90,,"<img src=""img/set1/S1.jpg"" width=""540"" height = ""360"" style=""border:16px solid orange"">",null,,,,,,,,
null,,html-keyboard-response,432,368449,0.0-432.0,31LM9EDVOMEL1TA4LTGMI90I0FOJNM,A11FFJZ0C984W4,30OITAWPBQP2Z1DQ5HPUZCTXABIH90,,,null,,,,,,,,
695,,image-keyboard-response,433,369145,0.0-433.0,31LM9EDVOMEL1TA4LTGMI90I0FOJNM,A11FFJZ0C984W4,30OITAWPBQP2Z1DQ5HPUZCTXABIH90,,img/set1/S3.jpg,72,3,random,72,"random,structured_normal,structured_incentive","2,3,1,2",TRUE,,
null,,html-keyboard-response,434,369507,0.0-434.0,31LM9EDVOMEL1TA4LTGMI90I0FOJNM,A11FFJZ0C984W4,30OITAWPBQP2Z1DQ5HPUZCTXABIH90,,"<img src=""img/set1/S3.jpg"" width=""540"" height = ""360"" style=""border:16px solid orange"">",null,,,,,,,,
null,,html-keyboard-response,435,369710,0.0-435.0,31LM9EDVOMEL1TA4LTGMI90I0FOJNM,A11FFJZ0C984W4,30OITAWPBQP2Z1DQ5HPUZCTXABIH90,,,null,,,,,,,,
708,,image-keyboard-response,436,370418,0.0-436.0,31LM9EDVOMEL1TA4LTGMI90I0FOJNM,A11FFJZ0C984W4,30OITAWPBQP2Z1DQ5HPUZCTXABIH90,,img/set1/S1.jpg,83,1,random,83,"random,structured_normal,structured_incentive","2,3,1,2",TRUE,,
null,,html-keyboard-response,437,370770,0.0-437.0,31LM9EDVOMEL1TA4LTGMI90I0FOJNM,A11FFJZ0C984W4,30OITAWPBQP2Z1DQ5HPUZCTXABIH90,,"<img src=""img/set1/S1.jpg"" width=""540"" height = ""360"" style=""border:16px solid orange"">",null,,,,,,,,
null,,html-keyboard-response,438,370972,0.0-438.0,31LM9EDVOMEL1TA4LTGMI90I0FOJNM,A11FFJZ0C984W4,30OITAWPBQP2Z1DQ5HPUZCTXABIH90,,,null,,,,,,,,
676,,image-keyboard-response,439,371649,0.0-439.0,31LM9EDVOMEL1TA4LTGMI90I0FOJNM,A11FFJZ0C984W4,30OITAWPBQP2Z1DQ5HPUZCTXABIH90,,img/set1/S3.jpg,72,3,random,72,"random,structured_normal,structured_incentive","2,3,1,2",TRUE,,
null,,html-keyboard-response,440,372014,0.0-440.0,31LM9EDVOMEL1TA4LTGMI90I0FOJNM,A11FFJZ0C984W4,30OITAWPBQP2Z1DQ5HPUZCTXABIH90,,"<img src=""img/set1/S3.jpg"" width=""540"" height = ""360"" style=""border:16px solid orange"">",null,,,,,,,,
null,,html-keyboard-response,441,372218,0.0-441.0,31LM9EDVOMEL1TA4LTGMI90I0FOJNM,A11FFJZ0C984W4,30OITAWPBQP2Z1DQ5HPUZCTXABIH90,,,null,,,,,,,,
580,,image-keyboard-response,442,372798,0.0-442.0,31LM9EDVOMEL1TA4LTGMI90I0FOJNM,A11FFJZ0C984W4,30OITAWPBQP2Z1DQ5HPUZCTXABIH90,,img/set1/S3.jpg,72,3,random,72,"random,structured_normal,structured_incentive","2,3,1,2",TRUE,,
null,,html-keyboard-response,443,373151,0.0-443.0,31LM9EDVOMEL1TA4LTGMI90I0FOJNM,A11FFJZ0C984W4,30OITAWPBQP2Z1DQ5HPUZCTXABIH90,,"<img src=""img/set1/S3.jpg"" width=""540"" height = ""360"" style=""border:16px solid orange"">",null,,,,,,,,
null,,html-keyboard-response,444,373353,0.0-444.0,31LM9EDVOMEL1TA4LTGMI90I0FOJNM,A11FFJZ0C984W4,30OITAWPBQP2Z1DQ5HPUZCTXABIH90,,,null,,,,,,,,
562,,image-keyboard-response,445,373916,0.0-445.0,31LM9EDVOMEL1TA4LTGMI90I0FOJNM,A11FFJZ0C984W4,30OITAWPBQP2Z1DQ5HPUZCTXABIH90,,img/set1/S3.jpg,72,3,random,72,"random,structured_normal,structured_incentive","2,3,1,2",TRUE,,
null,,html-keyboard-response,446,374268,0.0-446.0,31LM9EDVOMEL1TA4LTGMI90I0FOJNM,A11FFJZ0C984W4,30OITAWPBQP2Z1DQ5HPUZCTXABIH90,,"<img src=""img/set1/S3.jpg"" width=""540"" height = ""360"" style=""border:16px solid orange"">",null,,,,,,,,
null,,html-keyboard-response,447,374484,0.0-447.0,31LM9EDVOMEL1TA4LTGMI90I0FOJNM,A11FFJZ0C984W4,30OITAWPBQP2Z1DQ5HPUZCTXABIH90,,,null,,,,,,,,
699,,image-keyboard-response,448,375183,0.0-448.0,31LM9EDVOMEL1TA4LTGMI90I0FOJNM,A11FFJZ0C984W4,30OITAWPBQP2Z1DQ5HPUZCTXABIH90,,img/set1/S2.jpg,68,2,random,68,"random,structured_normal,structured_incentive","2,3,1,2",TRUE,,
null,,html-keyboard-response,449,375539,0.0-449.0,31LM9EDVOMEL1TA4LTGMI90I0FOJNM,A11FFJZ0C984W4,30OITAWPBQP2Z1DQ5HPUZCTXABIH90,,"<img src=""img/set1/S2.jpg"" width=""540"" height = ""360"" style=""border:16px solid orange"">",null,,,,,,,,
null,,html-keyboard-response,450,375742,0.0-450.0,31LM9EDVOMEL1TA4LTGMI90I0FOJNM,A11FFJZ0C984W4,30OITAWPBQP2Z1DQ5HPUZCTXABIH90,,,null,,,,,,,,
750,,image-keyboard-response,451,376493,0.0-451.0,31LM9EDVOMEL1TA4LTGMI90I0FOJNM,A11FFJZ0C984W4,30OITAWPBQP2Z1DQ5HPUZCTXABIH90,,img/set1/S1.jpg,83,1,random,83,"random,structured_normal,structured_incentive","2,3,1,2",TRUE,,
null,,html-keyboard-response,452,376847,0.0-452.0,31LM9EDVOMEL1TA4LTGMI90I0FOJNM,A11FFJZ0C984W4,30OITAWPBQP2Z1DQ5HPUZCTXABIH90,,"<img src=""img/set1/S1.jpg"" width=""540"" height = ""360"" style=""border:16px solid orange"">",null,,,,,,,,
null,,html-keyboard-response,453,377048,0.0-453.0,31LM9EDVOMEL1TA4LTGMI90I0FOJNM,A11FFJZ0C984W4,30OITAWPBQP2Z1DQ5HPUZCTXABIH90,,,null,,,,,,,,
702,,image-keyboard-response,454,377751,0.0-454.0,31LM9EDVOMEL1TA4LTGMI90I0FOJNM,A11FFJZ0C984W4,30OITAWPBQP2Z1DQ5HPUZCTXABIH90,,img/set1/S3.jpg,72,3,random,72,"random,structured_normal,structured_incentive","2,3,1,2",TRUE,,
null,,html-keyboard-response,455,378102,0.0-455.0,31LM9EDVOMEL1TA4LTGMI90I0FOJNM,A11FFJZ0C984W4,30OITAWPBQP2Z1DQ5HPUZCTXABIH90,,"<img src=""img/set1/S3.jpg"" width=""540"" height = ""360"" style=""border:16px solid orange"">",null,,,,,,,,
null,,html-keyboard-response,456,378305,0.0-456.0,31LM9EDVOMEL1TA4LTGMI90I0FOJNM,A11FFJZ0C984W4,30OITAWPBQP2Z1DQ5HPUZCTXABIH90,,,null,,,,,,,,
626,,image-keyboard-response,457,378932,0.0-457.0,31LM9EDVOMEL1TA4LTGMI90I0FOJNM,A11FFJZ0C984W4,30OITAWPBQP2Z1DQ5HPUZCTXABIH90,,img/set1/S2.jpg,68,2,random,68,"random,structured_normal,structured_incentive","2,3,1,2",TRUE,,
null,,html-keyboard-response,458,379285,0.0-458.0,31LM9EDVOMEL1TA4LTGMI90I0FOJNM,A11FFJZ0C984W4,30OITAWPBQP2Z1DQ5HPUZCTXABIH90,,"<img src=""img/set1/S2.jpg"" width=""540"" height = ""360"" style=""border:16px solid orange"">",null,,,,,,,,
null,,html-keyboard-response,459,379485,0.0-459.0,31LM9EDVOMEL1TA4LTGMI90I0FOJNM,A11FFJZ0C984W4,30OITAWPBQP2Z1DQ5HPUZCTXABIH90,,,null,,,,,,,,
641,,image-keyboard-response,460,380126,0.0-460.0,31LM9EDVOMEL1TA4LTGMI90I0FOJNM,A11FFJZ0C984W4,30OITAWPBQP2Z1DQ5HPUZCTXABIH90,,img/set1/S2.jpg,68,2,random,68,"random,structured_normal,structured_incentive","2,3,1,2",TRUE,,
null,,html-keyboard-response,461,380492,0.0-461.0,31LM9EDVOMEL1TA4LTGMI90I0FOJNM,A11FFJZ0C984W4,30OITAWPBQP2Z1DQ5HPUZCTXABIH90,,"<img src=""img/set1/S2.jpg"" width=""540"" height = ""360"" style=""border:16px solid orange"">",null,,,,,,,,
null,,html-keyboard-response,462,380693,0.0-462.0,31LM9EDVOMEL1TA4LTGMI90I0FOJNM,A11FFJZ0C984W4,30OITAWPBQP2Z1DQ5HPUZCTXABIH90,,,null,,,,,,,,
735,,image-keyboard-response,463,381429,0.0-463.0,31LM9EDVOMEL1TA4LTGMI90I0FOJNM,A11FFJZ0C984W4,30OITAWPBQP2Z1DQ5HPUZCTXABIH90,,img/set1/S1.jpg,83,1,random,83,"random,structured_normal,structured_incentive","2,3,1,2",TRUE,,
null,,html-keyboard-response,464,381794,0.0-464.0,31LM9EDVOMEL1TA4LTGMI90I0FOJNM,A11FFJZ0C984W4,30OITAWPBQP2Z1DQ5HPUZCTXABIH90,,"<img src=""img/set1/S1.jpg"" width=""540"" height = ""360"" style=""border:16px solid orange"">",null,,,,,,,,
null,,html-keyboard-response,465,381994,0.0-465.0,31LM9EDVOMEL1TA4LTGMI90I0FOJNM,A11FFJZ0C984W4,30OITAWPBQP2Z1DQ5HPUZCTXABIH90,,,null,,,,,,,,
663,,image-keyboard-response,466,382659,0.0-466.0,31LM9EDVOMEL1TA4LTGMI90I0FOJNM,A11FFJZ0C984W4,30OITAWPBQP2Z1DQ5HPUZCTXABIH90,,img/set1/S1.jpg,83,1,random,83,"random,structured_normal,structured_incentive","2,3,1,2",TRUE,,
null,,html-keyboard-response,467,383018,0.0-467.0,31LM9EDVOMEL1TA4LTGMI90I0FOJNM,A11FFJZ0C984W4,30OITAWPBQP2Z1DQ5HPUZCTXABIH90,,"<img src=""img/set1/S1.jpg"" width=""540"" height = ""360"" style=""border:16px solid orange"">",null,,,,,,,,
null,,html-keyboard-response,468,383220,0.0-468.0,31LM9EDVOMEL1TA4LTGMI90I0FOJNM,A11FFJZ0C984W4,30OITAWPBQP2Z1DQ5HPUZCTXABIH90,,,null,,,,,,,,
651,,image-keyboard-response,469,383872,0.0-469.0,31LM9EDVOMEL1TA4LTGMI90I0FOJNM,A11FFJZ0C984W4,30OITAWPBQP2Z1DQ5HPUZCTXABIH90,,img/set1/S3.jpg,72,3,random,72,"random,structured_normal,structured_incentive","2,3,1,2",TRUE,,
null,,html-keyboard-response,470,384225,0.0-470.0,31LM9EDVOMEL1TA4LTGMI90I0FOJNM,A11FFJZ0C984W4,30OITAWPBQP2Z1DQ5HPUZCTXABIH90,,"<img src=""img/set1/S3.jpg"" width=""540"" height = ""360"" style=""border:16px solid orange"">",null,,,,,,,,
null,,html-keyboard-response,471,384428,0.0-471.0,31LM9EDVOMEL1TA4LTGMI90I0FOJNM,A11FFJZ0C984W4,30OITAWPBQP2Z1DQ5HPUZCTXABIH90,,,null,,,,,,,,
691,,image-keyboard-response,472,385121,0.0-472.0,31LM9EDVOMEL1TA4LTGMI90I0FOJNM,A11FFJZ0C984W4,30OITAWPBQP2Z1DQ5HPUZCTXABIH90,,img/set1/S1.jpg,83,1,random,83,"random,structured_normal,structured_incentive","2,3,1,2",TRUE,,
null,,html-keyboard-response,473,385485,0.0-473.0,31LM9EDVOMEL1TA4LTGMI90I0FOJNM,A11FFJZ0C984W4,30OITAWPBQP2Z1DQ5HPUZCTXABIH90,,"<img src=""img/set1/S1.jpg"" width=""540"" height = ""360"" style=""border:16px solid orange"">",null,,,,,,,,
null,,html-keyboard-response,474,385700,0.0-474.0,31LM9EDVOMEL1TA4LTGMI90I0FOJNM,A11FFJZ0C984W4,30OITAWPBQP2Z1DQ5HPUZCTXABIH90,,,null,,,,,,,,
779,,image-keyboard-response,475,386481,0.0-475.0,31LM9EDVOMEL1TA4LTGMI90I0FOJNM,A11FFJZ0C984W4,30OITAWPBQP2Z1DQ5HPUZCTXABIH90,,img/set1/S3.jpg,72,3,random,72,"random,structured_normal,structured_incentive","2,3,1,2",TRUE,,
null,,html-keyboard-response,476,386846,0.0-476.0,31LM9EDVOMEL1TA4LTGMI90I0FOJNM,A11FFJZ0C984W4,30OITAWPBQP2Z1DQ5HPUZCTXABIH90,,"<img src=""img/set1/S3.jpg"" width=""540"" height = ""360"" style=""border:16px solid orange"">",null,,,,,,,,
null,,html-keyboard-response,477,387047,0.0-477.0,31LM9EDVOMEL1TA4LTGMI90I0FOJNM,A11FFJZ0C984W4,30OITAWPBQP2Z1DQ5HPUZCTXABIH90,,,null,,,,,,,,
625,,image-keyboard-response,478,387674,0.0-478.0,31LM9EDVOMEL1TA4LTGMI90I0FOJNM,A11FFJZ0C984W4,30OITAWPBQP2Z1DQ5HPUZCTXABIH90,,img/set1/S3.jpg,72,3,random,72,"random,structured_normal,structured_incentive","2,3,1,2",TRUE,,
null,,html-keyboard-response,479,388031,0.0-479.0,31LM9EDVOMEL1TA4LTGMI90I0FOJNM,A11FFJZ0C984W4,30OITAWPBQP2Z1DQ5HPUZCTXABIH90,,"<img src=""img/set1/S3.jpg"" width=""540"" height = ""360"" style=""border:16px solid orange"">",null,,,,,,,,
null,,html-keyboard-response,480,388233,0.0-480.0,31LM9EDVOMEL1TA4LTGMI90I0FOJNM,A11FFJZ0C984W4,30OITAWPBQP2Z1DQ5HPUZCTXABIH90,,,null,,,,,,,,
669,,image-keyboard-response,481,388904,0.0-481.0,31LM9EDVOMEL1TA4LTGMI90I0FOJNM,A11FFJZ0C984W4,30OITAWPBQP2Z1DQ5HPUZCTXABIH90,,img/set1/S2.jpg,68,2,random,68,"random,structured_normal,structured_incentive","2,3,1,2",TRUE,,
null,,html-keyboard-response,482,389262,0.0-482.0,31LM9EDVOMEL1TA4LTGMI90I0FOJNM,A11FFJZ0C984W4,30OITAWPBQP2Z1DQ5HPUZCTXABIH90,,"<img src=""img/set1/S2.jpg"" width=""540"" height = ""360"" style=""border:16px solid orange"">",null,,,,,,,,
null,,html-keyboard-response,483,389463,0.0-483.0,31LM9EDVOMEL1TA4LTGMI90I0FOJNM,A11FFJZ0C984W4,30OITAWPBQP2Z1DQ5HPUZCTXABIH90,,,null,,,,,,,,
657,,image-keyboard-response,484,390121,0.0-484.0,31LM9EDVOMEL1TA4LTGMI90I0FOJNM,A11FFJZ0C984W4,30OITAWPBQP2Z1DQ5HPUZCTXABIH90,,img/set1/S2.jpg,68,2,random,68,"random,structured_normal,structured_incentive","2,3,1,2",TRUE,,
null,,html-keyboard-response,485,390486,0.0-485.0,31LM9EDVOMEL1TA4LTGMI90I0FOJNM,A11FFJZ0C984W4,30OITAWPBQP2Z1DQ5HPUZCTXABIH90,,"<img src=""img/set1/S2.jpg"" width=""540"" height = ""360"" style=""border:16px solid orange"">",null,,,,,,,,
null,,html-keyboard-response,486,390691,0.0-486.0,31LM9EDVOMEL1TA4LTGMI90I0FOJNM,A11FFJZ0C984W4,30OITAWPBQP2Z1DQ5HPUZCTXABIH90,,,null,,,,,,,,
661,,image-keyboard-response,487,391352,0.0-487.0,31LM9EDVOMEL1TA4LTGMI90I0FOJNM,A11FFJZ0C984W4,30OITAWPBQP2Z1DQ5HPUZCTXABIH90,,img/set1/S1.jpg,83,1,random,83,"random,structured_normal,structured_incentive","2,3,1,2",TRUE,,
null,,html-keyboard-response,488,391702,0.0-488.0,31LM9EDVOMEL1TA4LTGMI90I0FOJNM,A11FFJZ0C984W4,30OITAWPBQP2Z1DQ5HPUZCTXABIH90,,"<img src=""img/set1/S1.jpg"" width=""540"" height = ""360"" style=""border:16px solid orange"">",null,,,,,,,,
null,,html-keyboard-response,489,391906,0.0-489.0,31LM9EDVOMEL1TA4LTGMI90I0FOJNM,A11FFJZ0C984W4,30OITAWPBQP2Z1DQ5HPUZCTXABIH90,,,null,,,,,,,,
693,,image-keyboard-response,490,392600,0.0-490.0,31LM9EDVOMEL1TA4LTGMI90I0FOJNM,A11FFJZ0C984W4,30OITAWPBQP2Z1DQ5HPUZCTXABIH90,,img/set1/S3.jpg,72,3,random,72,"random,structured_normal,structured_incentive","2,3,1,2",TRUE,,
null,,html-keyboard-response,491,392955,0.0-491.0,31LM9EDVOMEL1TA4LTGMI90I0FOJNM,A11FFJZ0C984W4,30OITAWPBQP2Z1DQ5HPUZCTXABIH90,,"<img src=""img/set1/S3.jpg"" width=""540"" height = ""360"" style=""border:16px solid orange"">",null,,,,,,,,
null,,html-keyboard-response,492,393157,0.0-492.0,31LM9EDVOMEL1TA4LTGMI90I0FOJNM,A11FFJZ0C984W4,30OITAWPBQP2Z1DQ5HPUZCTXABIH90,,,null,,,,,,,,
