"rt","url","trial_type","trial_index","time_elapsed","internal_node_id","view_history","stimulus","key_press","state","test_part","correct_response","order_block","order_chunk","correct","responses","question_order","bonus"
"2962.5999999996275","consent.html","external-html","0","3048","0.0-0.0","","","","","","","","","","","",""
"70159.70000000019","","instructions","1","73210","0.0-1.0","[{""page_index"":0,""viewing_time"":3090.5},{""page_index"":1,""viewing_time"":5798.700000000186},{""page_index"":2,""viewing_time"":10988.399999999907},{""page_index"":3,""viewing_time"":14186.5},{""page_index"":4,""viewing_time"":17178.899999999907},{""page_index"":5,""viewing_time"":10236.100000000093},{""page_index"":6,""viewing_time"":8679.799999999814}]","","","","","","","","","","",""
"11320","","instructions","2","84532","0.0-2.0","[{""page_index"":0,""viewing_time"":11319.69999999972}]","","","","","","","","","","",""
"5086.100000000093","","instructions","3","89620","0.0-3.0","[{""page_index"":0,""viewing_time"":5085.800000000279}]","","","","","","","","","","",""
"1654.6999999997206","","image-keyboard-response","4","91278","0.0-4.0","","img/set1/S3.jpg","83","3","random","72","random,structured_incentive,structured_normal,structured_load","2,1,3,4,2,3","false","","",""
"null","","html-keyboard-response","5","91632","0.0-5.0","","<img src=""img/set1/S3.jpg"" width=""540"" height = ""360"">","null","","","","","","","","",""
"null","","html-keyboard-response","6","91834","0.0-6.0","","","null","","","","","","","","",""
"1735.6000000000931","","image-keyboard-response","7","93572","0.0-7.0","","img/set1/S3.jpg","68","3","random","72","random,structured_incentive,structured_normal,structured_load","2,1,3,4,2,3","false","","",""
"null","","html-keyboard-response","8","93929","0.0-8.0","","<img src=""img/set1/S3.jpg"" width=""540"" height = ""360"">","null","","","","","","","","",""
"null","","html-keyboard-response","9","94130","0.0-9.0","","","null","","","","","","","","",""
"1221","","image-keyboard-response","10","95353","0.0-10.0","","img/set1/S4.jpg","83","4","random","74","random,structured_incentive,structured_normal,structured_load","2,1,3,4,2,3","false","","",""
"null","","html-keyboard-response","11","95707","0.0-11.0","","<img src=""img/set1/S4.jpg"" width=""540"" height = ""360"">","null","","","","","","","","",""
"null","","html-keyboard-response","12","95908","0.0-12.0","","","null","","","","","","","","",""
"658","","image-keyboard-response","13","96568","0.0-13.0","","img/set1/S4.jpg","68","4","random","74","random,structured_incentive,structured_normal,structured_load","2,1,3,4,2,3","false","","",""
"null","","html-keyboard-response","14","96922","0.0-14.0","","<img src=""img/set1/S4.jpg"" width=""540"" height = ""360"">","null","","","","","","","","",""
"null","","html-keyboard-response","15","97123","0.0-15.0","","","null","","","","","","","","",""
"529.3999999999069","","image-keyboard-response","16","97654","0.0-16.0","","img/set1/S4.jpg","72","4","random","74","random,structured_incentive,structured_normal,structured_load","2,1,3,4,2,3","false","","",""
"null","","html-keyboard-response","17","98007","0.0-17.0","","<img src=""img/set1/S4.jpg"" width=""540"" height = ""360"">","null","","","","","","","","",""
"null","","html-keyboard-response","18","98209","0.0-18.0","","","null","","","","","","","","",""
"938.1999999997206","","image-keyboard-response","19","99149","0.0-19.0","","img/set1/S1.jpg","83","1","random","83","random,structured_incentive,structured_normal,structured_load","2,1,3,4,2,3","true","","",""
"null","","html-keyboard-response","20","99501","0.0-20.0","","<img src=""img/set1/S1.jpg"" width=""540"" height = ""360"" style=""border:16px solid orange"">","null","","","","","","","","",""
"null","","html-keyboard-response","21","99703","0.0-21.0","","","null","","","","","","","","",""
"1035.7000000001863","","image-keyboard-response","22","100740","0.0-22.0","","img/set1/S1.jpg","83","1","random","83","random,structured_incentive,structured_normal,structured_load","2,1,3,4,2,3","true","","",""
"null","","html-keyboard-response","23","101093","0.0-23.0","","<img src=""img/set1/S1.jpg"" width=""540"" height = ""360"" style=""border:16px solid orange"">","null","","","","","","","","",""
"null","","html-keyboard-response","24","101295","0.0-24.0","","","null","","","","","","","","",""
"1043.2999999998137","","image-keyboard-response","25","102340","0.0-25.0","","img/set1/S2.jpg","83","2","random","68","random,structured_incentive,structured_normal,structured_load","2,1,3,4,2,3","false","","",""
"null","","html-keyboard-response","26","102693","0.0-26.0","","<img src=""img/set1/S2.jpg"" width=""540"" height = ""360"">","null","","","","","","","","",""
"null","","html-keyboard-response","27","102894","0.0-27.0","","","null","","","","","","","","",""
"1097.3999999999069","","image-keyboard-response","28","103993","0.0-28.0","","img/set1/S3.jpg","72","3","random","72","random,structured_incentive,structured_normal,structured_load","2,1,3,4,2,3","true","","",""
"null","","html-keyboard-response","29","104346","0.0-29.0","","<img src=""img/set1/S3.jpg"" width=""540"" height = ""360"" style=""border:16px solid orange"">","null","","","","","","","","",""
"null","","html-keyboard-response","30","104547","0.0-30.0","","","null","","","","","","","","",""
"882.7999999998137","","image-keyboard-response","31","105431","0.0-31.0","","img/set1/S3.jpg","72","3","random","72","random,structured_incentive,structured_normal,structured_load","2,1,3,4,2,3","true","","",""
"null","","html-keyboard-response","32","105784","0.0-32.0","","<img src=""img/set1/S3.jpg"" width=""540"" height = ""360"" style=""border:16px solid orange"">","null","","","","","","","","",""
"null","","html-keyboard-response","33","105985","0.0-33.0","","","null","","","","","","","","",""
"1191.2999999998137","","image-keyboard-response","34","107178","0.0-34.0","","img/set1/S4.jpg","74","4","random","74","random,structured_incentive,structured_normal,structured_load","2,1,3,4,2,3","true","","",""
"null","","html-keyboard-response","35","107531","0.0-35.0","","<img src=""img/set1/S4.jpg"" width=""540"" height = ""360"" style=""border:16px solid orange"">","null","","","","","","","","",""
"null","","html-keyboard-response","36","107732","0.0-36.0","","","null","","","","","","","","",""
"448.29999999981374","","image-keyboard-response","37","108182","0.0-37.0","","img/set1/S4.jpg","74","4","random","74","random,structured_incentive,structured_normal,structured_load","2,1,3,4,2,3","true","","",""
"null","","html-keyboard-response","38","108534","0.0-38.0","","<img src=""img/set1/S4.jpg"" width=""540"" height = ""360"" style=""border:16px solid orange"">","null","","","","","","","","",""
"null","","html-keyboard-response","39","108736","0.0-39.0","","","null","","","","","","","","",""
"817","","image-keyboard-response","40","109555","0.0-40.0","","img/set1/S1.jpg","83","1","random","83","random,structured_incentive,structured_normal,structured_load","2,1,3,4,2,3","true","","",""
"null","","html-keyboard-response","41","109907","0.0-41.0","","<img src=""img/set1/S1.jpg"" width=""540"" height = ""360"" style=""border:16px solid orange"">","null","","","","","","","","",""
"null","","html-keyboard-response","42","110109","0.0-42.0","","","null","","","","","","","","",""
"468.5","","image-keyboard-response","43","110579","0.0-43.0","","img/set1/S2.jpg","68","2","random","68","random,structured_incentive,structured_normal,structured_load","2,1,3,4,2,3","true","","",""
"null","","html-keyboard-response","44","110932","0.0-44.0","","<img src=""img/set1/S2.jpg"" width=""540"" height = ""360"" style=""border:16px solid orange"">","null","","","","","","","","",""
"null","","html-keyboard-response","45","111133","0.0-45.0","","","null","","","","","","","","",""
"604.9000000003725","","image-keyboard-response","46","111740","0.0-46.0","","img/set1/S2.jpg","68","2","random","68","random,structured_incentive,structured_normal,structured_load","2,1,3,4,2,3","true","","",""
"null","","html-keyboard-response","47","112093","0.0-47.0","","<img src=""img/set1/S2.jpg"" width=""540"" height = ""360"" style=""border:16px solid orange"">","null","","","","","","","","",""
"null","","html-keyboard-response","48","112294","0.0-48.0","","","null","","","","","","","","",""
"402","","image-keyboard-response","49","112698","0.0-49.0","","img/set1/S2.jpg","68","2","random","68","random,structured_incentive,structured_normal,structured_load","2,1,3,4,2,3","true","","",""
"null","","html-keyboard-response","50","113050","0.0-50.0","","<img src=""img/set1/S2.jpg"" width=""540"" height = ""360"" style=""border:16px solid orange"">","null","","","","","","","","",""
"null","","html-keyboard-response","51","113252","0.0-51.0","","","null","","","","","","","","",""
"395","","image-keyboard-response","52","113649","0.0-52.0","","img/set1/S3.jpg","72","3","random","72","random,structured_incentive,structured_normal,structured_load","2,1,3,4,2,3","true","","",""
"null","","html-keyboard-response","53","114001","0.0-53.0","","<img src=""img/set1/S3.jpg"" width=""540"" height = ""360"" style=""border:16px solid orange"">","null","","","","","","","","",""
"null","","html-keyboard-response","54","114203","0.0-54.0","","","null","","","","","","","","",""
"656","","image-keyboard-response","55","114861","0.0-55.0","","img/set1/S1.jpg","83","1","random","83","random,structured_incentive,structured_normal,structured_load","2,1,3,4,2,3","true","","",""
"null","","html-keyboard-response","56","115214","0.0-56.0","","<img src=""img/set1/S1.jpg"" width=""540"" height = ""360"" style=""border:16px solid orange"">","null","","","","","","","","",""
"null","","html-keyboard-response","57","115415","0.0-57.0","","","null","","","","","","","","",""
"788.3999999999069","","image-keyboard-response","58","116205","0.0-58.0","","img/set1/S4.jpg","72","4","random","74","random,structured_incentive,structured_normal,structured_load","2,1,3,4,2,3","false","","",""
"null","","html-keyboard-response","59","116558","0.0-59.0","","<img src=""img/set1/S4.jpg"" width=""540"" height = ""360"">","null","","","","","","","","",""
"null","","html-keyboard-response","60","116759","0.0-60.0","","","null","","","","","","","","",""
"1109.5999999996275","","image-keyboard-response","61","117870","0.0-61.0","","img/set1/S3.jpg","72","3","random","72","random,structured_incentive,structured_normal,structured_load","2,1,3,4,2,3","true","","",""
"null","","html-keyboard-response","62","118223","0.0-62.0","","<img src=""img/set1/S3.jpg"" width=""540"" height = ""360"" style=""border:16px solid orange"">","null","","","","","","","","",""
"null","","html-keyboard-response","63","118425","0.0-63.0","","","null","","","","","","","","",""
"383.1999999997206","","image-keyboard-response","64","118810","0.0-64.0","","img/set1/S3.jpg","72","3","random","72","random,structured_incentive,structured_normal,structured_load","2,1,3,4,2,3","true","","",""
"null","","html-keyboard-response","65","119163","0.0-65.0","","<img src=""img/set1/S3.jpg"" width=""540"" height = ""360"" style=""border:16px solid orange"">","null","","","","","","","","",""
"null","","html-keyboard-response","66","119364","0.0-66.0","","","null","","","","","","","","",""
"567.1000000000931","","image-keyboard-response","67","119933","0.0-67.0","","img/set1/S2.jpg","68","2","random","68","random,structured_incentive,structured_normal,structured_load","2,1,3,4,2,3","true","","",""
"null","","html-keyboard-response","68","120285","0.0-68.0","","<img src=""img/set1/S2.jpg"" width=""540"" height = ""360"" style=""border:16px solid orange"">","null","","","","","","","","",""
"null","","html-keyboard-response","69","120487","0.0-69.0","","","null","","","","","","","","",""
"335.8000000002794","","image-keyboard-response","70","120826","0.0-70.0","","img/set1/S2.jpg","68","2","random","68","random,structured_incentive,structured_normal,structured_load","2,1,3,4,2,3","true","","",""
"null","","html-keyboard-response","71","121179","0.0-71.0","","<img src=""img/set1/S2.jpg"" width=""540"" height = ""360"" style=""border:16px solid orange"">","null","","","","","","","","",""
"null","","html-keyboard-response","72","121380","0.0-72.0","","","null","","","","","","","","",""
"372.10000000009313","","image-keyboard-response","73","121754","0.0-73.0","","img/set1/S4.jpg","74","4","random","74","random,structured_incentive,structured_normal,structured_load","2,1,3,4,2,3","true","","",""
"null","","html-keyboard-response","74","122106","0.0-74.0","","<img src=""img/set1/S4.jpg"" width=""540"" height = ""360"" style=""border:16px solid orange"">","null","","","","","","","","",""
"null","","html-keyboard-response","75","122307","0.0-75.0","","","null","","","","","","","","",""
"539.1000000000931","","image-keyboard-response","76","122848","0.0-76.0","","img/set1/S1.jpg","83","1","random","83","random,structured_incentive,structured_normal,structured_load","2,1,3,4,2,3","true","","",""
"null","","html-keyboard-response","77","123201","0.0-77.0","","<img src=""img/set1/S1.jpg"" width=""540"" height = ""360"" style=""border:16px solid orange"">","null","","","","","","","","",""
"null","","html-keyboard-response","78","123402","0.0-78.0","","","null","","","","","","","","",""
"424","","image-keyboard-response","79","123828","0.0-79.0","","img/set1/S4.jpg","74","4","random","74","random,structured_incentive,structured_normal,structured_load","2,1,3,4,2,3","true","","",""
"null","","html-keyboard-response","80","124181","0.0-80.0","","<img src=""img/set1/S4.jpg"" width=""540"" height = ""360"" style=""border:16px solid orange"">","null","","","","","","","","",""
"null","","html-keyboard-response","81","124382","0.0-81.0","","","null","","","","","","","","",""
"515.2999999998137","","image-keyboard-response","82","124899","0.0-82.0","","img/set1/S1.jpg","83","1","random","83","random,structured_incentive,structured_normal,structured_load","2,1,3,4,2,3","true","","",""
"null","","html-keyboard-response","83","125252","0.0-83.0","","<img src=""img/set1/S1.jpg"" width=""540"" height = ""360"" style=""border:16px solid orange"">","null","","","","","","","","",""
"null","","html-keyboard-response","84","125453","0.0-84.0","","","null","","","","","","","","",""
"429.79999999981374","","image-keyboard-response","85","125885","0.0-85.0","","img/set1/S1.jpg","83","1","random","83","random,structured_incentive,structured_normal,structured_load","2,1,3,4,2,3","true","","",""
"null","","html-keyboard-response","86","126237","0.0-86.0","","<img src=""img/set1/S1.jpg"" width=""540"" height = ""360"" style=""border:16px solid orange"">","null","","","","","","","","",""
"null","","html-keyboard-response","87","126438","0.0-87.0","","","null","","","","","","","","",""
"476","","image-keyboard-response","88","126916","0.0-88.0","","img/set1/S4.jpg","74","4","random","74","random,structured_incentive,structured_normal,structured_load","2,1,3,4,2,3","true","","",""
"null","","html-keyboard-response","89","127268","0.0-89.0","","<img src=""img/set1/S4.jpg"" width=""540"" height = ""360"" style=""border:16px solid orange"">","null","","","","","","","","",""
"null","","html-keyboard-response","90","127470","0.0-90.0","","","null","","","","","","","","",""
"508.8000000002794","","image-keyboard-response","91","127980","0.0-91.0","","img/set1/S1.jpg","83","1","random","83","random,structured_incentive,structured_normal,structured_load","2,1,3,4,2,3","true","","",""
"null","","html-keyboard-response","92","128333","0.0-92.0","","<img src=""img/set1/S1.jpg"" width=""540"" height = ""360"" style=""border:16px solid orange"">","null","","","","","","","","",""
"null","","html-keyboard-response","93","128534","0.0-93.0","","","null","","","","","","","","",""
"747.2000000001863","","image-keyboard-response","94","129283","0.0-94.0","","img/set1/S3.jpg","74","3","random","72","random,structured_incentive,structured_normal,structured_load","2,1,3,4,2,3","false","","",""
"null","","html-keyboard-response","95","129635","0.0-95.0","","<img src=""img/set1/S3.jpg"" width=""540"" height = ""360"">","null","","","","","","","","",""
"null","","html-keyboard-response","96","129837","0.0-96.0","","","null","","","","","","","","",""
"669.1999999997206","","image-keyboard-response","97","130508","0.0-97.0","","img/set1/S4.jpg","74","4","random","74","random,structured_incentive,structured_normal,structured_load","2,1,3,4,2,3","true","","",""
"null","","html-keyboard-response","98","130861","0.0-98.0","","<img src=""img/set1/S4.jpg"" width=""540"" height = ""360"" style=""border:16px solid orange"">","null","","","","","","","","",""
"null","","html-keyboard-response","99","131062","0.0-99.0","","","null","","","","","","","","",""
"431.09999999962747","","image-keyboard-response","100","131495","0.0-100.0","","img/set1/S3.jpg","72","3","random","72","random,structured_incentive,structured_normal,structured_load","2,1,3,4,2,3","true","","",""
"null","","html-keyboard-response","101","131848","0.0-101.0","","<img src=""img/set1/S3.jpg"" width=""540"" height = ""360"" style=""border:16px solid orange"">","null","","","","","","","","",""
"null","","html-keyboard-response","102","132049","0.0-102.0","","","null","","","","","","","","",""
"393","","image-keyboard-response","103","132444","0.0-103.0","","img/set1/S3.jpg","72","3","random","72","random,structured_incentive,structured_normal,structured_load","2,1,3,4,2,3","true","","",""
"null","","html-keyboard-response","104","132796","0.0-104.0","","<img src=""img/set1/S3.jpg"" width=""540"" height = ""360"" style=""border:16px solid orange"">","null","","","","","","","","",""
"null","","html-keyboard-response","105","132998","0.0-105.0","","","null","","","","","","","","",""
"652.2999999998137","","image-keyboard-response","106","133653","0.0-106.0","","img/set1/S2.jpg","68","2","random","68","random,structured_incentive,structured_normal,structured_load","2,1,3,4,2,3","true","","",""
"null","","html-keyboard-response","107","134006","0.0-107.0","","<img src=""img/set1/S2.jpg"" width=""540"" height = ""360"" style=""border:16px solid orange"">","null","","","","","","","","",""
"null","","html-keyboard-response","108","134207","0.0-108.0","","","null","","","","","","","","",""
"530.8000000002794","","image-keyboard-response","109","134740","0.0-109.0","","img/set1/S1.jpg","83","1","random","83","random,structured_incentive,structured_normal,structured_load","2,1,3,4,2,3","true","","",""
"null","","html-keyboard-response","110","135093","0.0-110.0","","<img src=""img/set1/S1.jpg"" width=""540"" height = ""360"" style=""border:16px solid orange"">","null","","","","","","","","",""
"null","","html-keyboard-response","111","135294","0.0-111.0","","","null","","","","","","","","",""
"1077.5","","image-keyboard-response","112","136374","0.0-112.0","","img/set1/S2.jpg","68","2","random","68","random,structured_incentive,structured_normal,structured_load","2,1,3,4,2,3","true","","",""
"null","","html-keyboard-response","113","136726","0.0-113.0","","<img src=""img/set1/S2.jpg"" width=""540"" height = ""360"" style=""border:16px solid orange"">","null","","","","","","","","",""
"null","","html-keyboard-response","114","136927","0.0-114.0","","","null","","","","","","","","",""
"505.60000000009313","","image-keyboard-response","115","137434","0.0-115.0","","img/set1/S1.jpg","83","1","random","83","random,structured_incentive,structured_normal,structured_load","2,1,3,4,2,3","true","","",""
"null","","html-keyboard-response","116","137787","0.0-116.0","","<img src=""img/set1/S1.jpg"" width=""540"" height = ""360"" style=""border:16px solid orange"">","null","","","","","","","","",""
"null","","html-keyboard-response","117","137988","0.0-117.0","","","null","","","","","","","","",""
"406.40000000037253","","image-keyboard-response","118","138397","0.0-118.0","","img/set1/S2.jpg","68","2","random","68","random,structured_incentive,structured_normal,structured_load","2,1,3,4,2,3","true","","",""
"null","","html-keyboard-response","119","138749","0.0-119.0","","<img src=""img/set1/S2.jpg"" width=""540"" height = ""360"" style=""border:16px solid orange"">","null","","","","","","","","",""
"null","","html-keyboard-response","120","138951","0.0-120.0","","","null","","","","","","","","",""
"466","","image-keyboard-response","121","139418","0.0-121.0","","img/set1/S4.jpg","74","4","random","74","random,structured_incentive,structured_normal,structured_load","2,1,3,4,2,3","true","","",""
"null","","html-keyboard-response","122","139771","0.0-122.0","","<img src=""img/set1/S4.jpg"" width=""540"" height = ""360"" style=""border:16px solid orange"">","null","","","","","","","","",""
"null","","html-keyboard-response","123","139972","0.0-123.0","","","null","","","","","","","","",""
"456","","image-keyboard-response","124","140430","0.0-124.0","","img/set1/S1.jpg","83","1","random","83","random,structured_incentive,structured_normal,structured_load","2,1,3,4,2,3","true","","",""
"null","","html-keyboard-response","125","140783","0.0-125.0","","<img src=""img/set1/S1.jpg"" width=""540"" height = ""360"" style=""border:16px solid orange"">","null","","","","","","","","",""
"null","","html-keyboard-response","126","140985","0.0-126.0","","","null","","","","","","","","",""
"526.5","","image-keyboard-response","127","141512","0.0-127.0","","img/set1/S2.jpg","68","2","random","68","random,structured_incentive,structured_normal,structured_load","2,1,3,4,2,3","true","","",""
"null","","html-keyboard-response","128","141865","0.0-128.0","","<img src=""img/set1/S2.jpg"" width=""540"" height = ""360"" style=""border:16px solid orange"">","null","","","","","","","","",""
"null","","html-keyboard-response","129","142067","0.0-129.0","","","null","","","","","","","","",""
"535.5999999996275","","image-keyboard-response","130","142604","0.0-130.0","","img/set1/S4.jpg","74","4","random","74","random,structured_incentive,structured_normal,structured_load","2,1,3,4,2,3","true","","",""
"null","","html-keyboard-response","131","142957","0.0-131.0","","<img src=""img/set1/S4.jpg"" width=""540"" height = ""360"" style=""border:16px solid orange"">","null","","","","","","","","",""
"null","","html-keyboard-response","132","143159","0.0-132.0","","","null","","","","","","","","",""
"495","","image-keyboard-response","133","143656","0.0-133.0","","img/set1/S1.jpg","83","1","random","83","random,structured_incentive,structured_normal,structured_load","2,1,3,4,2,3","true","","",""
"null","","html-keyboard-response","134","144009","0.0-134.0","","<img src=""img/set1/S1.jpg"" width=""540"" height = ""360"" style=""border:16px solid orange"">","null","","","","","","","","",""
"null","","html-keyboard-response","135","144210","0.0-135.0","","","null","","","","","","","","",""
"562.5","","image-keyboard-response","136","144775","0.0-136.0","","img/set1/S2.jpg","68","2","random","68","random,structured_incentive,structured_normal,structured_load","2,1,3,4,2,3","true","","",""
"null","","html-keyboard-response","137","145127","0.0-137.0","","<img src=""img/set1/S2.jpg"" width=""540"" height = ""360"" style=""border:16px solid orange"">","null","","","","","","","","",""
"null","","html-keyboard-response","138","145329","0.0-138.0","","","null","","","","","","","","",""
"509.59999999962747","","image-keyboard-response","139","145840","0.0-139.0","","img/set1/S4.jpg","74","4","random","74","random,structured_incentive,structured_normal,structured_load","2,1,3,4,2,3","true","","",""
"null","","html-keyboard-response","140","146193","0.0-140.0","","<img src=""img/set1/S4.jpg"" width=""540"" height = ""360"" style=""border:16px solid orange"">","null","","","","","","","","",""
"null","","html-keyboard-response","141","146394","0.0-141.0","","","null","","","","","","","","",""
"576.4000000003725","","image-keyboard-response","142","146972","0.0-142.0","","img/set1/S2.jpg","68","2","random","68","random,structured_incentive,structured_normal,structured_load","2,1,3,4,2,3","true","","",""
"null","","html-keyboard-response","143","147325","0.0-143.0","","<img src=""img/set1/S2.jpg"" width=""540"" height = ""360"" style=""border:16px solid orange"">","null","","","","","","","","",""
"null","","html-keyboard-response","144","147526","0.0-144.0","","","null","","","","","","","","",""
"532","","image-keyboard-response","145","148060","0.0-145.0","","img/set1/S1.jpg","83","1","random","83","random,structured_incentive,structured_normal,structured_load","2,1,3,4,2,3","true","","",""
"null","","html-keyboard-response","146","148412","0.0-146.0","","<img src=""img/set1/S1.jpg"" width=""540"" height = ""360"" style=""border:16px solid orange"">","null","","","","","","","","",""
"null","","html-keyboard-response","147","148614","0.0-147.0","","","null","","","","","","","","",""
"483.10000000009313","","image-keyboard-response","148","149098","0.0-148.0","","img/set1/S3.jpg","72","3","random","72","random,structured_incentive,structured_normal,structured_load","2,1,3,4,2,3","true","","",""
"null","","html-keyboard-response","149","149451","0.0-149.0","","<img src=""img/set1/S3.jpg"" width=""540"" height = ""360"" style=""border:16px solid orange"">","null","","","","","","","","",""
"null","","html-keyboard-response","150","149653","0.0-150.0","","","null","","","","","","","","",""
"605.3999999999069","","image-keyboard-response","151","150260","0.0-151.0","","img/set1/S2.jpg","68","2","random","68","random,structured_incentive,structured_normal,structured_load","2,1,3,4,2,3","true","","",""
"null","","html-keyboard-response","152","150613","0.0-152.0","","<img src=""img/set1/S2.jpg"" width=""540"" height = ""360"" style=""border:16px solid orange"">","null","","","","","","","","",""
"null","","html-keyboard-response","153","150814","0.0-153.0","","","null","","","","","","","","",""
"849.1999999997206","","image-keyboard-response","154","151665","0.0-154.0","","img/set1/S4.jpg","74","4","random","74","random,structured_incentive,structured_normal,structured_load","2,1,3,4,2,3","true","","",""
"null","","html-keyboard-response","155","152020","0.0-155.0","","<img src=""img/set1/S4.jpg"" width=""540"" height = ""360"" style=""border:16px solid orange"">","null","","","","","","","","",""
"null","","html-keyboard-response","156","152222","0.0-156.0","","","null","","","","","","","","",""
"547.1999999997206","","image-keyboard-response","157","152771","0.0-157.0","","img/set1/S1.jpg","83","1","random","83","random,structured_incentive,structured_normal,structured_load","2,1,3,4,2,3","true","","",""
"null","","html-keyboard-response","158","153123","0.0-158.0","","<img src=""img/set1/S1.jpg"" width=""540"" height = ""360"" style=""border:16px solid orange"">","null","","","","","","","","",""
"null","","html-keyboard-response","159","153325","0.0-159.0","","","null","","","","","","","","",""
"629.1999999997206","","image-keyboard-response","160","153955","0.0-160.0","","img/set1/S2.jpg","68","2","random","68","random,structured_incentive,structured_normal,structured_load","2,1,3,4,2,3","true","","",""
"null","","html-keyboard-response","161","154308","0.0-161.0","","<img src=""img/set1/S2.jpg"" width=""540"" height = ""360"" style=""border:16px solid orange"">","null","","","","","","","","",""
"null","","html-keyboard-response","162","154509","0.0-162.0","","","null","","","","","","","","",""
"625.2000000001863","","image-keyboard-response","163","155136","0.0-163.0","","img/set1/S1.jpg","83","1","random","83","random,structured_incentive,structured_normal,structured_load","2,1,3,4,2,3","true","","",""
"null","","html-keyboard-response","164","155488","0.0-164.0","","<img src=""img/set1/S1.jpg"" width=""540"" height = ""360"" style=""border:16px solid orange"">","null","","","","","","","","",""
"null","","html-keyboard-response","165","155690","0.0-165.0","","","null","","","","","","","","",""
"389.79999999981374","","image-keyboard-response","166","156081","0.0-166.0","","img/set1/S1.jpg","83","1","random","83","random,structured_incentive,structured_normal,structured_load","2,1,3,4,2,3","true","","",""
"null","","html-keyboard-response","167","156434","0.0-167.0","","<img src=""img/set1/S1.jpg"" width=""540"" height = ""360"" style=""border:16px solid orange"">","null","","","","","","","","",""
"null","","html-keyboard-response","168","156636","0.0-168.0","","","null","","","","","","","","",""
"542.1999999997206","","image-keyboard-response","169","157180","0.0-169.0","","img/set1/S3.jpg","74","3","random","72","random,structured_incentive,structured_normal,structured_load","2,1,3,4,2,3","false","","",""
"null","","html-keyboard-response","170","157532","0.0-170.0","","<img src=""img/set1/S3.jpg"" width=""540"" height = ""360"">","null","","","","","","","","",""
"null","","html-keyboard-response","171","157734","0.0-171.0","","","null","","","","","","","","",""
"644.5999999996275","","image-keyboard-response","172","158381","0.0-172.0","","img/set1/S2.jpg","68","2","random","68","random,structured_incentive,structured_normal,structured_load","2,1,3,4,2,3","true","","",""
"null","","html-keyboard-response","173","158733","0.0-173.0","","<img src=""img/set1/S2.jpg"" width=""540"" height = ""360"" style=""border:16px solid orange"">","null","","","","","","","","",""
"null","","html-keyboard-response","174","158935","0.0-174.0","","","null","","","","","","","","",""
"446.39999999990687","","image-keyboard-response","175","159383","0.0-175.0","","img/set1/S2.jpg","68","2","random","68","random,structured_incentive,structured_normal,structured_load","2,1,3,4,2,3","true","","",""
"null","","html-keyboard-response","176","159736","0.0-176.0","","<img src=""img/set1/S2.jpg"" width=""540"" height = ""360"" style=""border:16px solid orange"">","null","","","","","","","","",""
"null","","html-keyboard-response","177","159938","0.0-177.0","","","null","","","","","","","","",""
"503.1999999997206","","image-keyboard-response","178","160443","0.0-178.0","","img/set1/S1.jpg","83","1","random","83","random,structured_incentive,structured_normal,structured_load","2,1,3,4,2,3","true","","",""
"null","","html-keyboard-response","179","160795","0.0-179.0","","<img src=""img/set1/S1.jpg"" width=""540"" height = ""360"" style=""border:16px solid orange"">","null","","","","","","","","",""
"null","","html-keyboard-response","180","160997","0.0-180.0","","","null","","","","","","","","",""
"293.29999999981374","","image-keyboard-response","181","161291","0.0-181.0","","img/set1/S1.jpg","83","1","random","83","random,structured_incentive,structured_normal,structured_load","2,1,3,4,2,3","true","","",""
"null","","html-keyboard-response","182","161644","0.0-182.0","","<img src=""img/set1/S1.jpg"" width=""540"" height = ""360"" style=""border:16px solid orange"">","null","","","","","","","","",""
"null","","html-keyboard-response","183","161846","0.0-183.0","","","null","","","","","","","","",""
"533.3999999999069","","image-keyboard-response","184","162381","0.0-184.0","","img/set1/S2.jpg","68","2","random","68","random,structured_incentive,structured_normal,structured_load","2,1,3,4,2,3","true","","",""
"null","","html-keyboard-response","185","162733","0.0-185.0","","<img src=""img/set1/S2.jpg"" width=""540"" height = ""360"" style=""border:16px solid orange"">","null","","","","","","","","",""
"null","","html-keyboard-response","186","162935","0.0-186.0","","","null","","","","","","","","",""
"580.5","","image-keyboard-response","187","163517","0.0-187.0","","img/set1/S4.jpg","74","4","random","74","random,structured_incentive,structured_normal,structured_load","2,1,3,4,2,3","true","","",""
"null","","html-keyboard-response","188","163870","0.0-188.0","","<img src=""img/set1/S4.jpg"" width=""540"" height = ""360"" style=""border:16px solid orange"">","null","","","","","","","","",""
"null","","html-keyboard-response","189","164071","0.0-189.0","","","null","","","","","","","","",""
"373.09999999962747","","image-keyboard-response","190","164446","0.0-190.0","","img/set1/S3.jpg","72","3","random","72","random,structured_incentive,structured_normal,structured_load","2,1,3,4,2,3","true","","",""
"null","","html-keyboard-response","191","164799","0.0-191.0","","<img src=""img/set1/S3.jpg"" width=""540"" height = ""360"" style=""border:16px solid orange"">","null","","","","","","","","",""
"null","","html-keyboard-response","192","165001","0.0-192.0","","","null","","","","","","","","",""
"339.39999999990687","","image-keyboard-response","193","165342","0.0-193.0","","img/set1/S3.jpg","72","3","random","72","random,structured_incentive,structured_normal,structured_load","2,1,3,4,2,3","true","","",""
"null","","html-keyboard-response","194","165694","0.0-194.0","","<img src=""img/set1/S3.jpg"" width=""540"" height = ""360"" style=""border:16px solid orange"">","null","","","","","","","","",""
"null","","html-keyboard-response","195","165895","0.0-195.0","","","null","","","","","","","","",""
"495.8000000002794","","image-keyboard-response","196","166393","0.0-196.0","","img/set1/S2.jpg","68","2","random","68","random,structured_incentive,structured_normal,structured_load","2,1,3,4,2,3","true","","",""
"null","","html-keyboard-response","197","166747","0.0-197.0","","<img src=""img/set1/S2.jpg"" width=""540"" height = ""360"" style=""border:16px solid orange"">","null","","","","","","","","",""
"null","","html-keyboard-response","198","166949","0.0-198.0","","","null","","","","","","","","",""
"974.2000000001863","","image-keyboard-response","199","167925","0.0-199.0","","img/set1/S4.jpg","74","4","random","74","random,structured_incentive,structured_normal,structured_load","2,1,3,4,2,3","true","","",""
"null","","html-keyboard-response","200","168277","0.0-200.0","","<img src=""img/set1/S4.jpg"" width=""540"" height = ""360"" style=""border:16px solid orange"">","null","","","","","","","","",""
"null","","html-keyboard-response","201","168479","0.0-201.0","","","null","","","","","","","","",""
"409.40000000037253","","image-keyboard-response","202","168890","0.0-202.0","","img/set1/S3.jpg","72","3","random","72","random,structured_incentive,structured_normal,structured_load","2,1,3,4,2,3","true","","",""
"null","","html-keyboard-response","203","169243","0.0-203.0","","<img src=""img/set1/S3.jpg"" width=""540"" height = ""360"" style=""border:16px solid orange"">","null","","","","","","","","",""
"null","","html-keyboard-response","204","169445","0.0-204.0","","","null","","","","","","","","",""
"628.6000000000931","","image-keyboard-response","205","170075","0.0-205.0","","img/set1/S1.jpg","83","1","random","83","random,structured_incentive,structured_normal,structured_load","2,1,3,4,2,3","true","","",""
"null","","html-keyboard-response","206","170427","0.0-206.0","","<img src=""img/set1/S1.jpg"" width=""540"" height = ""360"" style=""border:16px solid orange"">","null","","","","","","","","",""
"null","","html-keyboard-response","207","170629","0.0-207.0","","","null","","","","","","","","",""
"829","","image-keyboard-response","208","171460","0.0-208.0","","img/set1/S4.jpg","74","4","random","74","random,structured_incentive,structured_normal,structured_load","2,1,3,4,2,3","true","","",""
"null","","html-keyboard-response","209","171813","0.0-209.0","","<img src=""img/set1/S4.jpg"" width=""540"" height = ""360"" style=""border:16px solid orange"">","null","","","","","","","","",""
"null","","html-keyboard-response","210","172014","0.0-210.0","","","null","","","","","","","","",""
"533.9000000003725","","image-keyboard-response","211","172550","0.0-211.0","","img/set1/S1.jpg","83","1","random","83","random,structured_incentive,structured_normal,structured_load","2,1,3,4,2,3","true","","",""
"null","","html-keyboard-response","212","172903","0.0-212.0","","<img src=""img/set1/S1.jpg"" width=""540"" height = ""360"" style=""border:16px solid orange"">","null","","","","","","","","",""
"null","","html-keyboard-response","213","173104","0.0-213.0","","","null","","","","","","","","",""
"635.6000000000931","","image-keyboard-response","214","173742","0.0-214.0","","img/set1/S2.jpg","68","2","random","68","random,structured_incentive,structured_normal,structured_load","2,1,3,4,2,3","true","","",""
"null","","html-keyboard-response","215","174095","0.0-215.0","","<img src=""img/set1/S2.jpg"" width=""540"" height = ""360"" style=""border:16px solid orange"">","null","","","","","","","","",""
"null","","html-keyboard-response","216","174296","0.0-216.0","","","null","","","","","","","","",""
"543.5","","image-keyboard-response","217","174842","0.0-217.0","","img/set1/S1.jpg","83","1","random","83","random,structured_incentive,structured_normal,structured_load","2,1,3,4,2,3","true","","",""
"null","","html-keyboard-response","218","175194","0.0-218.0","","<img src=""img/set1/S1.jpg"" width=""540"" height = ""360"" style=""border:16px solid orange"">","null","","","","","","","","",""
"null","","html-keyboard-response","219","175396","0.0-219.0","","","null","","","","","","","","",""
"405.59999999962747","","image-keyboard-response","220","175803","0.0-220.0","","img/set1/S2.jpg","83","2","random","68","random,structured_incentive,structured_normal,structured_load","2,1,3,4,2,3","false","","",""
"null","","html-keyboard-response","221","176156","0.0-221.0","","<img src=""img/set1/S2.jpg"" width=""540"" height = ""360"">","null","","","","","","","","",""
"null","","html-keyboard-response","222","176357","0.0-222.0","","","null","","","","","","","","",""
"514.6000000000931","","image-keyboard-response","223","176873","0.0-223.0","","img/set1/S3.jpg","72","3","random","72","random,structured_incentive,structured_normal,structured_load","2,1,3,4,2,3","true","","",""
"null","","html-keyboard-response","224","177226","0.0-224.0","","<img src=""img/set1/S3.jpg"" width=""540"" height = ""360"" style=""border:16px solid orange"">","null","","","","","","","","",""
"null","","html-keyboard-response","225","177427","0.0-225.0","","","null","","","","","","","","",""
"599.8999999999069","","image-keyboard-response","226","178029","0.0-226.0","","img/set1/S1.jpg","83","1","random","83","random,structured_incentive,structured_normal,structured_load","2,1,3,4,2,3","true","","",""
"null","","html-keyboard-response","227","178381","0.0-227.0","","<img src=""img/set1/S1.jpg"" width=""540"" height = ""360"" style=""border:16px solid orange"">","null","","","","","","","","",""
"null","","html-keyboard-response","228","178583","0.0-228.0","","","null","","","","","","","","",""
"384.6999999997206","","image-keyboard-response","229","178969","0.0-229.0","","img/set1/S1.jpg","83","1","random","83","random,structured_incentive,structured_normal,structured_load","2,1,3,4,2,3","true","","",""
"null","","html-keyboard-response","230","179322","0.0-230.0","","<img src=""img/set1/S1.jpg"" width=""540"" height = ""360"" style=""border:16px solid orange"">","null","","","","","","","","",""
"null","","html-keyboard-response","231","179523","0.0-231.0","","","null","","","","","","","","",""
"773","","image-keyboard-response","232","180298","0.0-232.0","","img/set1/S2.jpg","68","2","random","68","random,structured_incentive,structured_normal,structured_load","2,1,3,4,2,3","true","","",""
"null","","html-keyboard-response","233","180650","0.0-233.0","","<img src=""img/set1/S2.jpg"" width=""540"" height = ""360"" style=""border:16px solid orange"">","null","","","","","","","","",""
"null","","html-keyboard-response","234","180851","0.0-234.0","","","null","","","","","","","","",""
"576.2000000001863","","image-keyboard-response","235","181429","0.0-235.0","","img/set1/S4.jpg","74","4","random","74","random,structured_incentive,structured_normal,structured_load","2,1,3,4,2,3","true","","",""
"null","","html-keyboard-response","236","181782","0.0-236.0","","<img src=""img/set1/S4.jpg"" width=""540"" height = ""360"" style=""border:16px solid orange"">","null","","","","","","","","",""
"null","","html-keyboard-response","237","181983","0.0-237.0","","","null","","","","","","","","",""
"556.7999999998137","","image-keyboard-response","238","182541","0.0-238.0","","img/set1/S2.jpg","68","2","random","68","random,structured_incentive,structured_normal,structured_load","2,1,3,4,2,3","true","","",""
"null","","html-keyboard-response","239","182894","0.0-239.0","","<img src=""img/set1/S2.jpg"" width=""540"" height = ""360"" style=""border:16px solid orange"">","null","","","","","","","","",""
"null","","html-keyboard-response","240","183095","0.0-240.0","","","null","","","","","","","","",""
"507","","image-keyboard-response","241","183604","0.0-241.0","","img/set1/S1.jpg","83","1","random","83","random,structured_incentive,structured_normal,structured_load","2,1,3,4,2,3","true","","",""
"null","","html-keyboard-response","242","183956","0.0-242.0","","<img src=""img/set1/S1.jpg"" width=""540"" height = ""360"" style=""border:16px solid orange"">","null","","","","","","","","",""
"null","","html-keyboard-response","243","184158","0.0-243.0","","","null","","","","","","","","",""
"508.5","","image-keyboard-response","244","184669","0.0-244.0","","img/set1/S3.jpg","72","3","random","72","random,structured_incentive,structured_normal,structured_load","2,1,3,4,2,3","true","","",""
"null","","html-keyboard-response","245","185022","0.0-245.0","","<img src=""img/set1/S3.jpg"" width=""540"" height = ""360"" style=""border:16px solid orange"">","null","","","","","","","","",""
"null","","html-keyboard-response","246","185223","0.0-246.0","","","null","","","","","","","","",""
"610","","image-keyboard-response","247","185835","0.0-247.0","","img/set1/S2.jpg","68","2","random","68","random,structured_incentive,structured_normal,structured_load","2,1,3,4,2,3","true","","",""
"null","","html-keyboard-response","248","186188","0.0-248.0","","<img src=""img/set1/S2.jpg"" width=""540"" height = ""360"" style=""border:16px solid orange"">","null","","","","","","","","",""
"null","","html-keyboard-response","249","186389","0.0-249.0","","","null","","","","","","","","",""
"522.5999999996275","","image-keyboard-response","250","186914","0.0-250.0","","img/set1/S3.jpg","72","3","random","72","random,structured_incentive,structured_normal,structured_load","2,1,3,4,2,3","true","","",""
"null","","html-keyboard-response","251","187266","0.0-251.0","","<img src=""img/set1/S3.jpg"" width=""540"" height = ""360"" style=""border:16px solid orange"">","null","","","","","","","","",""
"null","","html-keyboard-response","252","187467","0.0-252.0","","","null","","","","","","","","",""
"490.10000000009313","","image-keyboard-response","253","187959","0.0-253.0","","img/set1/S4.jpg","74","4","random","74","random,structured_incentive,structured_normal,structured_load","2,1,3,4,2,3","true","","",""
"null","","html-keyboard-response","254","188312","0.0-254.0","","<img src=""img/set1/S4.jpg"" width=""540"" height = ""360"" style=""border:16px solid orange"">","null","","","","","","","","",""
"null","","html-keyboard-response","255","188514","0.0-255.0","","","null","","","","","","","","",""
"466.60000000009313","","image-keyboard-response","256","188982","0.0-256.0","","img/set1/S3.jpg","72","3","random","72","random,structured_incentive,structured_normal,structured_load","2,1,3,4,2,3","true","","",""
"null","","html-keyboard-response","257","189335","0.0-257.0","","<img src=""img/set1/S3.jpg"" width=""540"" height = ""360"" style=""border:16px solid orange"">","null","","","","","","","","",""
"null","","html-keyboard-response","258","189536","0.0-258.0","","","null","","","","","","","","",""
"881.3000000002794","","image-keyboard-response","259","190419","0.0-259.0","","img/set1/S2.jpg","68","2","random","68","random,structured_incentive,structured_normal,structured_load","2,1,3,4,2,3","true","","",""
"null","","html-keyboard-response","260","190771","0.0-260.0","","<img src=""img/set1/S2.jpg"" width=""540"" height = ""360"" style=""border:16px solid orange"">","null","","","","","","","","",""
"null","","html-keyboard-response","261","190973","0.0-261.0","","","null","","","","","","","","",""
"537.1999999997206","","image-keyboard-response","262","191511","0.0-262.0","","img/set1/S1.jpg","83","1","random","83","random,structured_incentive,structured_normal,structured_load","2,1,3,4,2,3","true","","",""
"null","","html-keyboard-response","263","191863","0.0-263.0","","<img src=""img/set1/S1.jpg"" width=""540"" height = ""360"" style=""border:16px solid orange"">","null","","","","","","","","",""
"null","","html-keyboard-response","264","192065","0.0-264.0","","","null","","","","","","","","",""
"485.60000000009313","","image-keyboard-response","265","192552","0.0-265.0","","img/set1/S1.jpg","83","1","random","83","random,structured_incentive,structured_normal,structured_load","2,1,3,4,2,3","true","","",""
"null","","html-keyboard-response","266","192905","0.0-266.0","","<img src=""img/set1/S1.jpg"" width=""540"" height = ""360"" style=""border:16px solid orange"">","null","","","","","","","","",""
"null","","html-keyboard-response","267","193106","0.0-267.0","","","null","","","","","","","","",""
"473.10000000009313","","image-keyboard-response","268","193581","0.0-268.0","","img/set1/S3.jpg","74","3","random","72","random,structured_incentive,structured_normal,structured_load","2,1,3,4,2,3","false","","",""
"null","","html-keyboard-response","269","193933","0.0-269.0","","<img src=""img/set1/S3.jpg"" width=""540"" height = ""360"">","null","","","","","","","","",""
"null","","html-keyboard-response","270","194135","0.0-270.0","","","null","","","","","","","","",""
"364.89999999990687","","image-keyboard-response","271","194502","0.0-271.0","","img/set1/S3.jpg","72","3","random","72","random,structured_incentive,structured_normal,structured_load","2,1,3,4,2,3","true","","",""
"null","","html-keyboard-response","272","194854","0.0-272.0","","<img src=""img/set1/S3.jpg"" width=""540"" height = ""360"" style=""border:16px solid orange"">","null","","","","","","","","",""
"null","","html-keyboard-response","273","195056","0.0-273.0","","","null","","","","","","","","",""
"603.9000000003725","","image-keyboard-response","274","195662","0.0-274.0","","img/set1/S2.jpg","68","2","random","68","random,structured_incentive,structured_normal,structured_load","2,1,3,4,2,3","true","","",""
"null","","html-keyboard-response","275","196015","0.0-275.0","","<img src=""img/set1/S2.jpg"" width=""540"" height = ""360"" style=""border:16px solid orange"">","null","","","","","","","","",""
"null","","html-keyboard-response","276","196217","0.0-276.0","","","null","","","","","","","","",""
"375.70000000018626","","image-keyboard-response","277","196594","0.0-277.0","","img/set1/S3.jpg","72","3","random","72","random,structured_incentive,structured_normal,structured_load","2,1,3,4,2,3","true","","",""
"null","","html-keyboard-response","278","196947","0.0-278.0","","<img src=""img/set1/S3.jpg"" width=""540"" height = ""360"" style=""border:16px solid orange"">","null","","","","","","","","",""
"null","","html-keyboard-response","279","197148","0.0-279.0","","","null","","","","","","","","",""
"441.70000000018626","","image-keyboard-response","280","197593","0.0-280.0","","img/set1/S4.jpg","68","4","random","74","random,structured_incentive,structured_normal,structured_load","2,1,3,4,2,3","false","","",""
"null","","html-keyboard-response","281","197945","0.0-281.0","","<img src=""img/set1/S4.jpg"" width=""540"" height = ""360"">","null","","","","","","","","",""
"null","","html-keyboard-response","282","198147","0.0-282.0","","","null","","","","","","","","",""
"470.09999999962747","","image-keyboard-response","283","198619","0.0-283.0","","img/set1/S4.jpg","74","4","random","74","random,structured_incentive,structured_normal,structured_load","2,1,3,4,2,3","true","","",""
"null","","html-keyboard-response","284","198971","0.0-284.0","","<img src=""img/set1/S4.jpg"" width=""540"" height = ""360"" style=""border:16px solid orange"">","null","","","","","","","","",""
"null","","html-keyboard-response","285","199173","0.0-285.0","","","null","","","","","","","","",""
"413.29999999981374","","image-keyboard-response","286","199588","0.0-286.0","","img/set1/S4.jpg","74","4","random","74","random,structured_incentive,structured_normal,structured_load","2,1,3,4,2,3","true","","",""
"null","","html-keyboard-response","287","199941","0.0-287.0","","<img src=""img/set1/S4.jpg"" width=""540"" height = ""360"" style=""border:16px solid orange"">","null","","","","","","","","",""
"null","","html-keyboard-response","288","200143","0.0-288.0","","","null","","","","","","","","",""
"622.8999999999069","","image-keyboard-response","289","200767","0.0-289.0","","img/set1/S2.jpg","68","2","random","68","random,structured_incentive,structured_normal,structured_load","2,1,3,4,2,3","true","","",""
"null","","html-keyboard-response","290","201120","0.0-290.0","","<img src=""img/set1/S2.jpg"" width=""540"" height = ""360"" style=""border:16px solid orange"">","null","","","","","","","","",""
"null","","html-keyboard-response","291","201322","0.0-291.0","","","null","","","","","","","","",""
"535.3999999999069","","image-keyboard-response","292","201859","0.0-292.0","","img/set1/S3.jpg","72","3","random","72","random,structured_incentive,structured_normal,structured_load","2,1,3,4,2,3","true","","",""
"null","","html-keyboard-response","293","202211","0.0-293.0","","<img src=""img/set1/S3.jpg"" width=""540"" height = ""360"" style=""border:16px solid orange"">","null","","","","","","","","",""
"null","","html-keyboard-response","294","202413","0.0-294.0","","","null","","","","","","","","",""
"511.29999999981374","","image-keyboard-response","295","202926","0.0-295.0","","img/set1/S1.jpg","83","1","random","83","random,structured_incentive,structured_normal,structured_load","2,1,3,4,2,3","true","","",""
"null","","html-keyboard-response","296","203278","0.0-296.0","","<img src=""img/set1/S1.jpg"" width=""540"" height = ""360"" style=""border:16px solid orange"">","null","","","","","","","","",""
"null","","html-keyboard-response","297","203480","0.0-297.0","","","null","","","","","","","","",""
"1124.6000000000931","","image-keyboard-response","298","204606","0.0-298.0","","img/set1/S3.jpg","72","3","random","72","random,structured_incentive,structured_normal,structured_load","2,1,3,4,2,3","true","","",""
"null","","html-keyboard-response","299","204959","0.0-299.0","","<img src=""img/set1/S3.jpg"" width=""540"" height = ""360"" style=""border:16px solid orange"">","null","","","","","","","","",""
"null","","html-keyboard-response","300","205161","0.0-300.0","","","null","","","","","","","","",""
"875.3999999999069","","image-keyboard-response","301","206038","0.0-301.0","","img/set1/S1.jpg","83","1","random","83","random,structured_incentive,structured_normal,structured_load","2,1,3,4,2,3","true","","",""
"null","","html-keyboard-response","302","206391","0.0-302.0","","<img src=""img/set1/S1.jpg"" width=""540"" height = ""360"" style=""border:16px solid orange"">","null","","","","","","","","",""
"null","","html-keyboard-response","303","206592","0.0-303.0","","","null","","","","","","","","",""
"381.5","","image-keyboard-response","304","206975","0.0-304.0","","img/set1/S1.jpg","83","1","random","83","random,structured_incentive,structured_normal,structured_load","2,1,3,4,2,3","true","","",""
"null","","html-keyboard-response","305","207328","0.0-305.0","","<img src=""img/set1/S1.jpg"" width=""540"" height = ""360"" style=""border:16px solid orange"">","null","","","","","","","","",""
"null","","html-keyboard-response","306","207530","0.0-306.0","","","null","","","","","","","","",""
"633.9000000003725","","image-keyboard-response","307","208165","0.0-307.0","","img/set1/S3.jpg","72","3","random","72","random,structured_incentive,structured_normal,structured_load","2,1,3,4,2,3","true","","",""
"null","","html-keyboard-response","308","208518","0.0-308.0","","<img src=""img/set1/S3.jpg"" width=""540"" height = ""360"" style=""border:16px solid orange"">","null","","","","","","","","",""
"null","","html-keyboard-response","309","208720","0.0-309.0","","","null","","","","","","","","",""
"333.79999999981374","","image-keyboard-response","310","209055","0.0-310.0","","img/set1/S3.jpg","72","3","random","72","random,structured_incentive,structured_normal,structured_load","2,1,3,4,2,3","true","","",""
"null","","html-keyboard-response","311","209408","0.0-311.0","","<img src=""img/set1/S3.jpg"" width=""540"" height = ""360"" style=""border:16px solid orange"">","null","","","","","","","","",""
"null","","html-keyboard-response","312","209609","0.0-312.0","","","null","","","","","","","","",""
"904.3000000002794","","image-keyboard-response","313","210516","0.0-313.0","","img/set1/S2.jpg","68","2","random","68","random,structured_incentive,structured_normal,structured_load","2,1,3,4,2,3","true","","",""
"null","","html-keyboard-response","314","210868","0.0-314.0","","<img src=""img/set1/S2.jpg"" width=""540"" height = ""360"" style=""border:16px solid orange"">","null","","","","","","","","",""
"null","","html-keyboard-response","315","211070","0.0-315.0","","","null","","","","","","","","",""
"647","","image-keyboard-response","316","211718","0.0-316.0","","img/set1/S4.jpg","74","4","random","74","random,structured_incentive,structured_normal,structured_load","2,1,3,4,2,3","true","","",""
"null","","html-keyboard-response","317","212071","0.0-317.0","","<img src=""img/set1/S4.jpg"" width=""540"" height = ""360"" style=""border:16px solid orange"">","null","","","","","","","","",""
"null","","html-keyboard-response","318","212273","0.0-318.0","","","null","","","","","","","","",""
"568.1000000000931","","image-keyboard-response","319","212843","0.0-319.0","","img/set1/S1.jpg","83","1","random","83","random,structured_incentive,structured_normal,structured_load","2,1,3,4,2,3","true","","",""
"null","","html-keyboard-response","320","213196","0.0-320.0","","<img src=""img/set1/S1.jpg"" width=""540"" height = ""360"" style=""border:16px solid orange"">","null","","","","","","","","",""
"null","","html-keyboard-response","321","213397","0.0-321.0","","","null","","","","","","","","",""
"468.89999999990687","","image-keyboard-response","322","213868","0.0-322.0","","img/set1/S2.jpg","68","2","random","68","random,structured_incentive,structured_normal,structured_load","2,1,3,4,2,3","true","","",""
"null","","html-keyboard-response","323","214220","0.0-323.0","","<img src=""img/set1/S2.jpg"" width=""540"" height = ""360"" style=""border:16px solid orange"">","null","","","","","","","","",""
"null","","html-keyboard-response","324","214422","0.0-324.0","","","null","","","","","","","","",""
"921.2999999998137","","image-keyboard-response","325","215344","0.0-325.0","","img/set1/S4.jpg","74","4","random","74","random,structured_incentive,structured_normal,structured_load","2,1,3,4,2,3","true","","",""
"null","","html-keyboard-response","326","215697","0.0-326.0","","<img src=""img/set1/S4.jpg"" width=""540"" height = ""360"" style=""border:16px solid orange"">","null","","","","","","","","",""
"null","","html-keyboard-response","327","215899","0.0-327.0","","","null","","","","","","","","",""
"1005.2000000001863","","image-keyboard-response","328","216906","0.0-328.0","","img/set1/S3.jpg","72","3","random","72","random,structured_incentive,structured_normal,structured_load","2,1,3,4,2,3","true","","",""
"null","","html-keyboard-response","329","217259","0.0-329.0","","<img src=""img/set1/S3.jpg"" width=""540"" height = ""360"" style=""border:16px solid orange"">","null","","","","","","","","",""
"null","","html-keyboard-response","330","217461","0.0-330.0","","","null","","","","","","","","",""
"562.1999999997206","","image-keyboard-response","331","218025","0.0-331.0","","img/set1/S2.jpg","68","2","random","68","random,structured_incentive,structured_normal,structured_load","2,1,3,4,2,3","true","","",""
"null","","html-keyboard-response","332","218378","0.0-332.0","","<img src=""img/set1/S2.jpg"" width=""540"" height = ""360"" style=""border:16px solid orange"">","null","","","","","","","","",""
"null","","html-keyboard-response","333","218580","0.0-333.0","","","null","","","","","","","","",""
"470","","image-keyboard-response","334","219052","0.0-334.0","","img/set1/S4.jpg","72","4","random","74","random,structured_incentive,structured_normal,structured_load","2,1,3,4,2,3","false","","",""
"null","","html-keyboard-response","335","219404","0.0-335.0","","<img src=""img/set1/S4.jpg"" width=""540"" height = ""360"">","null","","","","","","","","",""
"null","","html-keyboard-response","336","219606","0.0-336.0","","","null","","","","","","","","",""
"1295.9000000003725","","image-keyboard-response","337","220904","0.0-337.0","","img/set1/S4.jpg","74","4","random","74","random,structured_incentive,structured_normal,structured_load","2,1,3,4,2,3","true","","",""
"null","","html-keyboard-response","338","221257","0.0-338.0","","<img src=""img/set1/S4.jpg"" width=""540"" height = ""360"" style=""border:16px solid orange"">","null","","","","","","","","",""
"null","","html-keyboard-response","339","221458","0.0-339.0","","","null","","","","","","","","",""
"519.5","","image-keyboard-response","340","221980","0.0-340.0","","img/set1/S3.jpg","68","3","random","72","random,structured_incentive,structured_normal,structured_load","2,1,3,4,2,3","false","","",""
"null","","html-keyboard-response","341","222332","0.0-341.0","","<img src=""img/set1/S3.jpg"" width=""540"" height = ""360"">","null","","","","","","","","",""
"null","","html-keyboard-response","342","222534","0.0-342.0","","","null","","","","","","","","",""
"315.29999999981374","","image-keyboard-response","343","222851","0.0-343.0","","img/set1/S3.jpg","72","3","random","72","random,structured_incentive,structured_normal,structured_load","2,1,3,4,2,3","true","","",""
"null","","html-keyboard-response","344","223204","0.0-344.0","","<img src=""img/set1/S3.jpg"" width=""540"" height = ""360"" style=""border:16px solid orange"">","null","","","","","","","","",""
"null","","html-keyboard-response","345","223405","0.0-345.0","","","null","","","","","","","","",""
"680.0999999996275","","image-keyboard-response","346","224087","0.0-346.0","","img/set1/S4.jpg","68","4","random","74","random,structured_incentive,structured_normal,structured_load","2,1,3,4,2,3","false","","",""
"null","","html-keyboard-response","347","224440","0.0-347.0","","<img src=""img/set1/S4.jpg"" width=""540"" height = ""360"">","null","","","","","","","","",""
"null","","html-keyboard-response","348","224642","0.0-348.0","","","null","","","","","","","","",""
"968","","image-keyboard-response","349","225612","0.0-349.0","","img/set1/S4.jpg","74","4","random","74","random,structured_incentive,structured_normal,structured_load","2,1,3,4,2,3","true","","",""
"null","","html-keyboard-response","350","225965","0.0-350.0","","<img src=""img/set1/S4.jpg"" width=""540"" height = ""360"" style=""border:16px solid orange"">","null","","","","","","","","",""
"null","","html-keyboard-response","351","226166","0.0-351.0","","","null","","","","","","","","",""
"321.60000000009313","","image-keyboard-response","352","226489","0.0-352.0","","img/set1/S4.jpg","74","4","random","74","random,structured_incentive,structured_normal,structured_load","2,1,3,4,2,3","true","","",""
"null","","html-keyboard-response","353","226842","0.0-353.0","","<img src=""img/set1/S4.jpg"" width=""540"" height = ""360"" style=""border:16px solid orange"">","null","","","","","","","","",""
"null","","html-keyboard-response","354","227044","0.0-354.0","","","null","","","","","","","","",""
"599","","image-keyboard-response","355","227644","0.0-355.0","","img/set1/S2.jpg","68","2","random","68","random,structured_incentive,structured_normal,structured_load","2,1,3,4,2,3","true","","",""
"null","","html-keyboard-response","356","227997","0.0-356.0","","<img src=""img/set1/S2.jpg"" width=""540"" height = ""360"" style=""border:16px solid orange"">","null","","","","","","","","",""
"null","","html-keyboard-response","357","228199","0.0-357.0","","","null","","","","","","","","",""
"565.8999999999069","","image-keyboard-response","358","228766","0.0-358.0","","img/set1/S4.jpg","74","4","random","74","random,structured_incentive,structured_normal,structured_load","2,1,3,4,2,3","true","","",""
"null","","html-keyboard-response","359","229119","0.0-359.0","","<img src=""img/set1/S4.jpg"" width=""540"" height = ""360"" style=""border:16px solid orange"">","null","","","","","","","","",""
"null","","html-keyboard-response","360","229321","0.0-360.0","","","null","","","","","","","","",""
"486.5","","image-keyboard-response","361","229809","0.0-361.0","","img/set1/S3.jpg","72","3","random","72","random,structured_incentive,structured_normal,structured_load","2,1,3,4,2,3","true","","",""
"null","","html-keyboard-response","362","230162","0.0-362.0","","<img src=""img/set1/S3.jpg"" width=""540"" height = ""360"" style=""border:16px solid orange"">","null","","","","","","","","",""
"null","","html-keyboard-response","363","230364","0.0-363.0","","","null","","","","","","","","",""
"null","","html-keyboard-response","364","290366","0.0-364.0","","<p class=""center-content"">You have completed a block! </p><p class=""center-content"">Press any key on the keyboard to continue, </p><p class=""center-content"">or wait for the automatic progression to the next block after one minute.</p>","null","","","","","","","","",""
"3941.899999999907","","instructions","365","294309","0.0-365.0","[{""page_index"":0,""viewing_time"":3941.399999999907}]","","","","","","","","","","",""
"14922.5","","instructions","366","309233","0.0-366.0","[{""page_index"":0,""viewing_time"":9093.30000000028},{""page_index"":1,""viewing_time"":5828.5}]","","","","","","","","","","",""
"801.1999999997206","","image-keyboard-response","367","310036","0.0-367.0","","img/set2/S2.jpg","83","2","structured_incentive","68","random,structured_incentive,structured_normal,structured_load","2,1,3,4,2,3","false","","",""
"null","","html-keyboard-response","368","310389","0.0-368.0","","<img src=""img/set2/S2.jpg"" width=""540"" height = ""360"">","null","","","","","","","","",""
"null","","html-keyboard-response","369","310590","0.0-369.0","","","null","","","","","","","","",""
"1080.5","","image-keyboard-response","370","311673","0.0-370.0","","img/set2/S1.jpg","83","1","structured_incentive","83","random,structured_incentive,structured_normal,structured_load","2,1,3,4,2,3","true","","",""
"null","","html-keyboard-response","371","312025","0.0-371.0","","<img src=""img/set2/S1.jpg"" width=""540"" height = ""360"" style=""border:16px solid Violet"">","null","","","","","","","","",""
"null","","html-keyboard-response","372","312227","0.0-372.0","","","null","","","","","","","","",""
"711.6999999997206","","image-keyboard-response","373","312940","0.0-373.0","","img/set2/S4.jpg","68","4","structured_incentive","74","random,structured_incentive,structured_normal,structured_load","2,1,3,4,2,3","false","","",""
"null","","html-keyboard-response","374","313293","0.0-374.0","","<img src=""img/set2/S4.jpg"" width=""540"" height = ""360"">","null","","","","","","","","",""
"null","","html-keyboard-response","375","313495","0.0-375.0","","","null","","","","","","","","",""
"997.8999999999069","","image-keyboard-response","376","314494","0.0-376.0","","img/set2/S3.jpg","72","3","structured_incentive","72","random,structured_incentive,structured_normal,structured_load","2,1,3,4,2,3","true","","",""
"null","","html-keyboard-response","377","314847","0.0-377.0","","<img src=""img/set2/S3.jpg"" width=""540"" height = ""360"" style=""border:16px solid orange"">","null","","","","","","","","",""
"null","","html-keyboard-response","378","315049","0.0-378.0","","","null","","","","","","","","",""
"1496.8999999999069","","image-keyboard-response","379","316547","0.0-379.0","","img/set2/S4.jpg","68","4","structured_incentive","74","random,structured_incentive,structured_normal,structured_load","2,1,3,4,2,3","false","","",""
"null","","html-keyboard-response","380","316899","0.0-380.0","","<img src=""img/set2/S4.jpg"" width=""540"" height = ""360"">","null","","","","","","","","",""
"null","","html-keyboard-response","381","317101","0.0-381.0","","","null","","","","","","","","",""
"654.3000000002794","","image-keyboard-response","382","317757","0.0-382.0","","img/set2/S4.jpg","83","4","structured_incentive","74","random,structured_incentive,structured_normal,structured_load","2,1,3,4,2,3","false","","",""
"null","","html-keyboard-response","383","318109","0.0-383.0","","<img src=""img/set2/S4.jpg"" width=""540"" height = ""360"">","null","","","","","","","","",""
"null","","html-keyboard-response","384","318311","0.0-384.0","","","null","","","","","","","","",""
"764","","image-keyboard-response","385","319077","0.0-385.0","","img/set2/S3.jpg","72","3","structured_incentive","72","random,structured_incentive,structured_normal,structured_load","2,1,3,4,2,3","true","","",""
"null","","html-keyboard-response","386","319430","0.0-386.0","","<img src=""img/set2/S3.jpg"" width=""540"" height = ""360"" style=""border:16px solid orange"">","null","","","","","","","","",""
"null","","html-keyboard-response","387","319632","0.0-387.0","","","null","","","","","","","","",""
"1081","","image-keyboard-response","388","320715","0.0-388.0","","img/set2/S4.jpg","74","4","structured_incentive","74","random,structured_incentive,structured_normal,structured_load","2,1,3,4,2,3","true","","",""
"null","","html-keyboard-response","389","321068","0.0-389.0","","<img src=""img/set2/S4.jpg"" width=""540"" height = ""360"" style=""border:16px solid orange"">","null","","","","","","","","",""
"null","","html-keyboard-response","390","321269","0.0-390.0","","","null","","","","","","","","",""
"399.70000000018626","","image-keyboard-response","391","321671","0.0-391.0","","img/set2/S3.jpg","72","3","structured_incentive","72","random,structured_incentive,structured_normal,structured_load","2,1,3,4,2,3","true","","",""
"null","","html-keyboard-response","392","322023","0.0-392.0","","<img src=""img/set2/S3.jpg"" width=""540"" height = ""360"" style=""border:16px solid orange"">","null","","","","","","","","",""
"null","","html-keyboard-response","393","322225","0.0-393.0","","","null","","","","","","","","",""
"461.40000000037253","","image-keyboard-response","394","322688","0.0-394.0","","img/set2/S4.jpg","74","4","structured_incentive","74","random,structured_incentive,structured_normal,structured_load","2,1,3,4,2,3","true","","",""
"null","","html-keyboard-response","395","323040","0.0-395.0","","<img src=""img/set2/S4.jpg"" width=""540"" height = ""360"" style=""border:16px solid orange"">","null","","","","","","","","",""
"null","","html-keyboard-response","396","323242","0.0-396.0","","","null","","","","","","","","",""
"923.3999999999069","","image-keyboard-response","397","324167","0.0-397.0","","img/set2/S2.jpg","68","2","structured_incentive","68","random,structured_incentive,structured_normal,structured_load","2,1,3,4,2,3","true","","",""
"null","","html-keyboard-response","398","324520","0.0-398.0","","<img src=""img/set2/S2.jpg"" width=""540"" height = ""360"" style=""border:16px solid orange"">","null","","","","","","","","",""
"null","","html-keyboard-response","399","324721","0.0-399.0","","","null","","","","","","","","",""
"442.3000000002794","","image-keyboard-response","400","325165","0.0-400.0","","img/set2/S1.jpg","83","1","structured_incentive","83","random,structured_incentive,structured_normal,structured_load","2,1,3,4,2,3","true","","",""
"null","","html-keyboard-response","401","325518","0.0-401.0","","<img src=""img/set2/S1.jpg"" width=""540"" height = ""360"" style=""border:16px solid Violet"">","null","","","","","","","","",""
"null","","html-keyboard-response","402","325720","0.0-402.0","","","null","","","","","","","","",""
"713.3999999999069","","image-keyboard-response","403","326435","0.0-403.0","","img/set2/S4.jpg","74","4","structured_incentive","74","random,structured_incentive,structured_normal,structured_load","2,1,3,4,2,3","true","","",""
"null","","html-keyboard-response","404","326788","0.0-404.0","","<img src=""img/set2/S4.jpg"" width=""540"" height = ""360"" style=""border:16px solid orange"">","null","","","","","","","","",""
"null","","html-keyboard-response","405","326990","0.0-405.0","","","null","","","","","","","","",""
"489.79999999981374","","image-keyboard-response","406","327481","0.0-406.0","","img/set2/S4.jpg","74","4","structured_incentive","74","random,structured_incentive,structured_normal,structured_load","2,1,3,4,2,3","true","","",""
"null","","html-keyboard-response","407","327834","0.0-407.0","","<img src=""img/set2/S4.jpg"" width=""540"" height = ""360"" style=""border:16px solid orange"">","null","","","","","","","","",""
"null","","html-keyboard-response","408","328036","0.0-408.0","","","null","","","","","","","","",""
"496","","image-keyboard-response","409","328533","0.0-409.0","","img/set2/S3.jpg","72","3","structured_incentive","72","random,structured_incentive,structured_normal,structured_load","2,1,3,4,2,3","true","","",""
"null","","html-keyboard-response","410","328886","0.0-410.0","","<img src=""img/set2/S3.jpg"" width=""540"" height = ""360"" style=""border:16px solid orange"">","null","","","","","","","","",""
"null","","html-keyboard-response","411","329087","0.0-411.0","","","null","","","","","","","","",""
"739.1000000000931","","image-keyboard-response","412","329828","0.0-412.0","","img/set2/S4.jpg","74","4","structured_incentive","74","random,structured_incentive,structured_normal,structured_load","2,1,3,4,2,3","true","","",""
"null","","html-keyboard-response","413","330182","0.0-413.0","","<img src=""img/set2/S4.jpg"" width=""540"" height = ""360"" style=""border:16px solid orange"">","null","","","","","","","","",""
"null","","html-keyboard-response","414","330384","0.0-414.0","","","null","","","","","","","","",""
"1716.5","","image-keyboard-response","415","332102","0.0-415.0","","img/set2/S2.jpg","68","2","structured_incentive","68","random,structured_incentive,structured_normal,structured_load","2,1,3,4,2,3","true","","",""
"null","","html-keyboard-response","416","332455","0.0-416.0","","<img src=""img/set2/S2.jpg"" width=""540"" height = ""360"" style=""border:16px solid orange"">","null","","","","","","","","",""
"null","","html-keyboard-response","417","332656","0.0-417.0","","","null","","","","","","","","",""
"469","","image-keyboard-response","418","333127","0.0-418.0","","img/set2/S1.jpg","83","1","structured_incentive","83","random,structured_incentive,structured_normal,structured_load","2,1,3,4,2,3","true","","",""
"null","","html-keyboard-response","419","333479","0.0-419.0","","<img src=""img/set2/S1.jpg"" width=""540"" height = ""360"" style=""border:16px solid Violet"">","null","","","","","","","","",""
"null","","html-keyboard-response","420","333681","0.0-420.0","","","null","","","","","","","","",""
"723.5","","image-keyboard-response","421","334407","0.0-421.0","","img/set2/S2.jpg","68","2","structured_incentive","68","random,structured_incentive,structured_normal,structured_load","2,1,3,4,2,3","true","","",""
"null","","html-keyboard-response","422","334759","0.0-422.0","","<img src=""img/set2/S2.jpg"" width=""540"" height = ""360"" style=""border:16px solid orange"">","null","","","","","","","","",""
"null","","html-keyboard-response","423","334961","0.0-423.0","","","null","","","","","","","","",""
"418.6999999997206","","image-keyboard-response","424","335382","0.0-424.0","","img/set2/S1.jpg","83","1","structured_incentive","83","random,structured_incentive,structured_normal,structured_load","2,1,3,4,2,3","true","","",""
"null","","html-keyboard-response","425","335734","0.0-425.0","","<img src=""img/set2/S1.jpg"" width=""540"" height = ""360"" style=""border:16px solid Violet"">","null","","","","","","","","",""
"null","","html-keyboard-response","426","335936","0.0-426.0","","","null","","","","","","","","",""
"611.8999999999069","","image-keyboard-response","427","336550","0.0-427.0","","img/set2/S4.jpg","74","4","structured_incentive","74","random,structured_incentive,structured_normal,structured_load","2,1,3,4,2,3","true","","",""
"null","","html-keyboard-response","428","336902","0.0-428.0","","<img src=""img/set2/S4.jpg"" width=""540"" height = ""360"" style=""border:16px solid orange"">","null","","","","","","","","",""
"null","","html-keyboard-response","429","337104","0.0-429.0","","","null","","","","","","","","",""
"636.2999999998137","","image-keyboard-response","430","337742","0.0-430.0","","img/set2/S3.jpg","72","3","structured_incentive","72","random,structured_incentive,structured_normal,structured_load","2,1,3,4,2,3","true","","",""
"null","","html-keyboard-response","431","338095","0.0-431.0","","<img src=""img/set2/S3.jpg"" width=""540"" height = ""360"" style=""border:16px solid orange"">","null","","","","","","","","",""
"null","","html-keyboard-response","432","338297","0.0-432.0","","","null","","","","","","","","",""
"636.8000000002794","","image-keyboard-response","433","338935","0.0-433.0","","img/set2/S4.jpg","74","4","structured_incentive","74","random,structured_incentive,structured_normal,structured_load","2,1,3,4,2,3","true","","",""
"null","","html-keyboard-response","434","339288","0.0-434.0","","<img src=""img/set2/S4.jpg"" width=""540"" height = ""360"" style=""border:16px solid orange"">","null","","","","","","","","",""
"null","","html-keyboard-response","435","339490","0.0-435.0","","","null","","","","","","","","",""
"516","","image-keyboard-response","436","340007","0.0-436.0","","img/set2/S2.jpg","74","2","structured_incentive","68","random,structured_incentive,structured_normal,structured_load","2,1,3,4,2,3","false","","",""
"null","","html-keyboard-response","437","340360","0.0-437.0","","<img src=""img/set2/S2.jpg"" width=""540"" height = ""360"">","null","","","","","","","","",""
"null","","html-keyboard-response","438","340562","0.0-438.0","","","null","","","","","","","","",""
"766.5","","image-keyboard-response","439","341330","0.0-439.0","","img/set2/S1.jpg","83","1","structured_incentive","83","random,structured_incentive,structured_normal,structured_load","2,1,3,4,2,3","true","","",""
"null","","html-keyboard-response","440","341683","0.0-440.0","","<img src=""img/set2/S1.jpg"" width=""540"" height = ""360"" style=""border:16px solid Violet"">","null","","","","","","","","",""
"null","","html-keyboard-response","441","341885","0.0-441.0","","","null","","","","","","","","",""
"532.7000000001863","","image-keyboard-response","442","342419","0.0-442.0","","img/set2/S2.jpg","68","2","structured_incentive","68","random,structured_incentive,structured_normal,structured_load","2,1,3,4,2,3","true","","",""
"null","","html-keyboard-response","443","342772","0.0-443.0","","<img src=""img/set2/S2.jpg"" width=""540"" height = ""360"" style=""border:16px solid orange"">","null","","","","","","","","",""
"null","","html-keyboard-response","444","342973","0.0-444.0","","","null","","","","","","","","",""
"548.1000000000931","","image-keyboard-response","445","343523","0.0-445.0","","img/set2/S1.jpg","83","1","structured_incentive","83","random,structured_incentive,structured_normal,structured_load","2,1,3,4,2,3","true","","",""
"null","","html-keyboard-response","446","343876","0.0-446.0","","<img src=""img/set2/S1.jpg"" width=""540"" height = ""360"" style=""border:16px solid Violet"">","null","","","","","","","","",""
"null","","html-keyboard-response","447","344078","0.0-447.0","","","null","","","","","","","","",""
"621.0999999996275","","image-keyboard-response","448","344700","0.0-448.0","","img/set2/S4.jpg","74","4","structured_incentive","74","random,structured_incentive,structured_normal,structured_load","2,1,3,4,2,3","true","","",""
"null","","html-keyboard-response","449","345053","0.0-449.0","","<img src=""img/set2/S4.jpg"" width=""540"" height = ""360"" style=""border:16px solid orange"">","null","","","","","","","","",""
"null","","html-keyboard-response","450","345255","0.0-450.0","","","null","","","","","","","","",""
"597.1999999997206","","image-keyboard-response","451","345854","0.0-451.0","","img/set2/S4.jpg","74","4","structured_incentive","74","random,structured_incentive,structured_normal,structured_load","2,1,3,4,2,3","true","","",""
"null","","html-keyboard-response","452","346206","0.0-452.0","","<img src=""img/set2/S4.jpg"" width=""540"" height = ""360"" style=""border:16px solid orange"">","null","","","","","","","","",""
"null","","html-keyboard-response","453","346408","0.0-453.0","","","null","","","","","","","","",""
"547.5","","image-keyboard-response","454","346957","0.0-454.0","","img/set2/S3.jpg","72","3","structured_incentive","72","random,structured_incentive,structured_normal,structured_load","2,1,3,4,2,3","true","","",""
"null","","html-keyboard-response","455","347310","0.0-455.0","","<img src=""img/set2/S3.jpg"" width=""540"" height = ""360"" style=""border:16px solid orange"">","null","","","","","","","","",""
"null","","html-keyboard-response","456","347511","0.0-456.0","","","null","","","","","","","","",""
"748.4000000003725","","image-keyboard-response","457","348261","0.0-457.0","","img/set2/S2.jpg","68","2","structured_incentive","68","random,structured_incentive,structured_normal,structured_load","2,1,3,4,2,3","true","","",""
"null","","html-keyboard-response","458","348614","0.0-458.0","","<img src=""img/set2/S2.jpg"" width=""540"" height = ""360"" style=""border:16px solid orange"">","null","","","","","","","","",""
"null","","html-keyboard-response","459","348816","0.0-459.0","","","null","","","","","","","","",""
"399.6999999997206","","image-keyboard-response","460","349217","0.0-460.0","","img/set2/S1.jpg","83","1","structured_incentive","83","random,structured_incentive,structured_normal,structured_load","2,1,3,4,2,3","true","","",""
"null","","html-keyboard-response","461","349570","0.0-461.0","","<img src=""img/set2/S1.jpg"" width=""540"" height = ""360"" style=""border:16px solid Violet"">","null","","","","","","","","",""
"null","","html-keyboard-response","462","349772","0.0-462.0","","","null","","","","","","","","",""
"649.0999999996275","","image-keyboard-response","463","350423","0.0-463.0","","img/set2/S2.jpg","68","2","structured_incentive","68","random,structured_incentive,structured_normal,structured_load","2,1,3,4,2,3","true","","",""
"null","","html-keyboard-response","464","350776","0.0-464.0","","<img src=""img/set2/S2.jpg"" width=""540"" height = ""360"" style=""border:16px solid orange"">","null","","","","","","","","",""
"null","","html-keyboard-response","465","350978","0.0-465.0","","","null","","","","","","","","",""
"475.09999999962747","","image-keyboard-response","466","351456","0.0-466.0","","img/set2/S1.jpg","68","1","structured_incentive","83","random,structured_incentive,structured_normal,structured_load","2,1,3,4,2,3","false","","",""
"null","","html-keyboard-response","467","351808","0.0-467.0","","<img src=""img/set2/S1.jpg"" width=""540"" height = ""360"">","null","","","","","","","","",""
"null","","html-keyboard-response","468","352010","0.0-468.0","","","null","","","","","","","","",""
"610.2999999998137","","image-keyboard-response","469","352622","0.0-469.0","","img/set2/S2.jpg","68","2","structured_incentive","68","random,structured_incentive,structured_normal,structured_load","2,1,3,4,2,3","true","","",""
"null","","html-keyboard-response","470","352975","0.0-470.0","","<img src=""img/set2/S2.jpg"" width=""540"" height = ""360"" style=""border:16px solid orange"">","null","","","","","","","","",""
"null","","html-keyboard-response","471","353177","0.0-471.0","","","null","","","","","","","","",""
"449.5","","image-keyboard-response","472","353628","0.0-472.0","","img/set2/S1.jpg","83","1","structured_incentive","83","random,structured_incentive,structured_normal,structured_load","2,1,3,4,2,3","true","","",""
"null","","html-keyboard-response","473","353981","0.0-473.0","","<img src=""img/set2/S1.jpg"" width=""540"" height = ""360"" style=""border:16px solid Violet"">","null","","","","","","","","",""
"null","","html-keyboard-response","474","354183","0.0-474.0","","","null","","","","","","","","",""
"646.5","","image-keyboard-response","475","354831","0.0-475.0","","img/set2/S4.jpg","74","4","structured_incentive","74","random,structured_incentive,structured_normal,structured_load","2,1,3,4,2,3","true","","",""
"null","","html-keyboard-response","476","355184","0.0-476.0","","<img src=""img/set2/S4.jpg"" width=""540"" height = ""360"" style=""border:16px solid orange"">","null","","","","","","","","",""
"null","","html-keyboard-response","477","355385","0.0-477.0","","","null","","","","","","","","",""
"868","","image-keyboard-response","478","356255","0.0-478.0","","img/set2/S2.jpg","68","2","structured_incentive","68","random,structured_incentive,structured_normal,structured_load","2,1,3,4,2,3","true","","",""
"null","","html-keyboard-response","479","356608","0.0-479.0","","<img src=""img/set2/S2.jpg"" width=""540"" height = ""360"" style=""border:16px solid orange"">","null","","","","","","","","",""
"null","","html-keyboard-response","480","356810","0.0-480.0","","","null","","","","","","","","",""
"659.3999999999069","","image-keyboard-response","481","357471","0.0-481.0","","img/set2/S1.jpg","83","1","structured_incentive","83","random,structured_incentive,structured_normal,structured_load","2,1,3,4,2,3","true","","",""
"null","","html-keyboard-response","482","357823","0.0-482.0","","<img src=""img/set2/S1.jpg"" width=""540"" height = ""360"" style=""border:16px solid Violet"">","null","","","","","","","","",""
"null","","html-keyboard-response","483","358025","0.0-483.0","","","null","","","","","","","","",""
"569.1000000000931","","image-keyboard-response","484","358596","0.0-484.0","","img/set2/S4.jpg","74","4","structured_incentive","74","random,structured_incentive,structured_normal,structured_load","2,1,3,4,2,3","true","","",""
"null","","html-keyboard-response","485","358948","0.0-485.0","","<img src=""img/set2/S4.jpg"" width=""540"" height = ""360"" style=""border:16px solid orange"">","null","","","","","","","","",""
"null","","html-keyboard-response","486","359150","0.0-486.0","","","null","","","","","","","","",""
"670.5","","image-keyboard-response","487","359823","0.0-487.0","","img/set2/S2.jpg","68","2","structured_incentive","68","random,structured_incentive,structured_normal,structured_load","2,1,3,4,2,3","true","","",""
"null","","html-keyboard-response","488","360175","0.0-488.0","","<img src=""img/set2/S2.jpg"" width=""540"" height = ""360"" style=""border:16px solid orange"">","null","","","","","","","","",""
"null","","html-keyboard-response","489","360377","0.0-489.0","","","null","","","","","","","","",""
"664.1000000000931","","image-keyboard-response","490","361043","0.0-490.0","","img/set2/S1.jpg","83","1","structured_incentive","83","random,structured_incentive,structured_normal,structured_load","2,1,3,4,2,3","true","","",""
"null","","html-keyboard-response","491","361395","0.0-491.0","","<img src=""img/set2/S1.jpg"" width=""540"" height = ""360"" style=""border:16px solid Violet"">","null","","","","","","","","",""
"null","","html-keyboard-response","492","361597","0.0-492.0","","","null","","","","","","","","",""
"558.5999999996275","","image-keyboard-response","493","362157","0.0-493.0","","img/set2/S2.jpg","68","2","structured_incentive","68","random,structured_incentive,structured_normal,structured_load","2,1,3,4,2,3","true","","",""
"null","","html-keyboard-response","494","362510","0.0-494.0","","<img src=""img/set2/S2.jpg"" width=""540"" height = ""360"" style=""border:16px solid orange"">","null","","","","","","","","",""
"null","","html-keyboard-response","495","362712","0.0-495.0","","","null","","","","","","","","",""
"588.8999999999069","","image-keyboard-response","496","363302","0.0-496.0","","img/set2/S1.jpg","83","1","structured_incentive","83","random,structured_incentive,structured_normal,structured_load","2,1,3,4,2,3","true","","",""
"null","","html-keyboard-response","497","363655","0.0-497.0","","<img src=""img/set2/S1.jpg"" width=""540"" height = ""360"" style=""border:16px solid Violet"">","null","","","","","","","","",""
"null","","html-keyboard-response","498","363857","0.0-498.0","","","null","","","","","","","","",""
"480.6999999997206","","image-keyboard-response","499","364340","0.0-499.0","","img/set2/S2.jpg","68","2","structured_incentive","68","random,structured_incentive,structured_normal,structured_load","2,1,3,4,2,3","true","","",""
"null","","html-keyboard-response","500","364692","0.0-500.0","","<img src=""img/set2/S2.jpg"" width=""540"" height = ""360"" style=""border:16px solid orange"">","null","","","","","","","","",""
"null","","html-keyboard-response","501","364894","0.0-501.0","","","null","","","","","","","","",""
"513.2000000001863","","image-keyboard-response","502","365409","0.0-502.0","","img/set2/S1.jpg","83","1","structured_incentive","83","random,structured_incentive,structured_normal,structured_load","2,1,3,4,2,3","true","","",""
"null","","html-keyboard-response","503","365762","0.0-503.0","","<img src=""img/set2/S1.jpg"" width=""540"" height = ""360"" style=""border:16px solid Violet"">","null","","","","","","","","",""
"null","","html-keyboard-response","504","365964","0.0-504.0","","","null","","","","","","","","",""
"542.5999999996275","","image-keyboard-response","505","366508","0.0-505.0","","img/set2/S4.jpg","74","4","structured_incentive","74","random,structured_incentive,structured_normal,structured_load","2,1,3,4,2,3","true","","",""
"null","","html-keyboard-response","506","366861","0.0-506.0","","<img src=""img/set2/S4.jpg"" width=""540"" height = ""360"" style=""border:16px solid orange"">","null","","","","","","","","",""
"null","","html-keyboard-response","507","367063","0.0-507.0","","","null","","","","","","","","",""
"749.7000000001863","","image-keyboard-response","508","367814","0.0-508.0","","img/set2/S2.jpg","68","2","structured_incentive","68","random,structured_incentive,structured_normal,structured_load","2,1,3,4,2,3","true","","",""
"null","","html-keyboard-response","509","368167","0.0-509.0","","<img src=""img/set2/S2.jpg"" width=""540"" height = ""360"" style=""border:16px solid orange"">","null","","","","","","","","",""
"null","","html-keyboard-response","510","368368","0.0-510.0","","","null","","","","","","","","",""
"553.8000000002794","","image-keyboard-response","511","368924","0.0-511.0","","img/set2/S1.jpg","83","1","structured_incentive","83","random,structured_incentive,structured_normal,structured_load","2,1,3,4,2,3","true","","",""
"null","","html-keyboard-response","512","369277","0.0-512.0","","<img src=""img/set2/S1.jpg"" width=""540"" height = ""360"" style=""border:16px solid Violet"">","null","","","","","","","","",""
"null","","html-keyboard-response","513","369479","0.0-513.0","","","null","","","","","","","","",""
"1136.7000000001863","","image-keyboard-response","514","370617","0.0-514.0","","img/set2/S3.jpg","72","3","structured_incentive","72","random,structured_incentive,structured_normal,structured_load","2,1,3,4,2,3","true","","",""
"null","","html-keyboard-response","515","370970","0.0-515.0","","<img src=""img/set2/S3.jpg"" width=""540"" height = ""360"" style=""border:16px solid orange"">","null","","","","","","","","",""
"null","","html-keyboard-response","516","371172","0.0-516.0","","","null","","","","","","","","",""
"583.6000000000931","","image-keyboard-response","517","371757","0.0-517.0","","img/set2/S4.jpg","74","4","structured_incentive","74","random,structured_incentive,structured_normal,structured_load","2,1,3,4,2,3","true","","",""
"null","","html-keyboard-response","518","372110","0.0-518.0","","<img src=""img/set2/S4.jpg"" width=""540"" height = ""360"" style=""border:16px solid orange"">","null","","","","","","","","",""
"null","","html-keyboard-response","519","372312","0.0-519.0","","","null","","","","","","","","",""
"767.7999999998137","","image-keyboard-response","520","373082","0.0-520.0","","img/set2/S3.jpg","72","3","structured_incentive","72","random,structured_incentive,structured_normal,structured_load","2,1,3,4,2,3","true","","",""
"null","","html-keyboard-response","521","373434","0.0-521.0","","<img src=""img/set2/S3.jpg"" width=""540"" height = ""360"" style=""border:16px solid orange"">","null","","","","","","","","",""
"null","","html-keyboard-response","522","373636","0.0-522.0","","","null","","","","","","","","",""
"767","","image-keyboard-response","523","374404","0.0-523.0","","img/set2/S4.jpg","74","4","structured_incentive","74","random,structured_incentive,structured_normal,structured_load","2,1,3,4,2,3","true","","",""
"null","","html-keyboard-response","524","374757","0.0-524.0","","<img src=""img/set2/S4.jpg"" width=""540"" height = ""360"" style=""border:16px solid orange"">","null","","","","","","","","",""
"null","","html-keyboard-response","525","374959","0.0-525.0","","","null","","","","","","","","",""
"525.3000000002794","","image-keyboard-response","526","375486","0.0-526.0","","img/set2/S4.jpg","74","4","structured_incentive","74","random,structured_incentive,structured_normal,structured_load","2,1,3,4,2,3","true","","",""
"null","","html-keyboard-response","527","375839","0.0-527.0","","<img src=""img/set2/S4.jpg"" width=""540"" height = ""360"" style=""border:16px solid orange"">","null","","","","","","","","",""
"null","","html-keyboard-response","528","376040","0.0-528.0","","","null","","","","","","","","",""
"628.8000000002794","","image-keyboard-response","529","376671","0.0-529.0","","img/set2/S2.jpg","68","2","structured_incentive","68","random,structured_incentive,structured_normal,structured_load","2,1,3,4,2,3","true","","",""
"null","","html-keyboard-response","530","377024","0.0-530.0","","<img src=""img/set2/S2.jpg"" width=""540"" height = ""360"" style=""border:16px solid orange"">","null","","","","","","","","",""
"null","","html-keyboard-response","531","377225","0.0-531.0","","","null","","","","","","","","",""
"513.6000000000931","","image-keyboard-response","532","377741","0.0-532.0","","img/set2/S1.jpg","83","1","structured_incentive","83","random,structured_incentive,structured_normal,structured_load","2,1,3,4,2,3","true","","",""
"null","","html-keyboard-response","533","378093","0.0-533.0","","<img src=""img/set2/S1.jpg"" width=""540"" height = ""360"" style=""border:16px solid Violet"">","null","","","","","","","","",""
"null","","html-keyboard-response","534","378295","0.0-534.0","","","null","","","","","","","","",""
"437.5","","image-keyboard-response","535","378734","0.0-535.0","","img/set2/S4.jpg","68","4","structured_incentive","74","random,structured_incentive,structured_normal,structured_load","2,1,3,4,2,3","false","","",""
"null","","html-keyboard-response","536","379087","0.0-536.0","","<img src=""img/set2/S4.jpg"" width=""540"" height = ""360"">","null","","","","","","","","",""
"null","","html-keyboard-response","537","379288","0.0-537.0","","","null","","","","","","","","",""
"583.3999999999069","","image-keyboard-response","538","379873","0.0-538.0","","img/set2/S3.jpg","72","3","structured_incentive","72","random,structured_incentive,structured_normal,structured_load","2,1,3,4,2,3","true","","",""
"null","","html-keyboard-response","539","380226","0.0-539.0","","<img src=""img/set2/S3.jpg"" width=""540"" height = ""360"" style=""border:16px solid orange"">","null","","","","","","","","",""
"null","","html-keyboard-response","540","380428","0.0-540.0","","","null","","","","","","","","",""
"682.1999999997206","","image-keyboard-response","541","381112","0.0-541.0","","img/set2/S2.jpg","68","2","structured_incentive","68","random,structured_incentive,structured_normal,structured_load","2,1,3,4,2,3","true","","",""
"null","","html-keyboard-response","542","381464","0.0-542.0","","<img src=""img/set2/S2.jpg"" width=""540"" height = ""360"" style=""border:16px solid orange"">","null","","","","","","","","",""
"null","","html-keyboard-response","543","381666","0.0-543.0","","","null","","","","","","","","",""
"665.5","","image-keyboard-response","544","382333","0.0-544.0","","img/set2/S1.jpg","83","1","structured_incentive","83","random,structured_incentive,structured_normal,structured_load","2,1,3,4,2,3","true","","",""
"null","","html-keyboard-response","545","382685","0.0-545.0","","<img src=""img/set2/S1.jpg"" width=""540"" height = ""360"" style=""border:16px solid Violet"">","null","","","","","","","","",""
"null","","html-keyboard-response","546","382887","0.0-546.0","","","null","","","","","","","","",""
"575","","image-keyboard-response","547","383464","0.0-547.0","","img/set2/S4.jpg","74","4","structured_incentive","74","random,structured_incentive,structured_normal,structured_load","2,1,3,4,2,3","true","","",""
"null","","html-keyboard-response","548","383817","0.0-548.0","","<img src=""img/set2/S4.jpg"" width=""540"" height = ""360"" style=""border:16px solid orange"">","null","","","","","","","","",""
"null","","html-keyboard-response","549","384019","0.0-549.0","","","null","","","","","","","","",""
"579.7000000001863","","image-keyboard-response","550","384600","0.0-550.0","","img/set2/S2.jpg","68","2","structured_incentive","68","random,structured_incentive,structured_normal,structured_load","2,1,3,4,2,3","true","","",""
"null","","html-keyboard-response","551","384953","0.0-551.0","","<img src=""img/set2/S2.jpg"" width=""540"" height = ""360"" style=""border:16px solid orange"">","null","","","","","","","","",""
"null","","html-keyboard-response","552","385155","0.0-552.0","","","null","","","","","","","","",""
"624.1999999997206","","image-keyboard-response","553","385781","0.0-553.0","","img/set2/S1.jpg","83","1","structured_incentive","83","random,structured_incentive,structured_normal,structured_load","2,1,3,4,2,3","true","","",""
"null","","html-keyboard-response","554","386134","0.0-554.0","","<img src=""img/set2/S1.jpg"" width=""540"" height = ""360"" style=""border:16px solid Violet"">","null","","","","","","","","",""
"null","","html-keyboard-response","555","386335","0.0-555.0","","","null","","","","","","","","",""
"643.2000000001863","","image-keyboard-response","556","386980","0.0-556.0","","img/set2/S2.jpg","68","2","structured_incentive","68","random,structured_incentive,structured_normal,structured_load","2,1,3,4,2,3","true","","",""
"null","","html-keyboard-response","557","387333","0.0-557.0","","<img src=""img/set2/S2.jpg"" width=""540"" height = ""360"" style=""border:16px solid orange"">","null","","","","","","","","",""
"null","","html-keyboard-response","558","387535","0.0-558.0","","","null","","","","","","","","",""
"681.2999999998137","","image-keyboard-response","559","388218","0.0-559.0","","img/set2/S1.jpg","83","1","structured_incentive","83","random,structured_incentive,structured_normal,structured_load","2,1,3,4,2,3","true","","",""
"null","","html-keyboard-response","560","388571","0.0-560.0","","<img src=""img/set2/S1.jpg"" width=""540"" height = ""360"" style=""border:16px solid Violet"">","null","","","","","","","","",""
"null","","html-keyboard-response","561","388773","0.0-561.0","","","null","","","","","","","","",""
"689.2999999998137","","image-keyboard-response","562","389464","0.0-562.0","","img/set2/S3.jpg","72","3","structured_incentive","72","random,structured_incentive,structured_normal,structured_load","2,1,3,4,2,3","true","","",""
"null","","html-keyboard-response","563","389817","0.0-563.0","","<img src=""img/set2/S3.jpg"" width=""540"" height = ""360"" style=""border:16px solid orange"">","null","","","","","","","","",""
"null","","html-keyboard-response","564","390018","0.0-564.0","","","null","","","","","","","","",""
"704.7999999998137","","image-keyboard-response","565","390724","0.0-565.0","","img/set2/S2.jpg","68","2","structured_incentive","68","random,structured_incentive,structured_normal,structured_load","2,1,3,4,2,3","true","","",""
"null","","html-keyboard-response","566","391077","0.0-566.0","","<img src=""img/set2/S2.jpg"" width=""540"" height = ""360"" style=""border:16px solid orange"">","null","","","","","","","","",""
"null","","html-keyboard-response","567","391279","0.0-567.0","","","null","","","","","","","","",""
"633.6999999997206","","image-keyboard-response","568","391914","0.0-568.0","","img/set2/S1.jpg","83","1","structured_incentive","83","random,structured_incentive,structured_normal,structured_load","2,1,3,4,2,3","true","","",""
"null","","html-keyboard-response","569","392267","0.0-569.0","","<img src=""img/set2/S1.jpg"" width=""540"" height = ""360"" style=""border:16px solid Violet"">","null","","","","","","","","",""
"null","","html-keyboard-response","570","392468","0.0-570.0","","","null","","","","","","","","",""
"652.8999999999069","","image-keyboard-response","571","393123","0.0-571.0","","img/set2/S2.jpg","68","2","structured_incentive","68","random,structured_incentive,structured_normal,structured_load","2,1,3,4,2,3","true","","",""
"null","","html-keyboard-response","572","393475","0.0-572.0","","<img src=""img/set2/S2.jpg"" width=""540"" height = ""360"" style=""border:16px solid orange"">","null","","","","","","","","",""
"null","","html-keyboard-response","573","393677","0.0-573.0","","","null","","","","","","","","",""
"631","","image-keyboard-response","574","394310","0.0-574.0","","img/set2/S1.jpg","83","1","structured_incentive","83","random,structured_incentive,structured_normal,structured_load","2,1,3,4,2,3","true","","",""
"null","","html-keyboard-response","575","394663","0.0-575.0","","<img src=""img/set2/S1.jpg"" width=""540"" height = ""360"" style=""border:16px solid Violet"">","null","","","","","","","","",""
"null","","html-keyboard-response","576","394865","0.0-576.0","","","null","","","","","","","","",""
"632","","image-keyboard-response","577","395498","0.0-577.0","","img/set2/S3.jpg","74","3","structured_incentive","72","random,structured_incentive,structured_normal,structured_load","2,1,3,4,2,3","false","","",""
"null","","html-keyboard-response","578","395851","0.0-578.0","","<img src=""img/set2/S3.jpg"" width=""540"" height = ""360"">","null","","","","","","","","",""
"null","","html-keyboard-response","579","396053","0.0-579.0","","","null","","","","","","","","",""
"333.70000000018626","","image-keyboard-response","580","396388","0.0-580.0","","img/set2/S3.jpg","72","3","structured_incentive","72","random,structured_incentive,structured_normal,structured_load","2,1,3,4,2,3","true","","",""
