"rt","url","trial_type","trial_index","time_elapsed","internal_node_id","view_history","stimulus","key_press","state","test_part","correct_response","order_block","order_chunk","correct","responses","question_order","bonus"
"5525.700000047684","consent.html","external-html","0","5617","0.0-0.0","","","","","","","","","","","",""
"70538.5","","instructions","1","76157","0.0-1.0","[{""page_index"":0,""viewing_time"":4315.100000023842},{""page_index"":1,""viewing_time"":16838.899999976158},{""page_index"":2,""viewing_time"":8430.899999976158},{""page_index"":3,""viewing_time"":11088.899999976158},{""page_index"":4,""viewing_time"":5327.200000047684},{""page_index"":5,""viewing_time"":7989.199999928474},{""page_index"":6,""viewing_time"":9083.600000023842},{""page_index"":5,""viewing_time"":731.1000000238419},{""page_index"":4,""viewing_time"":735},{""page_index"":3,""viewing_time"":1983.1000000238419},{""page_index"":4,""viewing_time"":880.8999999761581},{""page_index"":5,""viewing_time"":1118},{""page_index"":6,""viewing_time"":2016}]","","","","","","","","","","",""
"9827.900000095367","","instructions","2","85986","0.0-2.0","[{""page_index"":0,""viewing_time"":9827.800000071526}]","","","","","","","","","","",""
"14069.600000023842","","instructions","3","100056","0.0-3.0","[{""page_index"":0,""viewing_time"":11563.200000047684},{""page_index"":1,""viewing_time"":2506.1999999284744}]","","","","","","","","","","",""
"845.9000000953674","","image-keyboard-response","4","100903","0.0-4.0","","img/set1/S1.jpg","83","1","structured_load","83","structured_load,structured_incentive,structured_normal,random","2,3,3,4,2,1","true","","",""
"null","","html-keyboard-response","5","101256","0.0-5.0","","<img src=""img/set1/S1.jpg"" width=""540"" height = ""360"" style=""border:16px solid orange"">","null","","","","","","","","",""
"null","","html-keyboard-response","6","101458","0.0-6.0","","","null","","","","","","","","",""
"972","","image-keyboard-response","7","102432","0.0-7.0","","img/set1/S4.jpg","68","4","structured_load","74","structured_load,structured_incentive,structured_normal,random","2,3,3,4,2,1","false","","",""
"null","","html-keyboard-response","8","102785","0.0-8.0","","<img src=""img/set1/S4.jpg"" width=""540"" height = ""360"">","null","","","","","","","","",""
"null","","html-keyboard-response","9","102987","0.0-9.0","","","null","","","","","","","","",""
"667.2999999523163","","image-keyboard-response","10","103655","0.0-10.0","","img/set1/S2.jpg","72","2","structured_load","68","structured_load,structured_incentive,structured_normal,random","2,3,3,4,2,1","false","","",""
"null","","html-keyboard-response","11","104007","0.0-11.0","","<img src=""img/set1/S2.jpg"" width=""540"" height = ""360"">","null","","","","","","","","",""
"null","","html-keyboard-response","12","104208","0.0-12.0","","","null","","","","","","","","",""
"726.3000000715256","","image-keyboard-response","13","104936","0.0-13.0","","img/set1/S3.jpg","74","3","structured_load","72","structured_load,structured_incentive,structured_normal,random","2,3,3,4,2,1","false","","",""
"null","","html-keyboard-response","14","105287","0.0-14.0","","<img src=""img/set1/S3.jpg"" width=""540"" height = ""360"">","null","","","","","","","","",""
"null","","html-keyboard-response","15","105496","0.0-15.0","","","null","","","","","","","","",""
"574.1000000238419","","image-keyboard-response","16","106071","0.0-16.0","","img/set1/S2.jpg","83","2","structured_load","68","structured_load,structured_incentive,structured_normal,random","2,3,3,4,2,1","false","","",""
"null","","html-keyboard-response","17","106423","0.0-17.0","","<img src=""img/set1/S2.jpg"" width=""540"" height = ""360"">","null","","","","","","","","",""
"null","","html-keyboard-response","18","106625","0.0-18.0","","","null","","","","","","","","",""
"413.7000000476837","","image-keyboard-response","19","107039","0.0-19.0","","img/set1/S3.jpg","68","3","structured_load","72","structured_load,structured_incentive,structured_normal,random","2,3,3,4,2,1","false","","",""
"null","","html-keyboard-response","20","107392","0.0-20.0","","<img src=""img/set1/S3.jpg"" width=""540"" height = ""360"">","null","","","","","","","","",""
"null","","html-keyboard-response","21","107593","0.0-21.0","","","null","","","","","","","","",""
"764.8000000715256","","image-keyboard-response","22","108359","0.0-22.0","","img/set1/S1.jpg","83","1","structured_load","83","structured_load,structured_incentive,structured_normal,random","2,3,3,4,2,1","true","","",""
"null","","html-keyboard-response","23","108711","0.0-23.0","","<img src=""img/set1/S1.jpg"" width=""540"" height = ""360"" style=""border:16px solid orange"">","null","","","","","","","","",""
"null","","html-keyboard-response","24","108912","0.0-24.0","","","null","","","","","","","","",""
"630.7000000476837","","image-keyboard-response","25","109544","0.0-25.0","","img/set1/S1.jpg","83","1","structured_load","83","structured_load,structured_incentive,structured_normal,random","2,3,3,4,2,1","true","","",""
"null","","html-keyboard-response","26","109896","0.0-26.0","","<img src=""img/set1/S1.jpg"" width=""540"" height = ""360"" style=""border:16px solid orange"">","null","","","","","","","","",""
"null","","html-keyboard-response","27","110097","0.0-27.0","","","null","","","","","","","","",""
"597.1999999284744","","image-keyboard-response","28","110695","0.0-28.0","","img/set1/S4.jpg","68","4","structured_load","74","structured_load,structured_incentive,structured_normal,random","2,3,3,4,2,1","false","","",""
"null","","html-keyboard-response","29","111046","0.0-29.0","","<img src=""img/set1/S4.jpg"" width=""540"" height = ""360"">","null","","","","","","","","",""
"null","","html-keyboard-response","30","111254","0.0-30.0","","","null","","","","","","","","",""
"576.3999999761581","","image-keyboard-response","31","111831","0.0-31.0","","img/set1/S4.jpg","72","4","structured_load","74","structured_load,structured_incentive,structured_normal,random","2,3,3,4,2,1","false","","",""
"null","","html-keyboard-response","32","112184","0.0-32.0","","<img src=""img/set1/S4.jpg"" width=""540"" height = ""360"">","null","","","","","","","","",""
"null","","html-keyboard-response","33","112386","0.0-33.0","","","null","","","","","","","","",""
"676.7000000476837","","image-keyboard-response","34","113064","0.0-34.0","","img/set1/S1.jpg","83","1","structured_load","83","structured_load,structured_incentive,structured_normal,random","2,3,3,4,2,1","true","","",""
"null","","html-keyboard-response","35","113416","0.0-35.0","","<img src=""img/set1/S1.jpg"" width=""540"" height = ""360"" style=""border:16px solid orange"">","null","","","","","","","","",""
"null","","html-keyboard-response","36","113617","0.0-36.0","","","null","","","","","","","","",""
"405.6999999284744","","image-keyboard-response","37","114023","0.0-37.0","","img/set1/S2.jpg","74","2","structured_load","68","structured_load,structured_incentive,structured_normal,random","2,3,3,4,2,1","false","","",""
"null","","html-keyboard-response","38","114376","0.0-38.0","","<img src=""img/set1/S2.jpg"" width=""540"" height = ""360"">","null","","","","","","","","",""
"null","","html-keyboard-response","39","114577","0.0-39.0","","","null","","","","","","","","",""
"693.1999999284744","","image-keyboard-response","40","115271","0.0-40.0","","img/set1/S3.jpg","74","3","structured_load","72","structured_load,structured_incentive,structured_normal,random","2,3,3,4,2,1","false","","",""
"null","","html-keyboard-response","41","115624","0.0-41.0","","<img src=""img/set1/S3.jpg"" width=""540"" height = ""360"">","null","","","","","","","","",""
"null","","html-keyboard-response","42","115825","0.0-42.0","","","null","","","","","","","","",""
"821.2000000476837","","image-keyboard-response","43","116647","0.0-43.0","","img/set1/S1.jpg","83","1","structured_load","83","structured_load,structured_incentive,structured_normal,random","2,3,3,4,2,1","true","","",""
"null","","html-keyboard-response","44","116999","0.0-44.0","","<img src=""img/set1/S1.jpg"" width=""540"" height = ""360"" style=""border:16px solid orange"">","null","","","","","","","","",""
"null","","html-keyboard-response","45","117201","0.0-45.0","","","null","","","","","","","","",""
"789.1000000238419","","image-keyboard-response","46","117991","0.0-46.0","","img/set1/S2.jpg","68","2","structured_load","68","structured_load,structured_incentive,structured_normal,random","2,3,3,4,2,1","true","","",""
"null","","html-keyboard-response","47","118343","0.0-47.0","","<img src=""img/set1/S2.jpg"" width=""540"" height = ""360"" style=""border:16px solid orange"">","null","","","","","","","","",""
"null","","html-keyboard-response","48","118544","0.0-48.0","","","null","","","","","","","","",""
"1109.6999999284744","","image-keyboard-response","49","119655","0.0-49.0","","img/set1/S3.jpg","72","3","structured_load","72","structured_load,structured_incentive,structured_normal,random","2,3,3,4,2,1","true","","",""
"null","","html-keyboard-response","50","120006","0.0-50.0","","<img src=""img/set1/S3.jpg"" width=""540"" height = ""360"" style=""border:16px solid orange"">","null","","","","","","","","",""
"null","","html-keyboard-response","51","120211","0.0-51.0","","","null","","","","","","","","",""
"738.9000000953674","","image-keyboard-response","52","120951","0.0-52.0","","img/set1/S1.jpg","83","1","structured_load","83","structured_load,structured_incentive,structured_normal,random","2,3,3,4,2,1","true","","",""
"null","","html-keyboard-response","53","121303","0.0-53.0","","<img src=""img/set1/S1.jpg"" width=""540"" height = ""360"" style=""border:16px solid orange"">","null","","","","","","","","",""
"null","","html-keyboard-response","54","121504","0.0-54.0","","","null","","","","","","","","",""
"758.5999999046326","","image-keyboard-response","55","122263","0.0-55.0","","img/set1/S1.jpg","83","1","structured_load","83","structured_load,structured_incentive,structured_normal,random","2,3,3,4,2,1","true","","",""
"null","","html-keyboard-response","56","122615","0.0-56.0","","<img src=""img/set1/S1.jpg"" width=""540"" height = ""360"" style=""border:16px solid orange"">","null","","","","","","","","",""
"null","","html-keyboard-response","57","122816","0.0-57.0","","","null","","","","","","","","",""
"797.6999999284744","","image-keyboard-response","58","123615","0.0-58.0","","img/set1/S2.jpg","72","2","structured_load","68","structured_load,structured_incentive,structured_normal,random","2,3,3,4,2,1","false","","",""
"null","","html-keyboard-response","59","123966","0.0-59.0","","<img src=""img/set1/S2.jpg"" width=""540"" height = ""360"">","null","","","","","","","","",""
"null","","html-keyboard-response","60","124170","0.0-60.0","","","null","","","","","","","","",""
"860.2999999523163","","image-keyboard-response","61","125031","0.0-61.0","","img/set1/S3.jpg","68","3","structured_load","72","structured_load,structured_incentive,structured_normal,random","2,3,3,4,2,1","false","","",""
"null","","html-keyboard-response","62","125384","0.0-62.0","","<img src=""img/set1/S3.jpg"" width=""540"" height = ""360"">","null","","","","","","","","",""
"null","","html-keyboard-response","63","125585","0.0-63.0","","","null","","","","","","","","",""
"701.2999999523163","","image-keyboard-response","64","126287","0.0-64.0","","img/set1/S4.jpg","74","4","structured_load","74","structured_load,structured_incentive,structured_normal,random","2,3,3,4,2,1","true","","",""
"null","","html-keyboard-response","65","126639","0.0-65.0","","<img src=""img/set1/S4.jpg"" width=""540"" height = ""360"" style=""border:16px solid orange"">","null","","","","","","","","",""
"null","","html-keyboard-response","66","126840","0.0-66.0","","","null","","","","","","","","",""
"1838.5","","image-keyboard-response","67","128680","0.0-67.0","","img/set1/S2.jpg","68","2","structured_load","68","structured_load,structured_incentive,structured_normal,random","2,3,3,4,2,1","true","","",""
"null","","html-keyboard-response","68","129032","0.0-68.0","","<img src=""img/set1/S2.jpg"" width=""540"" height = ""360"" style=""border:16px solid orange"">","null","","","","","","","","",""
"null","","html-keyboard-response","69","129234","0.0-69.0","","","null","","","","","","","","",""
"499.2000000476837","","image-keyboard-response","70","129736","0.0-70.0","","img/set1/S3.jpg","72","3","structured_load","72","structured_load,structured_incentive,structured_normal,random","2,3,3,4,2,1","true","","",""
"null","","html-keyboard-response","71","130088","0.0-71.0","","<img src=""img/set1/S3.jpg"" width=""540"" height = ""360"" style=""border:16px solid orange"">","null","","","","","","","","",""
"null","","html-keyboard-response","72","130299","0.0-72.0","","","null","","","","","","","","",""
"690.6000000238419","","image-keyboard-response","73","130991","0.0-73.0","","img/set1/S4.jpg","74","4","structured_load","74","structured_load,structured_incentive,structured_normal,random","2,3,3,4,2,1","true","","",""
"null","","html-keyboard-response","74","131343","0.0-74.0","","<img src=""img/set1/S4.jpg"" width=""540"" height = ""360"" style=""border:16px solid orange"">","null","","","","","","","","",""
"null","","html-keyboard-response","75","131544","0.0-75.0","","","null","","","","","","","","",""
"790","","image-keyboard-response","76","132335","0.0-76.0","","img/set1/S2.jpg","68","2","structured_load","68","structured_load,structured_incentive,structured_normal,random","2,3,3,4,2,1","true","","",""
"null","","html-keyboard-response","77","132687","0.0-77.0","","<img src=""img/set1/S2.jpg"" width=""540"" height = ""360"" style=""border:16px solid orange"">","null","","","","","","","","",""
"null","","html-keyboard-response","78","132889","0.0-78.0","","","null","","","","","","","","",""
"828.6000000238419","","image-keyboard-response","79","133719","0.0-79.0","","img/set1/S3.jpg","72","3","structured_load","72","structured_load,structured_incentive,structured_normal,random","2,3,3,4,2,1","true","","",""
"null","","html-keyboard-response","80","134070","0.0-80.0","","<img src=""img/set1/S3.jpg"" width=""540"" height = ""360"" style=""border:16px solid orange"">","null","","","","","","","","",""
"null","","html-keyboard-response","81","134272","0.0-81.0","","","null","","","","","","","","",""
"574.2999999523163","","image-keyboard-response","82","134847","0.0-82.0","","img/set1/S4.jpg","74","4","structured_load","74","structured_load,structured_incentive,structured_normal,random","2,3,3,4,2,1","true","","",""
"null","","html-keyboard-response","83","135199","0.0-83.0","","<img src=""img/set1/S4.jpg"" width=""540"" height = ""360"" style=""border:16px solid orange"">","null","","","","","","","","",""
"null","","html-keyboard-response","84","135400","0.0-84.0","","","null","","","","","","","","",""
"974.2999999523163","","image-keyboard-response","85","136375","0.0-85.0","","img/set1/S2.jpg","72","2","structured_load","68","structured_load,structured_incentive,structured_normal,random","2,3,3,4,2,1","false","","",""
"null","","html-keyboard-response","86","136727","0.0-86.0","","<img src=""img/set1/S2.jpg"" width=""540"" height = ""360"">","null","","","","","","","","",""
"null","","html-keyboard-response","87","136936","0.0-87.0","","","null","","","","","","","","",""
"613.7999999523163","","image-keyboard-response","88","137551","0.0-88.0","","img/set1/S3.jpg","72","3","structured_load","72","structured_load,structured_incentive,structured_normal,random","2,3,3,4,2,1","true","","",""
"null","","html-keyboard-response","89","137902","0.0-89.0","","<img src=""img/set1/S3.jpg"" width=""540"" height = ""360"" style=""border:16px solid orange"">","null","","","","","","","","",""
"null","","html-keyboard-response","90","138103","0.0-90.0","","","null","","","","","","","","",""
"926.8999999761581","","image-keyboard-response","91","139031","0.0-91.0","","img/set1/S4.jpg","74","4","structured_load","74","structured_load,structured_incentive,structured_normal,random","2,3,3,4,2,1","true","","",""
"null","","html-keyboard-response","92","139383","0.0-92.0","","<img src=""img/set1/S4.jpg"" width=""540"" height = ""360"" style=""border:16px solid orange"">","null","","","","","","","","",""
"null","","html-keyboard-response","93","139585","0.0-93.0","","","null","","","","","","","","",""
"845.4000000953674","","image-keyboard-response","94","140431","0.0-94.0","","img/set1/S4.jpg","74","4","structured_load","74","structured_load,structured_incentive,structured_normal,random","2,3,3,4,2,1","true","","",""
"null","","html-keyboard-response","95","140783","0.0-95.0","","<img src=""img/set1/S4.jpg"" width=""540"" height = ""360"" style=""border:16px solid orange"">","null","","","","","","","","",""
"null","","html-keyboard-response","96","140985","0.0-96.0","","","null","","","","","","","","",""
"661.5999999046326","","image-keyboard-response","97","141647","0.0-97.0","","img/set1/S1.jpg","83","1","structured_load","83","structured_load,structured_incentive,structured_normal,random","2,3,3,4,2,1","true","","",""
"null","","html-keyboard-response","98","141999","0.0-98.0","","<img src=""img/set1/S1.jpg"" width=""540"" height = ""360"" style=""border:16px solid orange"">","null","","","","","","","","",""
"null","","html-keyboard-response","99","142200","0.0-99.0","","","null","","","","","","","","",""
"1022.0999999046326","","image-keyboard-response","100","143223","0.0-100.0","","img/set1/S4.jpg","74","4","structured_load","74","structured_load,structured_incentive,structured_normal,random","2,3,3,4,2,1","true","","",""
"null","","html-keyboard-response","101","143576","0.0-101.0","","<img src=""img/set1/S4.jpg"" width=""540"" height = ""360"" style=""border:16px solid orange"">","null","","","","","","","","",""
"null","","html-keyboard-response","102","143777","0.0-102.0","","","null","","","","","","","","",""
"525.1000000238419","","image-keyboard-response","103","144303","0.0-103.0","","img/set1/S4.jpg","74","4","structured_load","74","structured_load,structured_incentive,structured_normal,random","2,3,3,4,2,1","true","","",""
"null","","html-keyboard-response","104","144656","0.0-104.0","","<img src=""img/set1/S4.jpg"" width=""540"" height = ""360"" style=""border:16px solid orange"">","null","","","","","","","","",""
"null","","html-keyboard-response","105","144856","0.0-105.0","","","null","","","","","","","","",""
"597.6999999284744","","image-keyboard-response","106","145455","0.0-106.0","","img/set1/S1.jpg","83","1","structured_load","83","structured_load,structured_incentive,structured_normal,random","2,3,3,4,2,1","true","","",""
"null","","html-keyboard-response","107","145807","0.0-107.0","","<img src=""img/set1/S1.jpg"" width=""540"" height = ""360"" style=""border:16px solid orange"">","null","","","","","","","","",""
"null","","html-keyboard-response","108","146008","0.0-108.0","","","null","","","","","","","","",""
"654.2999999523163","","image-keyboard-response","109","146663","0.0-109.0","","img/set1/S4.jpg","74","4","structured_load","74","structured_load,structured_incentive,structured_normal,random","2,3,3,4,2,1","true","","",""
"null","","html-keyboard-response","110","147015","0.0-110.0","","<img src=""img/set1/S4.jpg"" width=""540"" height = ""360"" style=""border:16px solid orange"">","null","","","","","","","","",""
"null","","html-keyboard-response","111","147217","0.0-111.0","","","null","","","","","","","","",""
"1052.8000000715256","","image-keyboard-response","112","148271","0.0-112.0","","img/set1/S2.jpg","68","2","structured_load","68","structured_load,structured_incentive,structured_normal,random","2,3,3,4,2,1","true","","",""
"null","","html-keyboard-response","113","148623","0.0-113.0","","<img src=""img/set1/S2.jpg"" width=""540"" height = ""360"" style=""border:16px solid orange"">","null","","","","","","","","",""
"null","","html-keyboard-response","114","148825","0.0-114.0","","","null","","","","","","","","",""
"486","","image-keyboard-response","115","149312","0.0-115.0","","img/set1/S3.jpg","72","3","structured_load","72","structured_load,structured_incentive,structured_normal,random","2,3,3,4,2,1","true","","",""
"null","","html-keyboard-response","116","149664","0.0-116.0","","<img src=""img/set1/S3.jpg"" width=""540"" height = ""360"" style=""border:16px solid orange"">","null","","","","","","","","",""
"null","","html-keyboard-response","117","149866","0.0-117.0","","","null","","","","","","","","",""
"796.5","","image-keyboard-response","118","150663","0.0-118.0","","img/set1/S2.jpg","68","2","structured_load","68","structured_load,structured_incentive,structured_normal,random","2,3,3,4,2,1","true","","",""
"null","","html-keyboard-response","119","151015","0.0-119.0","","<img src=""img/set1/S2.jpg"" width=""540"" height = ""360"" style=""border:16px solid orange"">","null","","","","","","","","",""
"null","","html-keyboard-response","120","151216","0.0-120.0","","","null","","","","","","","","",""
"806.6000000238419","","image-keyboard-response","121","152023","0.0-121.0","","img/set1/S3.jpg","72","3","structured_load","72","structured_load,structured_incentive,structured_normal,random","2,3,3,4,2,1","true","","",""
"null","","html-keyboard-response","122","152376","0.0-122.0","","<img src=""img/set1/S3.jpg"" width=""540"" height = ""360"" style=""border:16px solid orange"">","null","","","","","","","","",""
"null","","html-keyboard-response","123","152576","0.0-123.0","","","null","","","","","","","","",""
"717.7000000476837","","image-keyboard-response","124","153295","0.0-124.0","","img/set1/S4.jpg","74","4","structured_load","74","structured_load,structured_incentive,structured_normal,random","2,3,3,4,2,1","true","","",""
"null","","html-keyboard-response","125","153646","0.0-125.0","","<img src=""img/set1/S4.jpg"" width=""540"" height = ""360"" style=""border:16px solid orange"">","null","","","","","","","","",""
"null","","html-keyboard-response","126","153848","0.0-126.0","","","null","","","","","","","","",""
"613.9000000953674","","image-keyboard-response","127","154463","0.0-127.0","","img/set1/S1.jpg","83","1","structured_load","83","structured_load,structured_incentive,structured_normal,random","2,3,3,4,2,1","true","","",""
"null","","html-keyboard-response","128","154815","0.0-128.0","","<img src=""img/set1/S1.jpg"" width=""540"" height = ""360"" style=""border:16px solid orange"">","null","","","","","","","","",""
"null","","html-keyboard-response","129","155016","0.0-129.0","","","null","","","","","","","","",""
"542.1999999284744","","image-keyboard-response","130","155559","0.0-130.0","","img/set1/S4.jpg","74","4","structured_load","74","structured_load,structured_incentive,structured_normal,random","2,3,3,4,2,1","true","","",""
"null","","html-keyboard-response","131","155910","0.0-131.0","","<img src=""img/set1/S4.jpg"" width=""540"" height = ""360"" style=""border:16px solid orange"">","null","","","","","","","","",""
"null","","html-keyboard-response","132","156111","0.0-132.0","","","null","","","","","","","","",""
"582.6000000238419","","image-keyboard-response","133","156695","0.0-133.0","","img/set1/S1.jpg","83","1","structured_load","83","structured_load,structured_incentive,structured_normal,random","2,3,3,4,2,1","true","","",""
"null","","html-keyboard-response","134","157046","0.0-134.0","","<img src=""img/set1/S1.jpg"" width=""540"" height = ""360"" style=""border:16px solid orange"">","null","","","","","","","","",""
"null","","html-keyboard-response","135","157248","0.0-135.0","","","null","","","","","","","","",""
"846.4000000953674","","image-keyboard-response","136","158095","0.0-136.0","","img/set1/S2.jpg","68","2","structured_load","68","structured_load,structured_incentive,structured_normal,random","2,3,3,4,2,1","true","","",""
"null","","html-keyboard-response","137","158447","0.0-137.0","","<img src=""img/set1/S2.jpg"" width=""540"" height = ""360"" style=""border:16px solid orange"">","null","","","","","","","","",""
"null","","html-keyboard-response","138","158652","0.0-138.0","","","null","","","","","","","","",""
"633.8999999761581","","image-keyboard-response","139","159287","0.0-139.0","","img/set1/S3.jpg","72","3","structured_load","72","structured_load,structured_incentive,structured_normal,random","2,3,3,4,2,1","true","","",""
"null","","html-keyboard-response","140","159639","0.0-140.0","","<img src=""img/set1/S3.jpg"" width=""540"" height = ""360"" style=""border:16px solid orange"">","null","","","","","","","","",""
"null","","html-keyboard-response","141","159840","0.0-141.0","","","null","","","","","","","","",""
"1389.8999999761581","","image-keyboard-response","142","161231","0.0-142.0","","img/set1/S2.jpg","72","2","structured_load","68","structured_load,structured_incentive,structured_normal,random","2,3,3,4,2,1","false","","",""
"null","","html-keyboard-response","143","161583","0.0-143.0","","<img src=""img/set1/S2.jpg"" width=""540"" height = ""360"">","null","","","","","","","","",""
"null","","html-keyboard-response","144","161784","0.0-144.0","","","null","","","","","","","","",""
"734.3999999761581","","image-keyboard-response","145","162519","0.0-145.0","","img/set1/S3.jpg","72","3","structured_load","72","structured_load,structured_incentive,structured_normal,random","2,3,3,4,2,1","true","","",""
"null","","html-keyboard-response","146","162870","0.0-146.0","","<img src=""img/set1/S3.jpg"" width=""540"" height = ""360"" style=""border:16px solid orange"">","null","","","","","","","","",""
"null","","html-keyboard-response","147","163072","0.0-147.0","","","null","","","","","","","","",""
"598.5","","image-keyboard-response","148","163671","0.0-148.0","","img/set1/S4.jpg","74","4","structured_load","74","structured_load,structured_incentive,structured_normal,random","2,3,3,4,2,1","true","","",""
"null","","html-keyboard-response","149","164023","0.0-149.0","","<img src=""img/set1/S4.jpg"" width=""540"" height = ""360"" style=""border:16px solid orange"">","null","","","","","","","","",""
"null","","html-keyboard-response","150","164225","0.0-150.0","","","null","","","","","","","","",""
"589.0999999046326","","image-keyboard-response","151","164815","0.0-151.0","","img/set1/S1.jpg","83","1","structured_load","83","structured_load,structured_incentive,structured_normal,random","2,3,3,4,2,1","true","","",""
"null","","html-keyboard-response","152","165167","0.0-152.0","","<img src=""img/set1/S1.jpg"" width=""540"" height = ""360"" style=""border:16px solid orange"">","null","","","","","","","","",""
"null","","html-keyboard-response","153","165368","0.0-153.0","","","null","","","","","","","","",""
"525.6000000238419","","image-keyboard-response","154","165895","0.0-154.0","","img/set1/S1.jpg","83","1","structured_load","83","structured_load,structured_incentive,structured_normal,random","2,3,3,4,2,1","true","","",""
"null","","html-keyboard-response","155","166247","0.0-155.0","","<img src=""img/set1/S1.jpg"" width=""540"" height = ""360"" style=""border:16px solid orange"">","null","","","","","","","","",""
"null","","html-keyboard-response","156","166449","0.0-156.0","","","null","","","","","","","","",""
"492.6999999284744","","image-keyboard-response","157","166943","0.0-157.0","","img/set1/S1.jpg","83","1","structured_load","83","structured_load,structured_incentive,structured_normal,random","2,3,3,4,2,1","true","","",""
"null","","html-keyboard-response","158","167295","0.0-158.0","","<img src=""img/set1/S1.jpg"" width=""540"" height = ""360"" style=""border:16px solid orange"">","null","","","","","","","","",""
"null","","html-keyboard-response","159","167497","0.0-159.0","","","null","","","","","","","","",""
"445.59999990463257","","image-keyboard-response","160","167943","0.0-160.0","","img/set1/S1.jpg","83","1","structured_load","83","structured_load,structured_incentive,structured_normal,random","2,3,3,4,2,1","true","","",""
"null","","html-keyboard-response","161","168295","0.0-161.0","","<img src=""img/set1/S1.jpg"" width=""540"" height = ""360"" style=""border:16px solid orange"">","null","","","","","","","","",""
"null","","html-keyboard-response","162","168497","0.0-162.0","","","null","","","","","","","","",""
"877","","image-keyboard-response","163","169375","0.0-163.0","","img/set1/S2.jpg","68","2","structured_load","68","structured_load,structured_incentive,structured_normal,random","2,3,3,4,2,1","true","","",""
"null","","html-keyboard-response","164","169726","0.0-164.0","","<img src=""img/set1/S2.jpg"" width=""540"" height = ""360"" style=""border:16px solid orange"">","null","","","","","","","","",""
"null","","html-keyboard-response","165","169928","0.0-165.0","","","null","","","","","","","","",""
"806.5","","image-keyboard-response","166","170735","0.0-166.0","","img/set1/S3.jpg","72","3","structured_load","72","structured_load,structured_incentive,structured_normal,random","2,3,3,4,2,1","true","","",""
"null","","html-keyboard-response","167","171087","0.0-167.0","","<img src=""img/set1/S3.jpg"" width=""540"" height = ""360"" style=""border:16px solid orange"">","null","","","","","","","","",""
"null","","html-keyboard-response","168","171287","0.0-168.0","","","null","","","","","","","","",""
"655.1000000238419","","image-keyboard-response","169","171943","0.0-169.0","","img/set1/S4.jpg","74","4","structured_load","74","structured_load,structured_incentive,structured_normal,random","2,3,3,4,2,1","true","","",""
"null","","html-keyboard-response","170","172296","0.0-170.0","","<img src=""img/set1/S4.jpg"" width=""540"" height = ""360"" style=""border:16px solid orange"">","null","","","","","","","","",""
"null","","html-keyboard-response","171","172497","0.0-171.0","","","null","","","","","","","","",""
"501.5","","image-keyboard-response","172","172999","0.0-172.0","","img/set1/S4.jpg","74","4","structured_load","74","structured_load,structured_incentive,structured_normal,random","2,3,3,4,2,1","true","","",""
"null","","html-keyboard-response","173","173352","0.0-173.0","","<img src=""img/set1/S4.jpg"" width=""540"" height = ""360"" style=""border:16px solid orange"">","null","","","","","","","","",""
"null","","html-keyboard-response","174","173553","0.0-174.0","","","null","","","","","","","","",""
"885","","image-keyboard-response","175","174439","0.0-175.0","","img/set1/S2.jpg","68","2","structured_load","68","structured_load,structured_incentive,structured_normal,random","2,3,3,4,2,1","true","","",""
"null","","html-keyboard-response","176","174791","0.0-176.0","","<img src=""img/set1/S2.jpg"" width=""540"" height = ""360"" style=""border:16px solid orange"">","null","","","","","","","","",""
"null","","html-keyboard-response","177","174993","0.0-177.0","","","null","","","","","","","","",""
"573.1999999284744","","image-keyboard-response","178","175567","0.0-178.0","","img/set1/S3.jpg","72","3","structured_load","72","structured_load,structured_incentive,structured_normal,random","2,3,3,4,2,1","true","","",""
"null","","html-keyboard-response","179","175920","0.0-179.0","","<img src=""img/set1/S3.jpg"" width=""540"" height = ""360"" style=""border:16px solid orange"">","null","","","","","","","","",""
"null","","html-keyboard-response","180","176121","0.0-180.0","","","null","","","","","","","","",""
"469.90000009536743","","image-keyboard-response","181","176592","0.0-181.0","","img/set1/S4.jpg","74","4","structured_load","74","structured_load,structured_incentive,structured_normal,random","2,3,3,4,2,1","true","","",""
"null","","html-keyboard-response","182","176944","0.0-182.0","","<img src=""img/set1/S4.jpg"" width=""540"" height = ""360"" style=""border:16px solid orange"">","null","","","","","","","","",""
"null","","html-keyboard-response","183","177145","0.0-183.0","","","null","","","","","","","","",""
"796.3999999761581","","image-keyboard-response","184","177943","0.0-184.0","","img/set1/S2.jpg","68","2","structured_load","68","structured_load,structured_incentive,structured_normal,random","2,3,3,4,2,1","true","","",""
"null","","html-keyboard-response","185","178295","0.0-185.0","","<img src=""img/set1/S2.jpg"" width=""540"" height = ""360"" style=""border:16px solid orange"">","null","","","","","","","","",""
"null","","html-keyboard-response","186","178496","0.0-186.0","","","null","","","","","","","","",""
"670.6000000238419","","image-keyboard-response","187","179167","0.0-187.0","","img/set1/S3.jpg","72","3","structured_load","72","structured_load,structured_incentive,structured_normal,random","2,3,3,4,2,1","true","","",""
"null","","html-keyboard-response","188","179519","0.0-188.0","","<img src=""img/set1/S3.jpg"" width=""540"" height = ""360"" style=""border:16px solid orange"">","null","","","","","","","","",""
"null","","html-keyboard-response","189","179721","0.0-189.0","","","null","","","","","","","","",""
"790","","image-keyboard-response","190","180511","0.0-190.0","","img/set1/S1.jpg","83","1","structured_load","83","structured_load,structured_incentive,structured_normal,random","2,3,3,4,2,1","true","","",""
"null","","html-keyboard-response","191","180864","0.0-191.0","","<img src=""img/set1/S1.jpg"" width=""540"" height = ""360"" style=""border:16px solid orange"">","null","","","","","","","","",""
"null","","html-keyboard-response","192","181065","0.0-192.0","","","null","","","","","","","","",""
"869.1000000238419","","image-keyboard-response","193","181935","0.0-193.0","","img/set1/S2.jpg","68","2","structured_load","68","structured_load,structured_incentive,structured_normal,random","2,3,3,4,2,1","true","","",""
"null","","html-keyboard-response","194","182287","0.0-194.0","","<img src=""img/set1/S2.jpg"" width=""540"" height = ""360"" style=""border:16px solid orange"">","null","","","","","","","","",""
"null","","html-keyboard-response","195","182488","0.0-195.0","","","null","","","","","","","","",""
"797.8999999761581","","image-keyboard-response","196","183287","0.0-196.0","","img/set1/S3.jpg","72","3","structured_load","72","structured_load,structured_incentive,structured_normal,random","2,3,3,4,2,1","true","","",""
"null","","html-keyboard-response","197","183639","0.0-197.0","","<img src=""img/set1/S3.jpg"" width=""540"" height = ""360"" style=""border:16px solid orange"">","null","","","","","","","","",""
"null","","html-keyboard-response","198","183839","0.0-198.0","","","null","","","","","","","","",""
"854.5","","image-keyboard-response","199","184695","0.0-199.0","","img/set1/S2.jpg","68","2","structured_load","68","structured_load,structured_incentive,structured_normal,random","2,3,3,4,2,1","true","","",""
"null","","html-keyboard-response","200","185047","0.0-200.0","","<img src=""img/set1/S2.jpg"" width=""540"" height = ""360"" style=""border:16px solid orange"">","null","","","","","","","","",""
"null","","html-keyboard-response","201","185262","0.0-201.0","","","null","","","","","","","","",""
"767.6999999284744","","image-keyboard-response","202","186031","0.0-202.0","","img/set1/S3.jpg","72","3","structured_load","72","structured_load,structured_incentive,structured_normal,random","2,3,3,4,2,1","true","","",""
"null","","html-keyboard-response","203","186382","0.0-203.0","","<img src=""img/set1/S3.jpg"" width=""540"" height = ""360"" style=""border:16px solid orange"">","null","","","","","","","","",""
"null","","html-keyboard-response","204","186584","0.0-204.0","","","null","","","","","","","","",""
"830.8999999761581","","image-keyboard-response","205","187416","0.0-205.0","","img/set1/S1.jpg","83","1","structured_load","83","structured_load,structured_incentive,structured_normal,random","2,3,3,4,2,1","true","","",""
"null","","html-keyboard-response","206","187768","0.0-206.0","","<img src=""img/set1/S1.jpg"" width=""540"" height = ""360"" style=""border:16px solid orange"">","null","","","","","","","","",""
"null","","html-keyboard-response","207","187979","0.0-207.0","","","null","","","","","","","","",""
"507.5","","image-keyboard-response","208","188487","0.0-208.0","","img/set1/S4.jpg","74","4","structured_load","74","structured_load,structured_incentive,structured_normal,random","2,3,3,4,2,1","true","","",""
"null","","html-keyboard-response","209","188839","0.0-209.0","","<img src=""img/set1/S4.jpg"" width=""540"" height = ""360"" style=""border:16px solid orange"">","null","","","","","","","","",""
"null","","html-keyboard-response","210","189041","0.0-210.0","","","null","","","","","","","","",""
"556.5999999046326","","image-keyboard-response","211","189599","0.0-211.0","","img/set1/S1.jpg","83","1","structured_load","83","structured_load,structured_incentive,structured_normal,random","2,3,3,4,2,1","true","","",""
"null","","html-keyboard-response","212","189952","0.0-212.0","","<img src=""img/set1/S1.jpg"" width=""540"" height = ""360"" style=""border:16px solid orange"">","null","","","","","","","","",""
"null","","html-keyboard-response","213","190153","0.0-213.0","","","null","","","","","","","","",""
"516.7000000476837","","image-keyboard-response","214","190671","0.0-214.0","","img/set1/S1.jpg","83","1","structured_load","83","structured_load,structured_incentive,structured_normal,random","2,3,3,4,2,1","true","","",""
"null","","html-keyboard-response","215","191023","0.0-215.0","","<img src=""img/set1/S1.jpg"" width=""540"" height = ""360"" style=""border:16px solid orange"">","null","","","","","","","","",""
"null","","html-keyboard-response","216","191225","0.0-216.0","","","null","","","","","","","","",""
"741.2000000476837","","image-keyboard-response","217","191968","0.0-217.0","","img/set1/S2.jpg","68","2","structured_load","68","structured_load,structured_incentive,structured_normal,random","2,3,3,4,2,1","true","","",""
"null","","html-keyboard-response","218","192320","0.0-218.0","","<img src=""img/set1/S2.jpg"" width=""540"" height = ""360"" style=""border:16px solid orange"">","null","","","","","","","","",""
"null","","html-keyboard-response","219","192521","0.0-219.0","","","null","","","","","","","","",""
"580.7000000476837","","image-keyboard-response","220","193103","0.0-220.0","","img/set1/S3.jpg","72","3","structured_load","72","structured_load,structured_incentive,structured_normal,random","2,3,3,4,2,1","true","","",""
"null","","html-keyboard-response","221","193455","0.0-221.0","","<img src=""img/set1/S3.jpg"" width=""540"" height = ""360"" style=""border:16px solid orange"">","null","","","","","","","","",""
"null","","html-keyboard-response","222","193656","0.0-222.0","","","null","","","","","","","","",""
"894","","image-keyboard-response","223","194551","0.0-223.0","","img/set1/S2.jpg","68","2","structured_load","68","structured_load,structured_incentive,structured_normal,random","2,3,3,4,2,1","true","","",""
"null","","html-keyboard-response","224","194903","0.0-224.0","","<img src=""img/set1/S2.jpg"" width=""540"" height = ""360"" style=""border:16px solid orange"">","null","","","","","","","","",""
"null","","html-keyboard-response","225","195104","0.0-225.0","","","null","","","","","","","","",""
"638.5","","image-keyboard-response","226","195743","0.0-226.0","","img/set1/S3.jpg","72","3","structured_load","72","structured_load,structured_incentive,structured_normal,random","2,3,3,4,2,1","true","","",""
"null","","html-keyboard-response","227","196095","0.0-227.0","","<img src=""img/set1/S3.jpg"" width=""540"" height = ""360"" style=""border:16px solid orange"">","null","","","","","","","","",""
"null","","html-keyboard-response","228","196296","0.0-228.0","","","null","","","","","","","","",""
"621.8999999761581","","image-keyboard-response","229","196919","0.0-229.0","","img/set1/S4.jpg","74","4","structured_load","74","structured_load,structured_incentive,structured_normal,random","2,3,3,4,2,1","true","","",""
"null","","html-keyboard-response","230","197271","0.0-230.0","","<img src=""img/set1/S4.jpg"" width=""540"" height = ""360"" style=""border:16px solid orange"">","null","","","","","","","","",""
"null","","html-keyboard-response","231","197472","0.0-231.0","","","null","","","","","","","","",""
"597.8999999761581","","image-keyboard-response","232","198071","0.0-232.0","","img/set1/S1.jpg","83","1","structured_load","83","structured_load,structured_incentive,structured_normal,random","2,3,3,4,2,1","true","","",""
"null","","html-keyboard-response","233","198423","0.0-233.0","","<img src=""img/set1/S1.jpg"" width=""540"" height = ""360"" style=""border:16px solid orange"">","null","","","","","","","","",""
"null","","html-keyboard-response","234","198624","0.0-234.0","","","null","","","","","","","","",""
"533.7000000476837","","image-keyboard-response","235","199159","0.0-235.0","","img/set1/S4.jpg","74","4","structured_load","74","structured_load,structured_incentive,structured_normal,random","2,3,3,4,2,1","true","","",""
"null","","html-keyboard-response","236","199511","0.0-236.0","","<img src=""img/set1/S4.jpg"" width=""540"" height = ""360"" style=""border:16px solid orange"">","null","","","","","","","","",""
"null","","html-keyboard-response","237","199714","0.0-237.0","","","null","","","","","","","","",""
"692.5","","image-keyboard-response","238","200407","0.0-238.0","","img/set1/S2.jpg","68","2","structured_load","68","structured_load,structured_incentive,structured_normal,random","2,3,3,4,2,1","true","","",""
"null","","html-keyboard-response","239","200759","0.0-239.0","","<img src=""img/set1/S2.jpg"" width=""540"" height = ""360"" style=""border:16px solid orange"">","null","","","","","","","","",""
"null","","html-keyboard-response","240","200960","0.0-240.0","","","null","","","","","","","","",""
"598.6000000238419","","image-keyboard-response","241","201559","0.0-241.0","","img/set1/S3.jpg","72","3","structured_load","72","structured_load,structured_incentive,structured_normal,random","2,3,3,4,2,1","true","","",""
"null","","html-keyboard-response","242","201911","0.0-242.0","","<img src=""img/set1/S3.jpg"" width=""540"" height = ""360"" style=""border:16px solid orange"">","null","","","","","","","","",""
"null","","html-keyboard-response","243","202112","0.0-243.0","","","null","","","","","","","","",""
"709.8999999761581","","image-keyboard-response","244","202823","0.0-244.0","","img/set1/S4.jpg","74","4","structured_load","74","structured_load,structured_incentive,structured_normal,random","2,3,3,4,2,1","true","","",""
"null","","html-keyboard-response","245","203175","0.0-245.0","","<img src=""img/set1/S4.jpg"" width=""540"" height = ""360"" style=""border:16px solid orange"">","null","","","","","","","","",""
"null","","html-keyboard-response","246","203377","0.0-246.0","","","null","","","","","","","","",""
"1222.1000000238419","","image-keyboard-response","247","204600","0.0-247.0","","img/set1/S2.jpg","68","2","structured_load","68","structured_load,structured_incentive,structured_normal,random","2,3,3,4,2,1","true","","",""
"null","","html-keyboard-response","248","204953","0.0-248.0","","<img src=""img/set1/S2.jpg"" width=""540"" height = ""360"" style=""border:16px solid orange"">","null","","","","","","","","",""
"null","","html-keyboard-response","249","205154","0.0-249.0","","","null","","","","","","","","",""
"732.6000000238419","","image-keyboard-response","250","205887","0.0-250.0","","img/set1/S3.jpg","72","3","structured_load","72","structured_load,structured_incentive,structured_normal,random","2,3,3,4,2,1","true","","",""
"null","","html-keyboard-response","251","206238","0.0-251.0","","<img src=""img/set1/S3.jpg"" width=""540"" height = ""360"" style=""border:16px solid orange"">","null","","","","","","","","",""
"null","","html-keyboard-response","252","206439","0.0-252.0","","","null","","","","","","","","",""
"606.7000000476837","","image-keyboard-response","253","207047","0.0-253.0","","img/set1/S4.jpg","74","4","structured_load","74","structured_load,structured_incentive,structured_normal,random","2,3,3,4,2,1","true","","",""
"null","","html-keyboard-response","254","207400","0.0-254.0","","<img src=""img/set1/S4.jpg"" width=""540"" height = ""360"" style=""border:16px solid orange"">","null","","","","","","","","",""
"null","","html-keyboard-response","255","207601","0.0-255.0","","","null","","","","","","","","",""
"676.8000000715256","","image-keyboard-response","256","208279","0.0-256.0","","img/set1/S2.jpg","68","2","structured_load","68","structured_load,structured_incentive,structured_normal,random","2,3,3,4,2,1","true","","",""
"null","","html-keyboard-response","257","208631","0.0-257.0","","<img src=""img/set1/S2.jpg"" width=""540"" height = ""360"" style=""border:16px solid orange"">","null","","","","","","","","",""
"null","","html-keyboard-response","258","208834","0.0-258.0","","","null","","","","","","","","",""
"444.39999997615814","","image-keyboard-response","259","209279","0.0-259.0","","img/set1/S3.jpg","72","3","structured_load","72","structured_load,structured_incentive,structured_normal,random","2,3,3,4,2,1","true","","",""
"null","","html-keyboard-response","260","209631","0.0-260.0","","<img src=""img/set1/S3.jpg"" width=""540"" height = ""360"" style=""border:16px solid orange"">","null","","","","","","","","",""
"null","","html-keyboard-response","261","209832","0.0-261.0","","","null","","","","","","","","",""
"686","","image-keyboard-response","262","210519","0.0-262.0","","img/set1/S4.jpg","74","4","structured_load","74","structured_load,structured_incentive,structured_normal,random","2,3,3,4,2,1","true","","",""
"null","","html-keyboard-response","263","210872","0.0-263.0","","<img src=""img/set1/S4.jpg"" width=""540"" height = ""360"" style=""border:16px solid orange"">","null","","","","","","","","",""
"null","","html-keyboard-response","264","211073","0.0-264.0","","","null","","","","","","","","",""
"685.5","","image-keyboard-response","265","211759","0.0-265.0","","img/set1/S1.jpg","83","1","structured_load","83","structured_load,structured_incentive,structured_normal,random","2,3,3,4,2,1","true","","",""
"null","","html-keyboard-response","266","212111","0.0-266.0","","<img src=""img/set1/S1.jpg"" width=""540"" height = ""360"" style=""border:16px solid orange"">","null","","","","","","","","",""
"null","","html-keyboard-response","267","212312","0.0-267.0","","","null","","","","","","","","",""
"413.6999999284744","","image-keyboard-response","268","212727","0.0-268.0","","img/set1/S1.jpg","83","1","structured_load","83","structured_load,structured_incentive,structured_normal,random","2,3,3,4,2,1","true","","",""
"null","","html-keyboard-response","269","213080","0.0-269.0","","<img src=""img/set1/S1.jpg"" width=""540"" height = ""360"" style=""border:16px solid orange"">","null","","","","","","","","",""
"null","","html-keyboard-response","270","213282","0.0-270.0","","","null","","","","","","","","",""
"620.2999999523163","","image-keyboard-response","271","213903","0.0-271.0","","img/set1/S4.jpg","74","4","structured_load","74","structured_load,structured_incentive,structured_normal,random","2,3,3,4,2,1","true","","",""
"null","","html-keyboard-response","272","214255","0.0-272.0","","<img src=""img/set1/S4.jpg"" width=""540"" height = ""360"" style=""border:16px solid orange"">","null","","","","","","","","",""
"null","","html-keyboard-response","273","214456","0.0-273.0","","","null","","","","","","","","",""
"726.0999999046326","","image-keyboard-response","274","215184","0.0-274.0","","img/set1/S2.jpg","68","2","structured_load","68","structured_load,structured_incentive,structured_normal,random","2,3,3,4,2,1","true","","",""
"null","","html-keyboard-response","275","215536","0.0-275.0","","<img src=""img/set1/S2.jpg"" width=""540"" height = ""360"" style=""border:16px solid orange"">","null","","","","","","","","",""
"null","","html-keyboard-response","276","215737","0.0-276.0","","","null","","","","","","","","",""
"404.60000002384186","","image-keyboard-response","277","216143","0.0-277.0","","img/set1/S3.jpg","72","3","structured_load","72","structured_load,structured_incentive,structured_normal,random","2,3,3,4,2,1","true","","",""
"null","","html-keyboard-response","278","216494","0.0-278.0","","<img src=""img/set1/S3.jpg"" width=""540"" height = ""360"" style=""border:16px solid orange"">","null","","","","","","","","",""
"null","","html-keyboard-response","279","216696","0.0-279.0","","","null","","","","","","","","",""
"742.3999999761581","","image-keyboard-response","280","217439","0.0-280.0","","img/set1/S2.jpg","68","2","structured_load","68","structured_load,structured_incentive,structured_normal,random","2,3,3,4,2,1","true","","",""
"null","","html-keyboard-response","281","217791","0.0-281.0","","<img src=""img/set1/S2.jpg"" width=""540"" height = ""360"" style=""border:16px solid orange"">","null","","","","","","","","",""
"null","","html-keyboard-response","282","217992","0.0-282.0","","","null","","","","","","","","",""
"646.5","","image-keyboard-response","283","218639","0.0-283.0","","img/set1/S3.jpg","72","3","structured_load","72","structured_load,structured_incentive,structured_normal,random","2,3,3,4,2,1","true","","",""
"null","","html-keyboard-response","284","218992","0.0-284.0","","<img src=""img/set1/S3.jpg"" width=""540"" height = ""360"" style=""border:16px solid orange"">","null","","","","","","","","",""
"null","","html-keyboard-response","285","219194","0.0-285.0","","","null","","","","","","","","",""
"1092.2000000476837","","image-keyboard-response","286","220287","0.0-286.0","","img/set1/S1.jpg","83","1","structured_load","83","structured_load,structured_incentive,structured_normal,random","2,3,3,4,2,1","true","","",""
"null","","html-keyboard-response","287","220638","0.0-287.0","","<img src=""img/set1/S1.jpg"" width=""540"" height = ""360"" style=""border:16px solid orange"">","null","","","","","","","","",""
"null","","html-keyboard-response","288","220840","0.0-288.0","","","null","","","","","","","","",""
"406.39999997615814","","image-keyboard-response","289","221247","0.0-289.0","","img/set1/S1.jpg","83","1","structured_load","83","structured_load,structured_incentive,structured_normal,random","2,3,3,4,2,1","true","","",""
"null","","html-keyboard-response","290","221599","0.0-290.0","","<img src=""img/set1/S1.jpg"" width=""540"" height = ""360"" style=""border:16px solid orange"">","null","","","","","","","","",""
"null","","html-keyboard-response","291","221801","0.0-291.0","","","null","","","","","","","","",""
"381.5","","image-keyboard-response","292","222184","0.0-292.0","","img/set1/S1.jpg","83","1","structured_load","83","structured_load,structured_incentive,structured_normal,random","2,3,3,4,2,1","true","","",""
"null","","html-keyboard-response","293","222536","0.0-293.0","","<img src=""img/set1/S1.jpg"" width=""540"" height = ""360"" style=""border:16px solid orange"">","null","","","","","","","","",""
"null","","html-keyboard-response","294","222746","0.0-294.0","","","null","","","","","","","","",""
"628.5","","image-keyboard-response","295","223375","0.0-295.0","","img/set1/S2.jpg","68","2","structured_load","68","structured_load,structured_incentive,structured_normal,random","2,3,3,4,2,1","true","","",""
"null","","html-keyboard-response","296","223727","0.0-296.0","","<img src=""img/set1/S2.jpg"" width=""540"" height = ""360"" style=""border:16px solid orange"">","null","","","","","","","","",""
"null","","html-keyboard-response","297","223934","0.0-297.0","","","null","","","","","","","","",""
"615.8999999761581","","image-keyboard-response","298","224551","0.0-298.0","","img/set1/S3.jpg","72","3","structured_load","72","structured_load,structured_incentive,structured_normal,random","2,3,3,4,2,1","true","","",""
"null","","html-keyboard-response","299","224903","0.0-299.0","","<img src=""img/set1/S3.jpg"" width=""540"" height = ""360"" style=""border:16px solid orange"">","null","","","","","","","","",""
"null","","html-keyboard-response","300","225104","0.0-300.0","","","null","","","","","","","","",""
"710.7000000476837","","image-keyboard-response","301","225815","0.0-301.0","","img/set1/S1.jpg","83","1","structured_load","83","structured_load,structured_incentive,structured_normal,random","2,3,3,4,2,1","true","","",""
"null","","html-keyboard-response","302","226167","0.0-302.0","","<img src=""img/set1/S1.jpg"" width=""540"" height = ""360"" style=""border:16px solid orange"">","null","","","","","","","","",""
"null","","html-keyboard-response","303","226382","0.0-303.0","","","null","","","","","","","","",""
"600.3999999761581","","image-keyboard-response","304","226983","0.0-304.0","","img/set1/S4.jpg","74","4","structured_load","74","structured_load,structured_incentive,structured_normal,random","2,3,3,4,2,1","true","","",""
"null","","html-keyboard-response","305","227336","0.0-305.0","","<img src=""img/set1/S4.jpg"" width=""540"" height = ""360"" style=""border:16px solid orange"">","null","","","","","","","","",""
"null","","html-keyboard-response","306","227537","0.0-306.0","","","null","","","","","","","","",""
"629.5","","image-keyboard-response","307","228168","0.0-307.0","","img/set1/S1.jpg","83","1","structured_load","83","structured_load,structured_incentive,structured_normal,random","2,3,3,4,2,1","true","","",""
"null","","html-keyboard-response","308","228521","0.0-308.0","","<img src=""img/set1/S1.jpg"" width=""540"" height = ""360"" style=""border:16px solid orange"">","null","","","","","","","","",""
"null","","html-keyboard-response","309","228723","0.0-309.0","","","null","","","","","","","","",""
"795.4000000953674","","image-keyboard-response","310","229519","0.0-310.0","","img/set1/S2.jpg","68","2","structured_load","68","structured_load,structured_incentive,structured_normal,random","2,3,3,4,2,1","true","","",""
"null","","html-keyboard-response","311","229871","0.0-311.0","","<img src=""img/set1/S2.jpg"" width=""540"" height = ""360"" style=""border:16px solid orange"">","null","","","","","","","","",""
"null","","html-keyboard-response","312","230072","0.0-312.0","","","null","","","","","","","","",""
"629.7000000476837","","image-keyboard-response","313","230703","0.0-313.0","","img/set1/S3.jpg","72","3","structured_load","72","structured_load,structured_incentive,structured_normal,random","2,3,3,4,2,1","true","","",""
"null","","html-keyboard-response","314","231055","0.0-314.0","","<img src=""img/set1/S3.jpg"" width=""540"" height = ""360"" style=""border:16px solid orange"">","null","","","","","","","","",""
"null","","html-keyboard-response","315","231257","0.0-315.0","","","null","","","","","","","","",""
"684.8000000715256","","image-keyboard-response","316","231943","0.0-316.0","","img/set1/S2.jpg","68","2","structured_load","68","structured_load,structured_incentive,structured_normal,random","2,3,3,4,2,1","true","","",""
"null","","html-keyboard-response","317","232295","0.0-317.0","","<img src=""img/set1/S2.jpg"" width=""540"" height = ""360"" style=""border:16px solid orange"">","null","","","","","","","","",""
"null","","html-keyboard-response","318","232496","0.0-318.0","","","null","","","","","","","","",""
"558.5","","image-keyboard-response","319","233055","0.0-319.0","","img/set1/S3.jpg","72","3","structured_load","72","structured_load,structured_incentive,structured_normal,random","2,3,3,4,2,1","true","","",""
"null","","html-keyboard-response","320","233407","0.0-320.0","","<img src=""img/set1/S3.jpg"" width=""540"" height = ""360"" style=""border:16px solid orange"">","null","","","","","","","","",""
"null","","html-keyboard-response","321","233618","0.0-321.0","","","null","","","","","","","","",""
"764.7000000476837","","image-keyboard-response","322","234384","0.0-322.0","","img/set1/S2.jpg","68","2","structured_load","68","structured_load,structured_incentive,structured_normal,random","2,3,3,4,2,1","true","","",""
"null","","html-keyboard-response","323","234737","0.0-323.0","","<img src=""img/set1/S2.jpg"" width=""540"" height = ""360"" style=""border:16px solid orange"">","null","","","","","","","","",""
"null","","html-keyboard-response","324","234938","0.0-324.0","","","null","","","","","","","","",""
"747.8999999761581","","image-keyboard-response","325","235687","0.0-325.0","","img/set1/S3.jpg","72","3","structured_load","72","structured_load,structured_incentive,structured_normal,random","2,3,3,4,2,1","true","","",""
"null","","html-keyboard-response","326","236039","0.0-326.0","","<img src=""img/set1/S3.jpg"" width=""540"" height = ""360"" style=""border:16px solid orange"">","null","","","","","","","","",""
"null","","html-keyboard-response","327","236240","0.0-327.0","","","null","","","","","","","","",""
"766.3000000715256","","image-keyboard-response","328","237007","0.0-328.0","","img/set1/S2.jpg","68","2","structured_load","68","structured_load,structured_incentive,structured_normal,random","2,3,3,4,2,1","true","","",""
"null","","html-keyboard-response","329","237359","0.0-329.0","","<img src=""img/set1/S2.jpg"" width=""540"" height = ""360"" style=""border:16px solid orange"">","null","","","","","","","","",""
"null","","html-keyboard-response","330","237561","0.0-330.0","","","null","","","","","","","","",""
"773.0999999046326","","image-keyboard-response","331","238336","0.0-331.0","","img/set1/S3.jpg","72","3","structured_load","72","structured_load,structured_incentive,structured_normal,random","2,3,3,4,2,1","true","","",""
"null","","html-keyboard-response","332","238688","0.0-332.0","","<img src=""img/set1/S3.jpg"" width=""540"" height = ""360"" style=""border:16px solid orange"">","null","","","","","","","","",""
"null","","html-keyboard-response","333","238889","0.0-333.0","","","null","","","","","","","","",""
"652.7999999523163","","image-keyboard-response","334","239543","0.0-334.0","","img/set1/S4.jpg","74","4","structured_load","74","structured_load,structured_incentive,structured_normal,random","2,3,3,4,2,1","true","","",""
"null","","html-keyboard-response","335","239895","0.0-335.0","","<img src=""img/set1/S4.jpg"" width=""540"" height = ""360"" style=""border:16px solid orange"">","null","","","","","","","","",""
"null","","html-keyboard-response","336","240096","0.0-336.0","","","null","","","","","","","","",""
"429.60000002384186","","image-keyboard-response","337","240527","0.0-337.0","","img/set1/S4.jpg","74","4","structured_load","74","structured_load,structured_incentive,structured_normal,random","2,3,3,4,2,1","true","","",""
"null","","html-keyboard-response","338","240878","0.0-338.0","","<img src=""img/set1/S4.jpg"" width=""540"" height = ""360"" style=""border:16px solid orange"">","null","","","","","","","","",""
"null","","html-keyboard-response","339","241079","0.0-339.0","","","null","","","","","","","","",""
"534.6999999284744","","image-keyboard-response","340","241615","0.0-340.0","","img/set1/S1.jpg","83","1","structured_load","83","structured_load,structured_incentive,structured_normal,random","2,3,3,4,2,1","true","","",""
"null","","html-keyboard-response","341","241967","0.0-341.0","","<img src=""img/set1/S1.jpg"" width=""540"" height = ""360"" style=""border:16px solid orange"">","null","","","","","","","","",""
"null","","html-keyboard-response","342","242176","0.0-342.0","","","null","","","","","","","","",""
"590.3000000715256","","image-keyboard-response","343","242767","0.0-343.0","","img/set1/S4.jpg","74","4","structured_load","74","structured_load,structured_incentive,structured_normal,random","2,3,3,4,2,1","true","","",""
"null","","html-keyboard-response","344","243119","0.0-344.0","","<img src=""img/set1/S4.jpg"" width=""540"" height = ""360"" style=""border:16px solid orange"">","null","","","","","","","","",""
"null","","html-keyboard-response","345","243320","0.0-345.0","","","null","","","","","","","","",""
"558.5","","image-keyboard-response","346","243879","0.0-346.0","","img/set1/S1.jpg","83","1","structured_load","83","structured_load,structured_incentive,structured_normal,random","2,3,3,4,2,1","true","","",""
"null","","html-keyboard-response","347","244232","0.0-347.0","","<img src=""img/set1/S1.jpg"" width=""540"" height = ""360"" style=""border:16px solid orange"">","null","","","","","","","","",""
"null","","html-keyboard-response","348","244433","0.0-348.0","","","null","","","","","","","","",""
"445.7000000476837","","image-keyboard-response","349","244879","0.0-349.0","","img/set1/S1.jpg","83","1","structured_load","83","structured_load,structured_incentive,structured_normal,random","2,3,3,4,2,1","true","","",""
"null","","html-keyboard-response","350","245232","0.0-350.0","","<img src=""img/set1/S1.jpg"" width=""540"" height = ""360"" style=""border:16px solid orange"">","null","","","","","","","","",""
"null","","html-keyboard-response","351","245433","0.0-351.0","","","null","","","","","","","","",""
"676.7999999523163","","image-keyboard-response","352","246111","0.0-352.0","","img/set1/S2.jpg","68","2","structured_load","68","structured_load,structured_incentive,structured_normal,random","2,3,3,4,2,1","true","","",""
"null","","html-keyboard-response","353","246463","0.0-353.0","","<img src=""img/set1/S2.jpg"" width=""540"" height = ""360"" style=""border:16px solid orange"">","null","","","","","","","","",""
"null","","html-keyboard-response","354","246664","0.0-354.0","","","null","","","","","","","","",""
"438.7999999523163","","image-keyboard-response","355","247104","0.0-355.0","","img/set1/S3.jpg","72","3","structured_load","72","structured_load,structured_incentive,structured_normal,random","2,3,3,4,2,1","true","","",""
"null","","html-keyboard-response","356","247457","0.0-356.0","","<img src=""img/set1/S3.jpg"" width=""540"" height = ""360"" style=""border:16px solid orange"">","null","","","","","","","","",""
"null","","html-keyboard-response","357","247658","0.0-357.0","","","null","","","","","","","","",""
"563.7999999523163","","image-keyboard-response","358","248223","0.0-358.0","","img/set1/S4.jpg","68","4","structured_load","74","structured_load,structured_incentive,structured_normal,random","2,3,3,4,2,1","false","","",""
"null","","html-keyboard-response","359","248575","0.0-359.0","","<img src=""img/set1/S4.jpg"" width=""540"" height = ""360"">","null","","","","","","","","",""
"null","","html-keyboard-response","360","248776","0.0-360.0","","","null","","","","","","","","",""
"510.10000002384186","","image-keyboard-response","361","249287","0.0-361.0","","img/set1/S4.jpg","74","4","structured_load","74","structured_load,structured_incentive,structured_normal,random","2,3,3,4,2,1","true","","",""
"null","","html-keyboard-response","362","249640","0.0-362.0","","<img src=""img/set1/S4.jpg"" width=""540"" height = ""360"" style=""border:16px solid orange"">","null","","","","","","","","",""
"null","","html-keyboard-response","363","249841","0.0-363.0","","","null","","","","","","","","",""
"10457.5","","survey-multi-choice","364","260301","0.0-364.0","","","","","","","","","","{""Q0"":""Picture B""}","[0]",""
"13033","","html-keyboard-response","365","273335","0.0-365.0","","<p class=""center-content"">You have completed a block! </p><p class=""center-content"">Press any key on the keyboard to continue, </p><p class=""center-content"">or wait for the automatic progression to the next block after one minute.</p>","68","","","","","","","","",""
"3744.399999976158","","instructions","366","277080","0.0-366.0","[{""page_index"":0,""viewing_time"":3744.2999999523163}]","","","","","","","","","","",""
"12525.600000023842","","instructions","367","289606","0.0-367.0","[{""page_index"":0,""viewing_time"":7149.5},{""page_index"":1,""viewing_time"":5375.899999976158}]","","","","","","","","","","",""
"1567.7999999523163","","image-keyboard-response","368","291175","0.0-368.0","","img/set2/S3.jpg","72","3","structured_incentive","72","structured_load,structured_incentive,structured_normal,random","2,3,3,4,2,1","true","","",""
"null","","html-keyboard-response","369","291526","0.0-369.0","","<img src=""img/set2/S3.jpg"" width=""540"" height = ""360"" style=""border:16px solid orange"">","null","","","","","","","","",""
"null","","html-keyboard-response","370","291728","0.0-370.0","","","null","","","","","","","","",""
"838.1000000238419","","image-keyboard-response","371","292567","0.0-371.0","","img/set2/S4.jpg","83","4","structured_incentive","74","structured_load,structured_incentive,structured_normal,random","2,3,3,4,2,1","false","","",""
"null","","html-keyboard-response","372","292920","0.0-372.0","","<img src=""img/set2/S4.jpg"" width=""540"" height = ""360"">","null","","","","","","","","",""
"null","","html-keyboard-response","373","293121","0.0-373.0","","","null","","","","","","","","",""
"709.1000000238419","","image-keyboard-response","374","293831","0.0-374.0","","img/set2/S1.jpg","74","1","structured_incentive","83","structured_load,structured_incentive,structured_normal,random","2,3,3,4,2,1","false","","",""
"null","","html-keyboard-response","375","294184","0.0-375.0","","<img src=""img/set2/S1.jpg"" width=""540"" height = ""360"">","null","","","","","","","","",""
"null","","html-keyboard-response","376","294385","0.0-376.0","","","null","","","","","","","","",""
"1357.6000000238419","","image-keyboard-response","377","295743","0.0-377.0","","img/set2/S2.jpg","83","2","structured_incentive","68","structured_load,structured_incentive,structured_normal,random","2,3,3,4,2,1","false","","",""
"null","","html-keyboard-response","378","296095","0.0-378.0","","<img src=""img/set2/S2.jpg"" width=""540"" height = ""360"">","null","","","","","","","","",""
"null","","html-keyboard-response","379","296296","0.0-379.0","","","null","","","","","","","","",""
"694.3999999761581","","image-keyboard-response","380","296991","0.0-380.0","","img/set2/S1.jpg","68","1","structured_incentive","83","structured_load,structured_incentive,structured_normal,random","2,3,3,4,2,1","false","","",""
"null","","html-keyboard-response","381","297343","0.0-381.0","","<img src=""img/set2/S1.jpg"" width=""540"" height = ""360"">","null","","","","","","","","",""
"null","","html-keyboard-response","382","297545","0.0-382.0","","","null","","","","","","","","",""
"717","","image-keyboard-response","383","298263","0.0-383.0","","img/set2/S3.jpg","74","3","structured_incentive","72","structured_load,structured_incentive,structured_normal,random","2,3,3,4,2,1","false","","",""
"null","","html-keyboard-response","384","298614","0.0-384.0","","<img src=""img/set2/S3.jpg"" width=""540"" height = ""360"">","null","","","","","","","","",""
"null","","html-keyboard-response","385","298816","0.0-385.0","","","null","","","","","","","","",""
"2366.100000023842","","image-keyboard-response","386","301183","0.0-386.0","","img/set2/S4.jpg","68","4","structured_incentive","74","structured_load,structured_incentive,structured_normal,random","2,3,3,4,2,1","false","","",""
"null","","html-keyboard-response","387","301535","0.0-387.0","","<img src=""img/set2/S4.jpg"" width=""540"" height = ""360"">","null","","","","","","","","",""
"null","","html-keyboard-response","388","301737","0.0-388.0","","","null","","","","","","","","",""
"668.6000000238419","","image-keyboard-response","389","302407","0.0-389.0","","img/set2/S3.jpg","83","3","structured_incentive","72","structured_load,structured_incentive,structured_normal,random","2,3,3,4,2,1","false","","",""
"null","","html-keyboard-response","390","302759","0.0-390.0","","<img src=""img/set2/S3.jpg"" width=""540"" height = ""360"">","null","","","","","","","","",""
"null","","html-keyboard-response","391","302960","0.0-391.0","","","null","","","","","","","","",""
"518.3999999761581","","image-keyboard-response","392","303480","0.0-392.0","","img/set2/S4.jpg","72","4","structured_incentive","74","structured_load,structured_incentive,structured_normal,random","2,3,3,4,2,1","false","","",""
"null","","html-keyboard-response","393","303832","0.0-393.0","","<img src=""img/set2/S4.jpg"" width=""540"" height = ""360"">","null","","","","","","","","",""
"null","","html-keyboard-response","394","304035","0.0-394.0","","","null","","","","","","","","",""
"898.7000000476837","","image-keyboard-response","395","304935","0.0-395.0","","img/set2/S1.jpg","68","1","structured_incentive","83","structured_load,structured_incentive,structured_normal,random","2,3,3,4,2,1","false","","",""
"null","","html-keyboard-response","396","305287","0.0-396.0","","<img src=""img/set2/S1.jpg"" width=""540"" height = ""360"">","null","","","","","","","","",""
"null","","html-keyboard-response","397","305488","0.0-397.0","","","null","","","","","","","","",""
"597.7999999523163","","image-keyboard-response","398","306087","0.0-398.0","","img/set2/S2.jpg","83","2","structured_incentive","68","structured_load,structured_incentive,structured_normal,random","2,3,3,4,2,1","false","","",""
"null","","html-keyboard-response","399","306439","0.0-399.0","","<img src=""img/set2/S2.jpg"" width=""540"" height = ""360"">","null","","","","","","","","",""
"null","","html-keyboard-response","400","306641","0.0-400.0","","","null","","","","","","","","",""
"741.3000000715256","","image-keyboard-response","401","307383","0.0-401.0","","img/set2/S1.jpg","68","1","structured_incentive","83","structured_load,structured_incentive,structured_normal,random","2,3,3,4,2,1","false","","",""
"null","","html-keyboard-response","402","307736","0.0-402.0","","<img src=""img/set2/S1.jpg"" width=""540"" height = ""360"">","null","","","","","","","","",""
"null","","html-keyboard-response","403","307938","0.0-403.0","","","null","","","","","","","","",""
"564.2000000476837","","image-keyboard-response","404","308503","0.0-404.0","","img/set2/S2.jpg","72","2","structured_incentive","68","structured_load,structured_incentive,structured_normal,random","2,3,3,4,2,1","false","","",""
"null","","html-keyboard-response","405","308855","0.0-405.0","","<img src=""img/set2/S2.jpg"" width=""540"" height = ""360"">","null","","","","","","","","",""
"null","","html-keyboard-response","406","309056","0.0-406.0","","","null","","","","","","","","",""
"573.5","","image-keyboard-response","407","309631","0.0-407.0","","img/set2/S1.jpg","74","1","structured_incentive","83","structured_load,structured_incentive,structured_normal,random","2,3,3,4,2,1","false","","",""
"null","","html-keyboard-response","408","309983","0.0-408.0","","<img src=""img/set2/S1.jpg"" width=""540"" height = ""360"">","null","","","","","","","","",""
"null","","html-keyboard-response","409","310184","0.0-409.0","","","null","","","","","","","","",""
"669.3000000715256","","image-keyboard-response","410","310855","0.0-410.0","","img/set2/S1.jpg","74","1","structured_incentive","83","structured_load,structured_incentive,structured_normal,random","2,3,3,4,2,1","false","","",""
"null","","html-keyboard-response","411","311206","0.0-411.0","","<img src=""img/set2/S1.jpg"" width=""540"" height = ""360"">","null","","","","","","","","",""
"null","","html-keyboard-response","412","311410","0.0-412.0","","","null","","","","","","","","",""
"596.3999999761581","","image-keyboard-response","413","312007","0.0-413.0","","img/set2/S1.jpg","72","1","structured_incentive","83","structured_load,structured_incentive,structured_normal,random","2,3,3,4,2,1","false","","",""
"null","","html-keyboard-response","414","312359","0.0-414.0","","<img src=""img/set2/S1.jpg"" width=""540"" height = ""360"">","null","","","","","","","","",""
"null","","html-keyboard-response","415","312560","0.0-415.0","","","null","","","","","","","","",""
"813.6000000238419","","image-keyboard-response","416","313375","0.0-416.0","","img/set2/S2.jpg","68","2","structured_incentive","68","structured_load,structured_incentive,structured_normal,random","2,3,3,4,2,1","true","","",""
"null","","html-keyboard-response","417","313728","0.0-417.0","","<img src=""img/set2/S2.jpg"" width=""540"" height = ""360"" style=""border:16px solid orange"">","null","","","","","","","","",""
"null","","html-keyboard-response","418","313932","0.0-418.0","","","null","","","","","","","","",""
"2290.2999999523163","","image-keyboard-response","419","316223","0.0-419.0","","img/set2/S3.jpg","83","3","structured_incentive","72","structured_load,structured_incentive,structured_normal,random","2,3,3,4,2,1","false","","",""
"null","","html-keyboard-response","420","316576","0.0-420.0","","<img src=""img/set2/S3.jpg"" width=""540"" height = ""360"">","null","","","","","","","","",""
"null","","html-keyboard-response","421","316778","0.0-421.0","","","null","","","","","","","","",""
"955.7000000476837","","image-keyboard-response","422","317735","0.0-422.0","","img/set2/S4.jpg","74","4","structured_incentive","74","structured_load,structured_incentive,structured_normal,random","2,3,3,4,2,1","true","","",""
"null","","html-keyboard-response","423","318087","0.0-423.0","","<img src=""img/set2/S4.jpg"" width=""540"" height = ""360"" style=""border:16px solid Violet"">","null","","","","","","","","",""
"null","","html-keyboard-response","424","318289","0.0-424.0","","","null","","","","","","","","",""
"853.1000000238419","","image-keyboard-response","425","319143","0.0-425.0","","img/set2/S3.jpg","68","3","structured_incentive","72","structured_load,structured_incentive,structured_normal,random","2,3,3,4,2,1","false","","",""
"null","","html-keyboard-response","426","319495","0.0-426.0","","<img src=""img/set2/S3.jpg"" width=""540"" height = ""360"">","null","","","","","","","","",""
"null","","html-keyboard-response","427","319697","0.0-427.0","","","null","","","","","","","","",""
"693.3999999761581","","image-keyboard-response","428","320391","0.0-428.0","","img/set2/S4.jpg","74","4","structured_incentive","74","structured_load,structured_incentive,structured_normal,random","2,3,3,4,2,1","true","","",""
"null","","html-keyboard-response","429","320743","0.0-429.0","","<img src=""img/set2/S4.jpg"" width=""540"" height = ""360"" style=""border:16px solid Violet"">","null","","","","","","","","",""
"null","","html-keyboard-response","430","320944","0.0-430.0","","","null","","","","","","","","",""
"805.5","","image-keyboard-response","431","321751","0.0-431.0","","img/set2/S3.jpg","72","3","structured_incentive","72","structured_load,structured_incentive,structured_normal,random","2,3,3,4,2,1","true","","",""
"null","","html-keyboard-response","432","322103","0.0-432.0","","<img src=""img/set2/S3.jpg"" width=""540"" height = ""360"" style=""border:16px solid orange"">","null","","","","","","","","",""
"null","","html-keyboard-response","433","322304","0.0-433.0","","","null","","","","","","","","",""
"678.3999999761581","","image-keyboard-response","434","322984","0.0-434.0","","img/set2/S4.jpg","74","4","structured_incentive","74","structured_load,structured_incentive,structured_normal,random","2,3,3,4,2,1","true","","",""
"null","","html-keyboard-response","435","323336","0.0-435.0","","<img src=""img/set2/S4.jpg"" width=""540"" height = ""360"" style=""border:16px solid Violet"">","null","","","","","","","","",""
"null","","html-keyboard-response","436","323538","0.0-436.0","","","null","","","","","","","","",""
"708.0999999046326","","image-keyboard-response","437","324247","0.0-437.0","","img/set2/S1.jpg","83","1","structured_incentive","83","structured_load,structured_incentive,structured_normal,random","2,3,3,4,2,1","true","","",""
"null","","html-keyboard-response","438","324598","0.0-438.0","","<img src=""img/set2/S1.jpg"" width=""540"" height = ""360"" style=""border:16px solid orange"">","null","","","","","","","","",""
"null","","html-keyboard-response","439","324800","0.0-439.0","","","null","","","","","","","","",""
"518.1999999284744","","image-keyboard-response","440","325319","0.0-440.0","","img/set2/S1.jpg","83","1","structured_incentive","83","structured_load,structured_incentive,structured_normal,random","2,3,3,4,2,1","true","","",""
"null","","html-keyboard-response","441","325672","0.0-441.0","","<img src=""img/set2/S1.jpg"" width=""540"" height = ""360"" style=""border:16px solid orange"">","null","","","","","","","","",""
"null","","html-keyboard-response","442","325874","0.0-442.0","","","null","","","","","","","","",""
"779.8999999761581","","image-keyboard-response","443","326655","0.0-443.0","","img/set2/S3.jpg","72","3","structured_incentive","72","structured_load,structured_incentive,structured_normal,random","2,3,3,4,2,1","true","","",""
"null","","html-keyboard-response","444","327007","0.0-444.0","","<img src=""img/set2/S3.jpg"" width=""540"" height = ""360"" style=""border:16px solid orange"">","null","","","","","","","","",""
"null","","html-keyboard-response","445","327209","0.0-445.0","","","null","","","","","","","","",""
"477.39999997615814","","image-keyboard-response","446","327687","0.0-446.0","","img/set2/S4.jpg","74","4","structured_incentive","74","structured_load,structured_incentive,structured_normal,random","2,3,3,4,2,1","true","","",""
"null","","html-keyboard-response","447","328039","0.0-447.0","","<img src=""img/set2/S4.jpg"" width=""540"" height = ""360"" style=""border:16px solid Violet"">","null","","","","","","","","",""
"null","","html-keyboard-response","448","328240","0.0-448.0","","","null","","","","","","","","",""
"757.7000000476837","","image-keyboard-response","449","328999","0.0-449.0","","img/set2/S1.jpg","68","1","structured_incentive","83","structured_load,structured_incentive,structured_normal,random","2,3,3,4,2,1","false","","",""
"null","","html-keyboard-response","450","329351","0.0-450.0","","<img src=""img/set2/S1.jpg"" width=""540"" height = ""360"">","null","","","","","","","","",""
"null","","html-keyboard-response","451","329553","0.0-451.0","","","null","","","","","","","","",""
"732.6000000238419","","image-keyboard-response","452","330287","0.0-452.0","","img/set2/S3.jpg","72","3","structured_incentive","72","structured_load,structured_incentive,structured_normal,random","2,3,3,4,2,1","true","","",""
"null","","html-keyboard-response","453","330640","0.0-453.0","","<img src=""img/set2/S3.jpg"" width=""540"" height = ""360"" style=""border:16px solid orange"">","null","","","","","","","","",""
"null","","html-keyboard-response","454","330842","0.0-454.0","","","null","","","","","","","","",""
"812.3999999761581","","image-keyboard-response","455","331655","0.0-455.0","","img/set2/S4.jpg","74","4","structured_incentive","74","structured_load,structured_incentive,structured_normal,random","2,3,3,4,2,1","true","","",""
"null","","html-keyboard-response","456","332007","0.0-456.0","","<img src=""img/set2/S4.jpg"" width=""540"" height = ""360"" style=""border:16px solid Violet"">","null","","","","","","","","",""
"null","","html-keyboard-response","457","332215","0.0-457.0","","","null","","","","","","","","",""
"806.8999999761581","","image-keyboard-response","458","333023","0.0-458.0","","img/set2/S1.jpg","83","1","structured_incentive","83","structured_load,structured_incentive,structured_normal,random","2,3,3,4,2,1","true","","",""
"null","","html-keyboard-response","459","333375","0.0-459.0","","<img src=""img/set2/S1.jpg"" width=""540"" height = ""360"" style=""border:16px solid orange"">","null","","","","","","","","",""
"null","","html-keyboard-response","460","333577","0.0-460.0","","","null","","","","","","","","",""
"757.7000000476837","","image-keyboard-response","461","334336","0.0-461.0","","img/set2/S2.jpg","68","2","structured_incentive","68","structured_load,structured_incentive,structured_normal,random","2,3,3,4,2,1","true","","",""
"null","","html-keyboard-response","462","334688","0.0-462.0","","<img src=""img/set2/S2.jpg"" width=""540"" height = ""360"" style=""border:16px solid orange"">","null","","","","","","","","",""
"null","","html-keyboard-response","463","334904","0.0-463.0","","","null","","","","","","","","",""
"830.2999999523163","","image-keyboard-response","464","335735","0.0-464.0","","img/set2/S3.jpg","72","3","structured_incentive","72","structured_load,structured_incentive,structured_normal,random","2,3,3,4,2,1","true","","",""
"null","","html-keyboard-response","465","336087","0.0-465.0","","<img src=""img/set2/S3.jpg"" width=""540"" height = ""360"" style=""border:16px solid orange"">","null","","","","","","","","",""
"null","","html-keyboard-response","466","336289","0.0-466.0","","","null","","","","","","","","",""
"517","","image-keyboard-response","467","336807","0.0-467.0","","img/set2/S4.jpg","74","4","structured_incentive","74","structured_load,structured_incentive,structured_normal,random","2,3,3,4,2,1","true","","",""
"null","","html-keyboard-response","468","337159","0.0-468.0","","<img src=""img/set2/S4.jpg"" width=""540"" height = ""360"" style=""border:16px solid Violet"">","null","","","","","","","","",""
"null","","html-keyboard-response","469","337361","0.0-469.0","","","null","","","","","","","","",""
"860.8000000715256","","image-keyboard-response","470","338223","0.0-470.0","","img/set2/S1.jpg","83","1","structured_incentive","83","structured_load,structured_incentive,structured_normal,random","2,3,3,4,2,1","true","","",""
"null","","html-keyboard-response","471","338574","0.0-471.0","","<img src=""img/set2/S1.jpg"" width=""540"" height = ""360"" style=""border:16px solid orange"">","null","","","","","","","","",""
"null","","html-keyboard-response","472","338775","0.0-472.0","","","null","","","","","","","","",""
"1398.8000000715256","","image-keyboard-response","473","340175","0.0-473.0","","img/set2/S2.jpg","68","2","structured_incentive","68","structured_load,structured_incentive,structured_normal,random","2,3,3,4,2,1","true","","",""
"null","","html-keyboard-response","474","340526","0.0-474.0","","<img src=""img/set2/S2.jpg"" width=""540"" height = ""360"" style=""border:16px solid orange"">","null","","","","","","","","",""
"null","","html-keyboard-response","475","340743","0.0-475.0","","","null","","","","","","","","",""
"799.5","","image-keyboard-response","476","341543","0.0-476.0","","img/set2/S1.jpg","83","1","structured_incentive","83","structured_load,structured_incentive,structured_normal,random","2,3,3,4,2,1","true","","",""
"null","","html-keyboard-response","477","341895","0.0-477.0","","<img src=""img/set2/S1.jpg"" width=""540"" height = ""360"" style=""border:16px solid orange"">","null","","","","","","","","",""
"null","","html-keyboard-response","478","342097","0.0-478.0","","","null","","","","","","","","",""
"2093.2999999523163","","image-keyboard-response","479","344191","0.0-479.0","","img/set2/S2.jpg","68","2","structured_incentive","68","structured_load,structured_incentive,structured_normal,random","2,3,3,4,2,1","true","","",""
"null","","html-keyboard-response","480","344545","0.0-480.0","","<img src=""img/set2/S2.jpg"" width=""540"" height = ""360"" style=""border:16px solid orange"">","null","","","","","","","","",""
"null","","html-keyboard-response","481","344746","0.0-481.0","","","null","","","","","","","","",""
"1451.8000000715256","","image-keyboard-response","482","346199","0.0-482.0","","img/set2/S2.jpg","72","2","structured_incentive","68","structured_load,structured_incentive,structured_normal,random","2,3,3,4,2,1","false","","",""
"null","","html-keyboard-response","483","346551","0.0-483.0","","<img src=""img/set2/S2.jpg"" width=""540"" height = ""360"">","null","","","","","","","","",""
"null","","html-keyboard-response","484","346753","0.0-484.0","","","null","","","","","","","","",""
"581.5","","image-keyboard-response","485","347335","0.0-485.0","","img/set2/S2.jpg","68","2","structured_incentive","68","structured_load,structured_incentive,structured_normal,random","2,3,3,4,2,1","true","","",""
"null","","html-keyboard-response","486","347687","0.0-486.0","","<img src=""img/set2/S2.jpg"" width=""540"" height = ""360"" style=""border:16px solid orange"">","null","","","","","","","","",""
"null","","html-keyboard-response","487","347894","0.0-487.0","","","null","","","","","","","","",""
"911.7000000476837","","image-keyboard-response","488","348807","0.0-488.0","","img/set2/S1.jpg","83","1","structured_incentive","83","structured_load,structured_incentive,structured_normal,random","2,3,3,4,2,1","true","","",""
"null","","html-keyboard-response","489","349160","0.0-489.0","","<img src=""img/set2/S1.jpg"" width=""540"" height = ""360"" style=""border:16px solid orange"">","null","","","","","","","","",""
"null","","html-keyboard-response","490","349362","0.0-490.0","","","null","","","","","","","","",""
"595.5999999046326","","image-keyboard-response","491","349959","0.0-491.0","","img/set2/S2.jpg","68","2","structured_incentive","68","structured_load,structured_incentive,structured_normal,random","2,3,3,4,2,1","true","","",""
"null","","html-keyboard-response","492","350311","0.0-492.0","","<img src=""img/set2/S2.jpg"" width=""540"" height = ""360"" style=""border:16px solid orange"">","null","","","","","","","","",""
"null","","html-keyboard-response","493","350512","0.0-493.0","","","null","","","","","","","","",""
"565.5","","image-keyboard-response","494","351079","0.0-494.0","","img/set2/S2.jpg","68","2","structured_incentive","68","structured_load,structured_incentive,structured_normal,random","2,3,3,4,2,1","true","","",""
"null","","html-keyboard-response","495","351431","0.0-495.0","","<img src=""img/set2/S2.jpg"" width=""540"" height = ""360"" style=""border:16px solid orange"">","null","","","","","","","","",""
"null","","html-keyboard-response","496","351632","0.0-496.0","","","null","","","","","","","","",""
"422.10000002384186","","image-keyboard-response","497","352056","0.0-497.0","","img/set2/S2.jpg","68","2","structured_incentive","68","structured_load,structured_incentive,structured_normal,random","2,3,3,4,2,1","true","","",""
"null","","html-keyboard-response","498","352407","0.0-498.0","","<img src=""img/set2/S2.jpg"" width=""540"" height = ""360"" style=""border:16px solid orange"">","null","","","","","","","","",""
"null","","html-keyboard-response","499","352609","0.0-499.0","","","null","","","","","","","","",""
"589.1000000238419","","image-keyboard-response","500","353199","0.0-500.0","","img/set2/S1.jpg","83","1","structured_incentive","83","structured_load,structured_incentive,structured_normal,random","2,3,3,4,2,1","true","","",""
"null","","html-keyboard-response","501","353550","0.0-501.0","","<img src=""img/set2/S1.jpg"" width=""540"" height = ""360"" style=""border:16px solid orange"">","null","","","","","","","","",""
"null","","html-keyboard-response","502","353751","0.0-502.0","","","null","","","","","","","","",""
"894.2999999523163","","image-keyboard-response","503","354647","0.0-503.0","","img/set2/S3.jpg","72","3","structured_incentive","72","structured_load,structured_incentive,structured_normal,random","2,3,3,4,2,1","true","","",""
"null","","html-keyboard-response","504","354999","0.0-504.0","","<img src=""img/set2/S3.jpg"" width=""540"" height = ""360"" style=""border:16px solid orange"">","null","","","","","","","","",""
"null","","html-keyboard-response","505","355200","0.0-505.0","","","null","","","","","","","","",""
"421.7999999523163","","image-keyboard-response","506","355623","0.0-506.0","","img/set2/S4.jpg","74","4","structured_incentive","74","structured_load,structured_incentive,structured_normal,random","2,3,3,4,2,1","true","","",""
"null","","html-keyboard-response","507","355976","0.0-507.0","","<img src=""img/set2/S4.jpg"" width=""540"" height = ""360"" style=""border:16px solid Violet"">","null","","","","","","","","",""
"null","","html-keyboard-response","508","356177","0.0-508.0","","","null","","","","","","","","",""
"652.8999999761581","","image-keyboard-response","509","356832","0.0-509.0","","img/set2/S3.jpg","72","3","structured_incentive","72","structured_load,structured_incentive,structured_normal,random","2,3,3,4,2,1","true","","",""
"null","","html-keyboard-response","510","357184","0.0-510.0","","<img src=""img/set2/S3.jpg"" width=""540"" height = ""360"" style=""border:16px solid orange"">","null","","","","","","","","",""
"null","","html-keyboard-response","511","357385","0.0-511.0","","","null","","","","","","","","",""
"501.6999999284744","","image-keyboard-response","512","357888","0.0-512.0","","img/set2/S4.jpg","74","4","structured_incentive","74","structured_load,structured_incentive,structured_normal,random","2,3,3,4,2,1","true","","",""
"null","","html-keyboard-response","513","358240","0.0-513.0","","<img src=""img/set2/S4.jpg"" width=""540"" height = ""360"" style=""border:16px solid Violet"">","null","","","","","","","","",""
"null","","html-keyboard-response","514","358442","0.0-514.0","","","null","","","","","","","","",""
"645.2000000476837","","image-keyboard-response","515","359088","0.0-515.0","","img/set2/S3.jpg","72","3","structured_incentive","72","structured_load,structured_incentive,structured_normal,random","2,3,3,4,2,1","true","","",""
"null","","html-keyboard-response","516","359440","0.0-516.0","","<img src=""img/set2/S3.jpg"" width=""540"" height = ""360"" style=""border:16px solid orange"">","null","","","","","","","","",""
"null","","html-keyboard-response","517","359642","0.0-517.0","","","null","","","","","","","","",""
"524.2000000476837","","image-keyboard-response","518","360167","0.0-518.0","","img/set2/S4.jpg","74","4","structured_incentive","74","structured_load,structured_incentive,structured_normal,random","2,3,3,4,2,1","true","","",""
"null","","html-keyboard-response","519","360519","0.0-519.0","","<img src=""img/set2/S4.jpg"" width=""540"" height = ""360"" style=""border:16px solid Violet"">","null","","","","","","","","",""
"null","","html-keyboard-response","520","360721","0.0-520.0","","","null","","","","","","","","",""
"549.8999999761581","","image-keyboard-response","521","361271","0.0-521.0","","img/set2/S3.jpg","72","3","structured_incentive","72","structured_load,structured_incentive,structured_normal,random","2,3,3,4,2,1","true","","",""
"null","","html-keyboard-response","522","361624","0.0-522.0","","<img src=""img/set2/S3.jpg"" width=""540"" height = ""360"" style=""border:16px solid orange"">","null","","","","","","","","",""
"null","","html-keyboard-response","523","361825","0.0-523.0","","","null","","","","","","","","",""
"493.10000002384186","","image-keyboard-response","524","362319","0.0-524.0","","img/set2/S4.jpg","74","4","structured_incentive","74","structured_load,structured_incentive,structured_normal,random","2,3,3,4,2,1","true","","",""
"null","","html-keyboard-response","525","362671","0.0-525.0","","<img src=""img/set2/S4.jpg"" width=""540"" height = ""360"" style=""border:16px solid Violet"">","null","","","","","","","","",""
"null","","html-keyboard-response","526","362873","0.0-526.0","","","null","","","","","","","","",""
"653.0999999046326","","image-keyboard-response","527","363527","0.0-527.0","","img/set2/S1.jpg","83","1","structured_incentive","83","structured_load,structured_incentive,structured_normal,random","2,3,3,4,2,1","true","","",""
"null","","html-keyboard-response","528","363879","0.0-528.0","","<img src=""img/set2/S1.jpg"" width=""540"" height = ""360"" style=""border:16px solid orange"">","null","","","","","","","","",""
"null","","html-keyboard-response","529","364080","0.0-529.0","","","null","","","","","","","","",""
"693.7999999523163","","image-keyboard-response","530","364775","0.0-530.0","","img/set2/S3.jpg","68","3","structured_incentive","72","structured_load,structured_incentive,structured_normal,random","2,3,3,4,2,1","false","","",""
"null","","html-keyboard-response","531","365127","0.0-531.0","","<img src=""img/set2/S3.jpg"" width=""540"" height = ""360"">","null","","","","","","","","",""
"null","","html-keyboard-response","532","365340","0.0-532.0","","","null","","","","","","","","",""
"817.5","","image-keyboard-response","533","366159","0.0-533.0","","img/set2/S4.jpg","74","4","structured_incentive","74","structured_load,structured_incentive,structured_normal,random","2,3,3,4,2,1","true","","",""
"null","","html-keyboard-response","534","366511","0.0-534.0","","<img src=""img/set2/S4.jpg"" width=""540"" height = ""360"" style=""border:16px solid Violet"">","null","","","","","","","","",""
"null","","html-keyboard-response","535","366713","0.0-535.0","","","null","","","","","","","","",""
"661.4000000953674","","image-keyboard-response","536","367375","0.0-536.0","","img/set2/S1.jpg","83","1","structured_incentive","83","structured_load,structured_incentive,structured_normal,random","2,3,3,4,2,1","true","","",""
"null","","html-keyboard-response","537","367727","0.0-537.0","","<img src=""img/set2/S1.jpg"" width=""540"" height = ""360"" style=""border:16px solid orange"">","null","","","","","","","","",""
"null","","html-keyboard-response","538","367929","0.0-538.0","","","null","","","","","","","","",""
"965.8000000715256","","image-keyboard-response","539","368895","0.0-539.0","","img/set2/S3.jpg","72","3","structured_incentive","72","structured_load,structured_incentive,structured_normal,random","2,3,3,4,2,1","true","","",""
"null","","html-keyboard-response","540","369248","0.0-540.0","","<img src=""img/set2/S3.jpg"" width=""540"" height = ""360"" style=""border:16px solid orange"">","null","","","","","","","","",""
"null","","html-keyboard-response","541","369455","0.0-541.0","","","null","","","","","","","","",""
"783.2999999523163","","image-keyboard-response","542","370239","0.0-542.0","","img/set2/S4.jpg","74","4","structured_incentive","74","structured_load,structured_incentive,structured_normal,random","2,3,3,4,2,1","true","","",""
"null","","html-keyboard-response","543","370591","0.0-543.0","","<img src=""img/set2/S4.jpg"" width=""540"" height = ""360"" style=""border:16px solid Violet"">","null","","","","","","","","",""
"null","","html-keyboard-response","544","370792","0.0-544.0","","","null","","","","","","","","",""
"909.9000000953674","","image-keyboard-response","545","371703","0.0-545.0","","img/set2/S2.jpg","68","2","structured_incentive","68","structured_load,structured_incentive,structured_normal,random","2,3,3,4,2,1","true","","",""
"null","","html-keyboard-response","546","372055","0.0-546.0","","<img src=""img/set2/S2.jpg"" width=""540"" height = ""360"" style=""border:16px solid orange"">","null","","","","","","","","",""
"null","","html-keyboard-response","547","372257","0.0-547.0","","","null","","","","","","","","",""
"845.5","","image-keyboard-response","548","373103","0.0-548.0","","img/set2/S3.jpg","72","3","structured_incentive","72","structured_load,structured_incentive,structured_normal,random","2,3,3,4,2,1","true","","",""
"null","","html-keyboard-response","549","373455","0.0-549.0","","<img src=""img/set2/S3.jpg"" width=""540"" height = ""360"" style=""border:16px solid orange"">","null","","","","","","","","",""
"null","","html-keyboard-response","550","373657","0.0-550.0","","","null","","","","","","","","",""
"1221","","image-keyboard-response","551","374879","0.0-551.0","","img/set2/S4.jpg","83","4","structured_incentive","74","structured_load,structured_incentive,structured_normal,random","2,3,3,4,2,1","false","","",""
"null","","html-keyboard-response","552","375231","0.0-552.0","","<img src=""img/set2/S4.jpg"" width=""540"" height = ""360"">","null","","","","","","","","",""
"null","","html-keyboard-response","553","375432","0.0-553.0","","","null","","","","","","","","",""
"774","","image-keyboard-response","554","376207","0.0-554.0","","img/set2/S2.jpg","68","2","structured_incentive","68","structured_load,structured_incentive,structured_normal,random","2,3,3,4,2,1","true","","",""
"null","","html-keyboard-response","555","376559","0.0-555.0","","<img src=""img/set2/S2.jpg"" width=""540"" height = ""360"" style=""border:16px solid orange"">","null","","","","","","","","",""
"null","","html-keyboard-response","556","376760","0.0-556.0","","","null","","","","","","","","",""
"526","","image-keyboard-response","557","377287","0.0-557.0","","img/set2/S2.jpg","68","2","structured_incentive","68","structured_load,structured_incentive,structured_normal,random","2,3,3,4,2,1","true","","",""
"null","","html-keyboard-response","558","377639","0.0-558.0","","<img src=""img/set2/S2.jpg"" width=""540"" height = ""360"" style=""border:16px solid orange"">","null","","","","","","","","",""
"null","","html-keyboard-response","559","377841","0.0-559.0","","","null","","","","","","","","",""
"1989.2999999523163","","image-keyboard-response","560","379831","0.0-560.0","","img/set2/S1.jpg","83","1","structured_incentive","83","structured_load,structured_incentive,structured_normal,random","2,3,3,4,2,1","true","","",""
"null","","html-keyboard-response","561","380184","0.0-561.0","","<img src=""img/set2/S1.jpg"" width=""540"" height = ""360"" style=""border:16px solid orange"">","null","","","","","","","","",""
"null","","html-keyboard-response","562","380385","0.0-562.0","","","null","","","","","","","","",""
"2269","","image-keyboard-response","563","382655","0.0-563.0","","img/set2/S3.jpg","72","3","structured_incentive","72","structured_load,structured_incentive,structured_normal,random","2,3,3,4,2,1","true","","",""
"null","","html-keyboard-response","564","383007","0.0-564.0","","<img src=""img/set2/S3.jpg"" width=""540"" height = ""360"" style=""border:16px solid orange"">","null","","","","","","","","",""
"null","","html-keyboard-response","565","383219","0.0-565.0","","","null","","","","","","","","",""
"1106.5","","image-keyboard-response","566","384327","0.0-566.0","","img/set2/S4.jpg","74","4","structured_incentive","74","structured_load,structured_incentive,structured_normal,random","2,3,3,4,2,1","true","","",""
"null","","html-keyboard-response","567","384678","0.0-567.0","","<img src=""img/set2/S4.jpg"" width=""540"" height = ""360"" style=""border:16px solid Violet"">","null","","","","","","","","",""
"null","","html-keyboard-response","568","384880","0.0-568.0","","","null","","","","","","","","",""
"758.1999999284744","","image-keyboard-response","569","385639","0.0-569.0","","img/set2/S3.jpg","72","3","structured_incentive","72","structured_load,structured_incentive,structured_normal,random","2,3,3,4,2,1","true","","",""
"null","","html-keyboard-response","570","385992","0.0-570.0","","<img src=""img/set2/S3.jpg"" width=""540"" height = ""360"" style=""border:16px solid orange"">","null","","","","","","","","",""
"null","","html-keyboard-response","571","386193","0.0-571.0","","","null","","","","","","","","",""
"700.9000000953674","","image-keyboard-response","572","386895","0.0-572.0","","img/set2/S4.jpg","74","4","structured_incentive","74","structured_load,structured_incentive,structured_normal,random","2,3,3,4,2,1","true","","",""
"null","","html-keyboard-response","573","387247","0.0-573.0","","<img src=""img/set2/S4.jpg"" width=""540"" height = ""360"" style=""border:16px solid Violet"">","null","","","","","","","","",""
"null","","html-keyboard-response","574","387448","0.0-574.0","","","null","","","","","","","","",""
