"rt","url","trial_type","trial_index","time_elapsed","internal_node_id","assignmentID","mturkID","hitID","view_history","stimulus","key_press","state","test_part","correct_response","order_block","order_chunk","order_freq","correct","responses","question_order","bonus"
"621532.6999999881","consent.html","external-html","0","621625","0.0-0.0","3Y4W8Q93L06L6CJLDOG2PSZIGBJDVY","A1969Q0R4Y0E3J","3DZKABX2ZIR9F0FDMQGPG3LEN12CVN","","","","","","","","","","","","",""
"159016.69999998808","","instructions","1","780648","0.0-1.0","3Y4W8Q93L06L6CJLDOG2PSZIGBJDVY","A1969Q0R4Y0E3J","3DZKABX2ZIR9F0FDMQGPG3LEN12CVN","[{""page_index"":0,""viewing_time"":6676.5},{""page_index"":1,""viewing_time"":9489},{""page_index"":2,""viewing_time"":12670.199999988079},{""page_index"":3,""viewing_time"":69529.89999997616},{""page_index"":4,""viewing_time"":10382.400000035763},{""page_index"":5,""viewing_time"":26068},{""page_index"":6,""viewing_time"":24198.30000001192}]","","","","","","","","","","","",""
"12599.699999988079","","instructions","2","793251","0.0-2.0","3Y4W8Q93L06L6CJLDOG2PSZIGBJDVY","A1969Q0R4Y0E3J","3DZKABX2ZIR9F0FDMQGPG3LEN12CVN","[{""page_index"":0,""viewing_time"":12598.699999988079}]","","","","","","","","","","","",""
"6301.699999988079","","instructions","3","799556","0.0-3.0","3Y4W8Q93L06L6CJLDOG2PSZIGBJDVY","A1969Q0R4Y0E3J","3DZKABX2ZIR9F0FDMQGPG3LEN12CVN","[{""page_index"":0,""viewing_time"":6300.400000035763}]","","","","","","","","","","","",""
"1002","","image-keyboard-response","4","800564","0.0-4.0","3Y4W8Q93L06L6CJLDOG2PSZIGBJDVY","A1969Q0R4Y0E3J","3DZKABX2ZIR9F0FDMQGPG3LEN12CVN","","img/set1/S2.jpg","68","2","structured_normal","68","structured_normal,structured_incentive,random,structured_load","3,4,2,3,2,1","1,4,2,3","true","","",""
"null","","html-keyboard-response","5","800933","0.0-5.0","3Y4W8Q93L06L6CJLDOG2PSZIGBJDVY","A1969Q0R4Y0E3J","3DZKABX2ZIR9F0FDMQGPG3LEN12CVN","","<img src=""img/set1/S2.jpg"" width=""540"" height = ""360"" style=""border:16px solid orange"">","null","","","","","","","","","",""
"null","","html-keyboard-response","6","801141","0.0-6.0","3Y4W8Q93L06L6CJLDOG2PSZIGBJDVY","A1969Q0R4Y0E3J","3DZKABX2ZIR9F0FDMQGPG3LEN12CVN","","","null","","","","","","","","","",""
"792.7000000476837","","image-keyboard-response","7","801942","0.0-7.0","3Y4W8Q93L06L6CJLDOG2PSZIGBJDVY","A1969Q0R4Y0E3J","3DZKABX2ZIR9F0FDMQGPG3LEN12CVN","","img/set1/S2.jpg","68","2","structured_normal","68","structured_normal,structured_incentive,random,structured_load","3,4,2,3,2,1","1,4,2,3","true","","",""
"null","","html-keyboard-response","8","802307","0.0-8.0","3Y4W8Q93L06L6CJLDOG2PSZIGBJDVY","A1969Q0R4Y0E3J","3DZKABX2ZIR9F0FDMQGPG3LEN12CVN","","<img src=""img/set1/S2.jpg"" width=""540"" height = ""360"" style=""border:16px solid orange"">","null","","","","","","","","","",""
"null","","html-keyboard-response","9","802518","0.0-9.0","3Y4W8Q93L06L6CJLDOG2PSZIGBJDVY","A1969Q0R4Y0E3J","3DZKABX2ZIR9F0FDMQGPG3LEN12CVN","","","null","","","","","","","","","",""
"843","","image-keyboard-response","10","803365","0.0-10.0","3Y4W8Q93L06L6CJLDOG2PSZIGBJDVY","A1969Q0R4Y0E3J","3DZKABX2ZIR9F0FDMQGPG3LEN12CVN","","img/set1/S1.jpg","72","1","structured_normal","83","structured_normal,structured_incentive,random,structured_load","3,4,2,3,2,1","1,4,2,3","false","","",""
"null","","html-keyboard-response","11","803732","0.0-11.0","3Y4W8Q93L06L6CJLDOG2PSZIGBJDVY","A1969Q0R4Y0E3J","3DZKABX2ZIR9F0FDMQGPG3LEN12CVN","","<img src=""img/set1/S1.jpg"" width=""540"" height = ""360"">","null","","","","","","","","","",""
"null","","html-keyboard-response","12","803941","0.0-12.0","3Y4W8Q93L06L6CJLDOG2PSZIGBJDVY","A1969Q0R4Y0E3J","3DZKABX2ZIR9F0FDMQGPG3LEN12CVN","","","null","","","","","","","","","",""
"501.89999997615814","","image-keyboard-response","13","804447","0.0-13.0","3Y4W8Q93L06L6CJLDOG2PSZIGBJDVY","A1969Q0R4Y0E3J","3DZKABX2ZIR9F0FDMQGPG3LEN12CVN","","img/set1/S1.jpg","74","1","structured_normal","83","structured_normal,structured_incentive,random,structured_load","3,4,2,3,2,1","1,4,2,3","false","","",""
"null","","html-keyboard-response","14","804811","0.0-14.0","3Y4W8Q93L06L6CJLDOG2PSZIGBJDVY","A1969Q0R4Y0E3J","3DZKABX2ZIR9F0FDMQGPG3LEN12CVN","","<img src=""img/set1/S1.jpg"" width=""540"" height = ""360"">","null","","","","","","","","","",""
"null","","html-keyboard-response","15","805021","0.0-15.0","3Y4W8Q93L06L6CJLDOG2PSZIGBJDVY","A1969Q0R4Y0E3J","3DZKABX2ZIR9F0FDMQGPG3LEN12CVN","","","null","","","","","","","","","",""
"375.89999997615814","","image-keyboard-response","16","805401","0.0-16.0","3Y4W8Q93L06L6CJLDOG2PSZIGBJDVY","A1969Q0R4Y0E3J","3DZKABX2ZIR9F0FDMQGPG3LEN12CVN","","img/set1/S1.jpg","83","1","structured_normal","83","structured_normal,structured_incentive,random,structured_load","3,4,2,3,2,1","1,4,2,3","true","","",""
"null","","html-keyboard-response","17","805772","0.0-17.0","3Y4W8Q93L06L6CJLDOG2PSZIGBJDVY","A1969Q0R4Y0E3J","3DZKABX2ZIR9F0FDMQGPG3LEN12CVN","","<img src=""img/set1/S1.jpg"" width=""540"" height = ""360"" style=""border:16px solid orange"">","null","","","","","","","","","",""
"null","","html-keyboard-response","18","805980","0.0-18.0","3Y4W8Q93L06L6CJLDOG2PSZIGBJDVY","A1969Q0R4Y0E3J","3DZKABX2ZIR9F0FDMQGPG3LEN12CVN","","","null","","","","","","","","","",""
"989.4000000357628","","image-keyboard-response","19","806973","0.0-19.0","3Y4W8Q93L06L6CJLDOG2PSZIGBJDVY","A1969Q0R4Y0E3J","3DZKABX2ZIR9F0FDMQGPG3LEN12CVN","","img/set1/S3.jpg","72","3","structured_normal","72","structured_normal,structured_incentive,random,structured_load","3,4,2,3,2,1","1,4,2,3","true","","",""
"null","","html-keyboard-response","20","807342","0.0-20.0","3Y4W8Q93L06L6CJLDOG2PSZIGBJDVY","A1969Q0R4Y0E3J","3DZKABX2ZIR9F0FDMQGPG3LEN12CVN","","<img src=""img/set1/S3.jpg"" width=""540"" height = ""360"" style=""border:16px solid orange"">","null","","","","","","","","","",""
"null","","html-keyboard-response","21","807561","0.0-21.0","3Y4W8Q93L06L6CJLDOG2PSZIGBJDVY","A1969Q0R4Y0E3J","3DZKABX2ZIR9F0FDMQGPG3LEN12CVN","","","null","","","","","","","","","",""
"824.6999999880791","","image-keyboard-response","22","808390","0.0-22.0","3Y4W8Q93L06L6CJLDOG2PSZIGBJDVY","A1969Q0R4Y0E3J","3DZKABX2ZIR9F0FDMQGPG3LEN12CVN","","img/set1/S4.jpg","74","4","structured_normal","74","structured_normal,structured_incentive,random,structured_load","3,4,2,3,2,1","1,4,2,3","true","","",""
"null","","html-keyboard-response","23","808782","0.0-23.0","3Y4W8Q93L06L6CJLDOG2PSZIGBJDVY","A1969Q0R4Y0E3J","3DZKABX2ZIR9F0FDMQGPG3LEN12CVN","","<img src=""img/set1/S4.jpg"" width=""540"" height = ""360"" style=""border:16px solid orange"">","null","","","","","","","","","",""
"null","","html-keyboard-response","24","808996","0.0-24.0","3Y4W8Q93L06L6CJLDOG2PSZIGBJDVY","A1969Q0R4Y0E3J","3DZKABX2ZIR9F0FDMQGPG3LEN12CVN","","","null","","","","","","","","","",""
"783.2999999523163","","image-keyboard-response","25","809783","0.0-25.0","3Y4W8Q93L06L6CJLDOG2PSZIGBJDVY","A1969Q0R4Y0E3J","3DZKABX2ZIR9F0FDMQGPG3LEN12CVN","","img/set1/S2.jpg","68","2","structured_normal","68","structured_normal,structured_incentive,random,structured_load","3,4,2,3,2,1","1,4,2,3","true","","",""
"null","","html-keyboard-response","26","810151","0.0-26.0","3Y4W8Q93L06L6CJLDOG2PSZIGBJDVY","A1969Q0R4Y0E3J","3DZKABX2ZIR9F0FDMQGPG3LEN12CVN","","<img src=""img/set1/S2.jpg"" width=""540"" height = ""360"" style=""border:16px solid orange"">","null","","","","","","","","","",""
"null","","html-keyboard-response","27","810361","0.0-27.0","3Y4W8Q93L06L6CJLDOG2PSZIGBJDVY","A1969Q0R4Y0E3J","3DZKABX2ZIR9F0FDMQGPG3LEN12CVN","","","null","","","","","","","","","",""
"493.80000001192093","","image-keyboard-response","28","810859","0.0-28.0","3Y4W8Q93L06L6CJLDOG2PSZIGBJDVY","A1969Q0R4Y0E3J","3DZKABX2ZIR9F0FDMQGPG3LEN12CVN","","img/set1/S2.jpg","68","2","structured_normal","68","structured_normal,structured_incentive,random,structured_load","3,4,2,3,2,1","1,4,2,3","true","","",""
"null","","html-keyboard-response","29","811221","0.0-29.0","3Y4W8Q93L06L6CJLDOG2PSZIGBJDVY","A1969Q0R4Y0E3J","3DZKABX2ZIR9F0FDMQGPG3LEN12CVN","","<img src=""img/set1/S2.jpg"" width=""540"" height = ""360"" style=""border:16px solid orange"">","null","","","","","","","","","",""
"null","","html-keyboard-response","30","811431","0.0-30.0","3Y4W8Q93L06L6CJLDOG2PSZIGBJDVY","A1969Q0R4Y0E3J","3DZKABX2ZIR9F0FDMQGPG3LEN12CVN","","","null","","","","","","","","","",""
"739","","image-keyboard-response","31","812173","0.0-31.0","3Y4W8Q93L06L6CJLDOG2PSZIGBJDVY","A1969Q0R4Y0E3J","3DZKABX2ZIR9F0FDMQGPG3LEN12CVN","","img/set1/S2.jpg","68","2","structured_normal","68","structured_normal,structured_incentive,random,structured_load","3,4,2,3,2,1","1,4,2,3","true","","",""
"null","","html-keyboard-response","32","812532","0.0-32.0","3Y4W8Q93L06L6CJLDOG2PSZIGBJDVY","A1969Q0R4Y0E3J","3DZKABX2ZIR9F0FDMQGPG3LEN12CVN","","<img src=""img/set1/S2.jpg"" width=""540"" height = ""360"" style=""border:16px solid orange"">","null","","","","","","","","","",""
"null","","html-keyboard-response","33","812742","0.0-33.0","3Y4W8Q93L06L6CJLDOG2PSZIGBJDVY","A1969Q0R4Y0E3J","3DZKABX2ZIR9F0FDMQGPG3LEN12CVN","","","null","","","","","","","","","",""
"1048.7999999523163","","image-keyboard-response","34","813794","0.0-34.0","3Y4W8Q93L06L6CJLDOG2PSZIGBJDVY","A1969Q0R4Y0E3J","3DZKABX2ZIR9F0FDMQGPG3LEN12CVN","","img/set1/S1.jpg","74","1","structured_normal","83","structured_normal,structured_incentive,random,structured_load","3,4,2,3,2,1","1,4,2,3","false","","",""
"null","","html-keyboard-response","35","814150","0.0-35.0","3Y4W8Q93L06L6CJLDOG2PSZIGBJDVY","A1969Q0R4Y0E3J","3DZKABX2ZIR9F0FDMQGPG3LEN12CVN","","<img src=""img/set1/S1.jpg"" width=""540"" height = ""360"">","null","","","","","","","","","",""
"null","","html-keyboard-response","36","814362","0.0-36.0","3Y4W8Q93L06L6CJLDOG2PSZIGBJDVY","A1969Q0R4Y0E3J","3DZKABX2ZIR9F0FDMQGPG3LEN12CVN","","","null","","","","","","","","","",""
"687.5","","image-keyboard-response","37","815054","0.0-37.0","3Y4W8Q93L06L6CJLDOG2PSZIGBJDVY","A1969Q0R4Y0E3J","3DZKABX2ZIR9F0FDMQGPG3LEN12CVN","","img/set1/S1.jpg","72","1","structured_normal","83","structured_normal,structured_incentive,random,structured_load","3,4,2,3,2,1","1,4,2,3","false","","",""
"null","","html-keyboard-response","38","815419","0.0-38.0","3Y4W8Q93L06L6CJLDOG2PSZIGBJDVY","A1969Q0R4Y0E3J","3DZKABX2ZIR9F0FDMQGPG3LEN12CVN","","<img src=""img/set1/S1.jpg"" width=""540"" height = ""360"">","null","","","","","","","","","",""
"null","","html-keyboard-response","39","815631","0.0-39.0","3Y4W8Q93L06L6CJLDOG2PSZIGBJDVY","A1969Q0R4Y0E3J","3DZKABX2ZIR9F0FDMQGPG3LEN12CVN","","","null","","","","","","","","","",""
"634.6999999880791","","image-keyboard-response","40","816270","0.0-40.0","3Y4W8Q93L06L6CJLDOG2PSZIGBJDVY","A1969Q0R4Y0E3J","3DZKABX2ZIR9F0FDMQGPG3LEN12CVN","","img/set1/S1.jpg","83","1","structured_normal","83","structured_normal,structured_incentive,random,structured_load","3,4,2,3,2,1","1,4,2,3","true","","",""
"null","","html-keyboard-response","41","816631","0.0-41.0","3Y4W8Q93L06L6CJLDOG2PSZIGBJDVY","A1969Q0R4Y0E3J","3DZKABX2ZIR9F0FDMQGPG3LEN12CVN","","<img src=""img/set1/S1.jpg"" width=""540"" height = ""360"" style=""border:16px solid orange"">","null","","","","","","","","","",""
"null","","html-keyboard-response","42","816842","0.0-42.0","3Y4W8Q93L06L6CJLDOG2PSZIGBJDVY","A1969Q0R4Y0E3J","3DZKABX2ZIR9F0FDMQGPG3LEN12CVN","","","null","","","","","","","","","",""
"1153.3999999761581","","image-keyboard-response","43","817999","0.0-43.0","3Y4W8Q93L06L6CJLDOG2PSZIGBJDVY","A1969Q0R4Y0E3J","3DZKABX2ZIR9F0FDMQGPG3LEN12CVN","","img/set1/S3.jpg","72","3","structured_normal","72","structured_normal,structured_incentive,random,structured_load","3,4,2,3,2,1","1,4,2,3","true","","",""
"null","","html-keyboard-response","44","818363","0.0-44.0","3Y4W8Q93L06L6CJLDOG2PSZIGBJDVY","A1969Q0R4Y0E3J","3DZKABX2ZIR9F0FDMQGPG3LEN12CVN","","<img src=""img/set1/S3.jpg"" width=""540"" height = ""360"" style=""border:16px solid orange"">","null","","","","","","","","","",""
"null","","html-keyboard-response","45","818581","0.0-45.0","3Y4W8Q93L06L6CJLDOG2PSZIGBJDVY","A1969Q0R4Y0E3J","3DZKABX2ZIR9F0FDMQGPG3LEN12CVN","","","null","","","","","","","","","",""
"680.9000000357628","","image-keyboard-response","46","819266","0.0-46.0","3Y4W8Q93L06L6CJLDOG2PSZIGBJDVY","A1969Q0R4Y0E3J","3DZKABX2ZIR9F0FDMQGPG3LEN12CVN","","img/set1/S4.jpg","74","4","structured_normal","74","structured_normal,structured_incentive,random,structured_load","3,4,2,3,2,1","1,4,2,3","true","","",""
"null","","html-keyboard-response","47","819631","0.0-47.0","3Y4W8Q93L06L6CJLDOG2PSZIGBJDVY","A1969Q0R4Y0E3J","3DZKABX2ZIR9F0FDMQGPG3LEN12CVN","","<img src=""img/set1/S4.jpg"" width=""540"" height = ""360"" style=""border:16px solid orange"">","null","","","","","","","","","",""
"null","","html-keyboard-response","48","819843","0.0-48.0","3Y4W8Q93L06L6CJLDOG2PSZIGBJDVY","A1969Q0R4Y0E3J","3DZKABX2ZIR9F0FDMQGPG3LEN12CVN","","","null","","","","","","","","","",""
"973.3999999761581","","image-keyboard-response","49","820820","0.0-49.0","3Y4W8Q93L06L6CJLDOG2PSZIGBJDVY","A1969Q0R4Y0E3J","3DZKABX2ZIR9F0FDMQGPG3LEN12CVN","","img/set1/S1.jpg","83","1","structured_normal","83","structured_normal,structured_incentive,random,structured_load","3,4,2,3,2,1","1,4,2,3","true","","",""
"null","","html-keyboard-response","50","821181","0.0-50.0","3Y4W8Q93L06L6CJLDOG2PSZIGBJDVY","A1969Q0R4Y0E3J","3DZKABX2ZIR9F0FDMQGPG3LEN12CVN","","<img src=""img/set1/S1.jpg"" width=""540"" height = ""360"" style=""border:16px solid orange"">","null","","","","","","","","","",""
"null","","html-keyboard-response","51","821392","0.0-51.0","3Y4W8Q93L06L6CJLDOG2PSZIGBJDVY","A1969Q0R4Y0E3J","3DZKABX2ZIR9F0FDMQGPG3LEN12CVN","","","null","","","","","","","","","",""
"820.3999999761581","","image-keyboard-response","52","822216","0.0-52.0","3Y4W8Q93L06L6CJLDOG2PSZIGBJDVY","A1969Q0R4Y0E3J","3DZKABX2ZIR9F0FDMQGPG3LEN12CVN","","img/set1/S2.jpg","68","2","structured_normal","68","structured_normal,structured_incentive,random,structured_load","3,4,2,3,2,1","1,4,2,3","true","","",""
"null","","html-keyboard-response","53","822583","0.0-53.0","3Y4W8Q93L06L6CJLDOG2PSZIGBJDVY","A1969Q0R4Y0E3J","3DZKABX2ZIR9F0FDMQGPG3LEN12CVN","","<img src=""img/set1/S2.jpg"" width=""540"" height = ""360"" style=""border:16px solid orange"">","null","","","","","","","","","",""
"null","","html-keyboard-response","54","822793","0.0-54.0","3Y4W8Q93L06L6CJLDOG2PSZIGBJDVY","A1969Q0R4Y0E3J","3DZKABX2ZIR9F0FDMQGPG3LEN12CVN","","","null","","","","","","","","","",""
"882.4000000357628","","image-keyboard-response","55","823680","0.0-55.0","3Y4W8Q93L06L6CJLDOG2PSZIGBJDVY","A1969Q0R4Y0E3J","3DZKABX2ZIR9F0FDMQGPG3LEN12CVN","","img/set1/S1.jpg","72","1","structured_normal","83","structured_normal,structured_incentive,random,structured_load","3,4,2,3,2,1","1,4,2,3","false","","",""
"null","","html-keyboard-response","56","824042","0.0-56.0","3Y4W8Q93L06L6CJLDOG2PSZIGBJDVY","A1969Q0R4Y0E3J","3DZKABX2ZIR9F0FDMQGPG3LEN12CVN","","<img src=""img/set1/S1.jpg"" width=""540"" height = ""360"">","null","","","","","","","","","",""
"null","","html-keyboard-response","57","824257","0.0-57.0","3Y4W8Q93L06L6CJLDOG2PSZIGBJDVY","A1969Q0R4Y0E3J","3DZKABX2ZIR9F0FDMQGPG3LEN12CVN","","","null","","","","","","","","","",""
"928.2000000476837","","image-keyboard-response","58","825189","0.0-58.0","3Y4W8Q93L06L6CJLDOG2PSZIGBJDVY","A1969Q0R4Y0E3J","3DZKABX2ZIR9F0FDMQGPG3LEN12CVN","","img/set1/S2.jpg","68","2","structured_normal","68","structured_normal,structured_incentive,random,structured_load","3,4,2,3,2,1","1,4,2,3","true","","",""
"null","","html-keyboard-response","59","825553","0.0-59.0","3Y4W8Q93L06L6CJLDOG2PSZIGBJDVY","A1969Q0R4Y0E3J","3DZKABX2ZIR9F0FDMQGPG3LEN12CVN","","<img src=""img/set1/S2.jpg"" width=""540"" height = ""360"" style=""border:16px solid orange"">","null","","","","","","","","","",""
"null","","html-keyboard-response","60","825769","0.0-60.0","3Y4W8Q93L06L6CJLDOG2PSZIGBJDVY","A1969Q0R4Y0E3J","3DZKABX2ZIR9F0FDMQGPG3LEN12CVN","","","null","","","","","","","","","",""
"705.3000000119209","","image-keyboard-response","61","826478","0.0-61.0","3Y4W8Q93L06L6CJLDOG2PSZIGBJDVY","A1969Q0R4Y0E3J","3DZKABX2ZIR9F0FDMQGPG3LEN12CVN","","img/set1/S1.jpg","83","1","structured_normal","83","structured_normal,structured_incentive,random,structured_load","3,4,2,3,2,1","1,4,2,3","true","","",""
"null","","html-keyboard-response","62","826833","0.0-62.0","3Y4W8Q93L06L6CJLDOG2PSZIGBJDVY","A1969Q0R4Y0E3J","3DZKABX2ZIR9F0FDMQGPG3LEN12CVN","","<img src=""img/set1/S1.jpg"" width=""540"" height = ""360"" style=""border:16px solid orange"">","null","","","","","","","","","",""
"null","","html-keyboard-response","63","827042","0.0-63.0","3Y4W8Q93L06L6CJLDOG2PSZIGBJDVY","A1969Q0R4Y0E3J","3DZKABX2ZIR9F0FDMQGPG3LEN12CVN","","","null","","","","","","","","","",""
"667","","image-keyboard-response","64","827713","0.0-64.0","3Y4W8Q93L06L6CJLDOG2PSZIGBJDVY","A1969Q0R4Y0E3J","3DZKABX2ZIR9F0FDMQGPG3LEN12CVN","","img/set1/S2.jpg","68","2","structured_normal","68","structured_normal,structured_incentive,random,structured_load","3,4,2,3,2,1","1,4,2,3","true","","",""
"null","","html-keyboard-response","65","828081","0.0-65.0","3Y4W8Q93L06L6CJLDOG2PSZIGBJDVY","A1969Q0R4Y0E3J","3DZKABX2ZIR9F0FDMQGPG3LEN12CVN","","<img src=""img/set1/S2.jpg"" width=""540"" height = ""360"" style=""border:16px solid orange"">","null","","","","","","","","","",""
"null","","html-keyboard-response","66","828299","0.0-66.0","3Y4W8Q93L06L6CJLDOG2PSZIGBJDVY","A1969Q0R4Y0E3J","3DZKABX2ZIR9F0FDMQGPG3LEN12CVN","","","null","","","","","","","","","",""
"683.1999999880791","","image-keyboard-response","67","828986","0.0-67.0","3Y4W8Q93L06L6CJLDOG2PSZIGBJDVY","A1969Q0R4Y0E3J","3DZKABX2ZIR9F0FDMQGPG3LEN12CVN","","img/set1/S1.jpg","83","1","structured_normal","83","structured_normal,structured_incentive,random,structured_load","3,4,2,3,2,1","1,4,2,3","true","","",""
"null","","html-keyboard-response","68","829352","0.0-68.0","3Y4W8Q93L06L6CJLDOG2PSZIGBJDVY","A1969Q0R4Y0E3J","3DZKABX2ZIR9F0FDMQGPG3LEN12CVN","","<img src=""img/set1/S1.jpg"" width=""540"" height = ""360"" style=""border:16px solid orange"">","null","","","","","","","","","",""
"null","","html-keyboard-response","69","829562","0.0-69.0","3Y4W8Q93L06L6CJLDOG2PSZIGBJDVY","A1969Q0R4Y0E3J","3DZKABX2ZIR9F0FDMQGPG3LEN12CVN","","","null","","","","","","","","","",""
"503.5","","image-keyboard-response","70","830075","0.0-70.0","3Y4W8Q93L06L6CJLDOG2PSZIGBJDVY","A1969Q0R4Y0E3J","3DZKABX2ZIR9F0FDMQGPG3LEN12CVN","","img/set1/S1.jpg","83","1","structured_normal","83","structured_normal,structured_incentive,random,structured_load","3,4,2,3,2,1","1,4,2,3","true","","",""
"null","","html-keyboard-response","71","830432","0.0-71.0","3Y4W8Q93L06L6CJLDOG2PSZIGBJDVY","A1969Q0R4Y0E3J","3DZKABX2ZIR9F0FDMQGPG3LEN12CVN","","<img src=""img/set1/S1.jpg"" width=""540"" height = ""360"" style=""border:16px solid orange"">","null","","","","","","","","","",""
"null","","html-keyboard-response","72","830636","0.0-72.0","3Y4W8Q93L06L6CJLDOG2PSZIGBJDVY","A1969Q0R4Y0E3J","3DZKABX2ZIR9F0FDMQGPG3LEN12CVN","","","null","","","","","","","","","",""
"531.6999999880791","","image-keyboard-response","73","831172","0.0-73.0","3Y4W8Q93L06L6CJLDOG2PSZIGBJDVY","A1969Q0R4Y0E3J","3DZKABX2ZIR9F0FDMQGPG3LEN12CVN","","img/set1/S2.jpg","68","2","structured_normal","68","structured_normal,structured_incentive,random,structured_load","3,4,2,3,2,1","1,4,2,3","true","","",""
"null","","html-keyboard-response","74","831529","0.0-74.0","3Y4W8Q93L06L6CJLDOG2PSZIGBJDVY","A1969Q0R4Y0E3J","3DZKABX2ZIR9F0FDMQGPG3LEN12CVN","","<img src=""img/set1/S2.jpg"" width=""540"" height = ""360"" style=""border:16px solid orange"">","null","","","","","","","","","",""
"null","","html-keyboard-response","75","831742","0.0-75.0","3Y4W8Q93L06L6CJLDOG2PSZIGBJDVY","A1969Q0R4Y0E3J","3DZKABX2ZIR9F0FDMQGPG3LEN12CVN","","","null","","","","","","","","","",""
"533.6999999880791","","image-keyboard-response","76","832279","0.0-76.0","3Y4W8Q93L06L6CJLDOG2PSZIGBJDVY","A1969Q0R4Y0E3J","3DZKABX2ZIR9F0FDMQGPG3LEN12CVN","","img/set1/S2.jpg","68","2","structured_normal","68","structured_normal,structured_incentive,random,structured_load","3,4,2,3,2,1","1,4,2,3","true","","",""
"null","","html-keyboard-response","77","832642","0.0-77.0","3Y4W8Q93L06L6CJLDOG2PSZIGBJDVY","A1969Q0R4Y0E3J","3DZKABX2ZIR9F0FDMQGPG3LEN12CVN","","<img src=""img/set1/S2.jpg"" width=""540"" height = ""360"" style=""border:16px solid orange"">","null","","","","","","","","","",""
"null","","html-keyboard-response","78","832852","0.0-78.0","3Y4W8Q93L06L6CJLDOG2PSZIGBJDVY","A1969Q0R4Y0E3J","3DZKABX2ZIR9F0FDMQGPG3LEN12CVN","","","null","","","","","","","","","",""
"414.80000001192093","","image-keyboard-response","79","833270","0.0-79.0","3Y4W8Q93L06L6CJLDOG2PSZIGBJDVY","A1969Q0R4Y0E3J","3DZKABX2ZIR9F0FDMQGPG3LEN12CVN","","img/set1/S2.jpg","68","2","structured_normal","68","structured_normal,structured_incentive,random,structured_load","3,4,2,3,2,1","1,4,2,3","true","","",""
"null","","html-keyboard-response","80","833632","0.0-80.0","3Y4W8Q93L06L6CJLDOG2PSZIGBJDVY","A1969Q0R4Y0E3J","3DZKABX2ZIR9F0FDMQGPG3LEN12CVN","","<img src=""img/set1/S2.jpg"" width=""540"" height = ""360"" style=""border:16px solid orange"">","null","","","","","","","","","",""
"null","","html-keyboard-response","81","833842","0.0-81.0","3Y4W8Q93L06L6CJLDOG2PSZIGBJDVY","A1969Q0R4Y0E3J","3DZKABX2ZIR9F0FDMQGPG3LEN12CVN","","","null","","","","","","","","","",""
"711.6000000238419","","image-keyboard-response","82","834557","0.0-82.0","3Y4W8Q93L06L6CJLDOG2PSZIGBJDVY","A1969Q0R4Y0E3J","3DZKABX2ZIR9F0FDMQGPG3LEN12CVN","","img/set1/S1.jpg","83","1","structured_normal","83","structured_normal,structured_incentive,random,structured_load","3,4,2,3,2,1","1,4,2,3","true","","",""
"null","","html-keyboard-response","83","834922","0.0-83.0","3Y4W8Q93L06L6CJLDOG2PSZIGBJDVY","A1969Q0R4Y0E3J","3DZKABX2ZIR9F0FDMQGPG3LEN12CVN","","<img src=""img/set1/S1.jpg"" width=""540"" height = ""360"" style=""border:16px solid orange"">","null","","","","","","","","","",""
"null","","html-keyboard-response","84","835132","0.0-84.0","3Y4W8Q93L06L6CJLDOG2PSZIGBJDVY","A1969Q0R4Y0E3J","3DZKABX2ZIR9F0FDMQGPG3LEN12CVN","","","null","","","","","","","","","",""
"487.80000001192093","","image-keyboard-response","85","835623","0.0-85.0","3Y4W8Q93L06L6CJLDOG2PSZIGBJDVY","A1969Q0R4Y0E3J","3DZKABX2ZIR9F0FDMQGPG3LEN12CVN","","img/set1/S1.jpg","83","1","structured_normal","83","structured_normal,structured_incentive,random,structured_load","3,4,2,3,2,1","1,4,2,3","true","","",""
"null","","html-keyboard-response","86","835992","0.0-86.0","3Y4W8Q93L06L6CJLDOG2PSZIGBJDVY","A1969Q0R4Y0E3J","3DZKABX2ZIR9F0FDMQGPG3LEN12CVN","","<img src=""img/set1/S1.jpg"" width=""540"" height = ""360"" style=""border:16px solid orange"">","null","","","","","","","","","",""
"null","","html-keyboard-response","87","836211","0.0-87.0","3Y4W8Q93L06L6CJLDOG2PSZIGBJDVY","A1969Q0R4Y0E3J","3DZKABX2ZIR9F0FDMQGPG3LEN12CVN","","","null","","","","","","","","","",""
"859","","image-keyboard-response","88","837074","0.0-88.0","3Y4W8Q93L06L6CJLDOG2PSZIGBJDVY","A1969Q0R4Y0E3J","3DZKABX2ZIR9F0FDMQGPG3LEN12CVN","","img/set1/S3.jpg","72","3","structured_normal","72","structured_normal,structured_incentive,random,structured_load","3,4,2,3,2,1","1,4,2,3","true","","",""
"null","","html-keyboard-response","89","837445","0.0-89.0","3Y4W8Q93L06L6CJLDOG2PSZIGBJDVY","A1969Q0R4Y0E3J","3DZKABX2ZIR9F0FDMQGPG3LEN12CVN","","<img src=""img/set1/S3.jpg"" width=""540"" height = ""360"" style=""border:16px solid orange"">","null","","","","","","","","","",""
"null","","html-keyboard-response","90","837652","0.0-90.0","3Y4W8Q93L06L6CJLDOG2PSZIGBJDVY","A1969Q0R4Y0E3J","3DZKABX2ZIR9F0FDMQGPG3LEN12CVN","","","null","","","","","","","","","",""
"551.3999999761581","","image-keyboard-response","91","838207","0.0-91.0","3Y4W8Q93L06L6CJLDOG2PSZIGBJDVY","A1969Q0R4Y0E3J","3DZKABX2ZIR9F0FDMQGPG3LEN12CVN","","img/set1/S4.jpg","74","4","structured_normal","74","structured_normal,structured_incentive,random,structured_load","3,4,2,3,2,1","1,4,2,3","true","","",""
"null","","html-keyboard-response","92","838573","0.0-92.0","3Y4W8Q93L06L6CJLDOG2PSZIGBJDVY","A1969Q0R4Y0E3J","3DZKABX2ZIR9F0FDMQGPG3LEN12CVN","","<img src=""img/set1/S4.jpg"" width=""540"" height = ""360"" style=""border:16px solid orange"">","null","","","","","","","","","",""
"null","","html-keyboard-response","93","838792","0.0-93.0","3Y4W8Q93L06L6CJLDOG2PSZIGBJDVY","A1969Q0R4Y0E3J","3DZKABX2ZIR9F0FDMQGPG3LEN12CVN","","","null","","","","","","","","","",""
"832.8000000119209","","image-keyboard-response","94","839629","0.0-94.0","3Y4W8Q93L06L6CJLDOG2PSZIGBJDVY","A1969Q0R4Y0E3J","3DZKABX2ZIR9F0FDMQGPG3LEN12CVN","","img/set1/S1.jpg","83","1","structured_normal","83","structured_normal,structured_incentive,random,structured_load","3,4,2,3,2,1","1,4,2,3","true","","",""
"null","","html-keyboard-response","95","839992","0.0-95.0","3Y4W8Q93L06L6CJLDOG2PSZIGBJDVY","A1969Q0R4Y0E3J","3DZKABX2ZIR9F0FDMQGPG3LEN12CVN","","<img src=""img/set1/S1.jpg"" width=""540"" height = ""360"" style=""border:16px solid orange"">","null","","","","","","","","","",""
"null","","html-keyboard-response","96","840199","0.0-96.0","3Y4W8Q93L06L6CJLDOG2PSZIGBJDVY","A1969Q0R4Y0E3J","3DZKABX2ZIR9F0FDMQGPG3LEN12CVN","","","null","","","","","","","","","",""
"454.69999998807907","","image-keyboard-response","97","840658","0.0-97.0","3Y4W8Q93L06L6CJLDOG2PSZIGBJDVY","A1969Q0R4Y0E3J","3DZKABX2ZIR9F0FDMQGPG3LEN12CVN","","img/set1/S1.jpg","83","1","structured_normal","83","structured_normal,structured_incentive,random,structured_load","3,4,2,3,2,1","1,4,2,3","true","","",""
"null","","html-keyboard-response","98","841022","0.0-98.0","3Y4W8Q93L06L6CJLDOG2PSZIGBJDVY","A1969Q0R4Y0E3J","3DZKABX2ZIR9F0FDMQGPG3LEN12CVN","","<img src=""img/set1/S1.jpg"" width=""540"" height = ""360"" style=""border:16px solid orange"">","null","","","","","","","","","",""
"null","","html-keyboard-response","99","841232","0.0-99.0","3Y4W8Q93L06L6CJLDOG2PSZIGBJDVY","A1969Q0R4Y0E3J","3DZKABX2ZIR9F0FDMQGPG3LEN12CVN","","","null","","","","","","","","","",""
"554.7999999523163","","image-keyboard-response","100","841792","0.0-100.0","3Y4W8Q93L06L6CJLDOG2PSZIGBJDVY","A1969Q0R4Y0E3J","3DZKABX2ZIR9F0FDMQGPG3LEN12CVN","","img/set1/S2.jpg","68","2","structured_normal","68","structured_normal,structured_incentive,random,structured_load","3,4,2,3,2,1","1,4,2,3","true","","",""
"null","","html-keyboard-response","101","842151","0.0-101.0","3Y4W8Q93L06L6CJLDOG2PSZIGBJDVY","A1969Q0R4Y0E3J","3DZKABX2ZIR9F0FDMQGPG3LEN12CVN","","<img src=""img/set1/S2.jpg"" width=""540"" height = ""360"" style=""border:16px solid orange"">","null","","","","","","","","","",""
"null","","html-keyboard-response","102","842361","0.0-102.0","3Y4W8Q93L06L6CJLDOG2PSZIGBJDVY","A1969Q0R4Y0E3J","3DZKABX2ZIR9F0FDMQGPG3LEN12CVN","","","null","","","","","","","","","",""
"385.60000002384186","","image-keyboard-response","103","842751","0.0-103.0","3Y4W8Q93L06L6CJLDOG2PSZIGBJDVY","A1969Q0R4Y0E3J","3DZKABX2ZIR9F0FDMQGPG3LEN12CVN","","img/set1/S2.jpg","68","2","structured_normal","68","structured_normal,structured_incentive,random,structured_load","3,4,2,3,2,1","1,4,2,3","true","","",""
"null","","html-keyboard-response","104","843113","0.0-104.0","3Y4W8Q93L06L6CJLDOG2PSZIGBJDVY","A1969Q0R4Y0E3J","3DZKABX2ZIR9F0FDMQGPG3LEN12CVN","","<img src=""img/set1/S2.jpg"" width=""540"" height = ""360"" style=""border:16px solid orange"">","null","","","","","","","","","",""
"null","","html-keyboard-response","105","843329","0.0-105.0","3Y4W8Q93L06L6CJLDOG2PSZIGBJDVY","A1969Q0R4Y0E3J","3DZKABX2ZIR9F0FDMQGPG3LEN12CVN","","","null","","","","","","","","","",""
"570.8000000119209","","image-keyboard-response","106","843905","0.0-106.0","3Y4W8Q93L06L6CJLDOG2PSZIGBJDVY","A1969Q0R4Y0E3J","3DZKABX2ZIR9F0FDMQGPG3LEN12CVN","","img/set1/S1.jpg","83","1","structured_normal","83","structured_normal,structured_incentive,random,structured_load","3,4,2,3,2,1","1,4,2,3","true","","",""
"null","","html-keyboard-response","107","844262","0.0-107.0","3Y4W8Q93L06L6CJLDOG2PSZIGBJDVY","A1969Q0R4Y0E3J","3DZKABX2ZIR9F0FDMQGPG3LEN12CVN","","<img src=""img/set1/S1.jpg"" width=""540"" height = ""360"" style=""border:16px solid orange"">","null","","","","","","","","","",""
"null","","html-keyboard-response","108","844477","0.0-108.0","3Y4W8Q93L06L6CJLDOG2PSZIGBJDVY","A1969Q0R4Y0E3J","3DZKABX2ZIR9F0FDMQGPG3LEN12CVN","","","null","","","","","","","","","",""
"750.6000000238419","","image-keyboard-response","109","845231","0.0-109.0","3Y4W8Q93L06L6CJLDOG2PSZIGBJDVY","A1969Q0R4Y0E3J","3DZKABX2ZIR9F0FDMQGPG3LEN12CVN","","img/set1/S3.jpg","72","3","structured_normal","72","structured_normal,structured_incentive,random,structured_load","3,4,2,3,2,1","1,4,2,3","true","","",""
"null","","html-keyboard-response","110","845591","0.0-110.0","3Y4W8Q93L06L6CJLDOG2PSZIGBJDVY","A1969Q0R4Y0E3J","3DZKABX2ZIR9F0FDMQGPG3LEN12CVN","","<img src=""img/set1/S3.jpg"" width=""540"" height = ""360"" style=""border:16px solid orange"">","null","","","","","","","","","",""
"null","","html-keyboard-response","111","845802","0.0-111.0","3Y4W8Q93L06L6CJLDOG2PSZIGBJDVY","A1969Q0R4Y0E3J","3DZKABX2ZIR9F0FDMQGPG3LEN12CVN","","","null","","","","","","","","","",""
"505.7999999523163","","image-keyboard-response","112","846312","0.0-112.0","3Y4W8Q93L06L6CJLDOG2PSZIGBJDVY","A1969Q0R4Y0E3J","3DZKABX2ZIR9F0FDMQGPG3LEN12CVN","","img/set1/S4.jpg","74","4","structured_normal","74","structured_normal,structured_incentive,random,structured_load","3,4,2,3,2,1","1,4,2,3","true","","",""
"null","","html-keyboard-response","113","846682","0.0-113.0","3Y4W8Q93L06L6CJLDOG2PSZIGBJDVY","A1969Q0R4Y0E3J","3DZKABX2ZIR9F0FDMQGPG3LEN12CVN","","<img src=""img/set1/S4.jpg"" width=""540"" height = ""360"" style=""border:16px solid orange"">","null","","","","","","","","","",""
"null","","html-keyboard-response","114","846893","0.0-114.0","3Y4W8Q93L06L6CJLDOG2PSZIGBJDVY","A1969Q0R4Y0E3J","3DZKABX2ZIR9F0FDMQGPG3LEN12CVN","","","null","","","","","","","","","",""
"711.5999999642372","","image-keyboard-response","115","847608","0.0-115.0","3Y4W8Q93L06L6CJLDOG2PSZIGBJDVY","A1969Q0R4Y0E3J","3DZKABX2ZIR9F0FDMQGPG3LEN12CVN","","img/set1/S1.jpg","68","1","structured_normal","83","structured_normal,structured_incentive,random,structured_load","3,4,2,3,2,1","1,4,2,3","false","","",""
"null","","html-keyboard-response","116","847972","0.0-116.0","3Y4W8Q93L06L6CJLDOG2PSZIGBJDVY","A1969Q0R4Y0E3J","3DZKABX2ZIR9F0FDMQGPG3LEN12CVN","","<img src=""img/set1/S1.jpg"" width=""540"" height = ""360"">","null","","","","","","","","","",""
"null","","html-keyboard-response","117","848179","0.0-117.0","3Y4W8Q93L06L6CJLDOG2PSZIGBJDVY","A1969Q0R4Y0E3J","3DZKABX2ZIR9F0FDMQGPG3LEN12CVN","","","null","","","","","","","","","",""
"571.1999999880791","","image-keyboard-response","118","848756","0.0-118.0","3Y4W8Q93L06L6CJLDOG2PSZIGBJDVY","A1969Q0R4Y0E3J","3DZKABX2ZIR9F0FDMQGPG3LEN12CVN","","img/set1/S1.jpg","83","1","structured_normal","83","structured_normal,structured_incentive,random,structured_load","3,4,2,3,2,1","1,4,2,3","true","","",""
"null","","html-keyboard-response","119","849122","0.0-119.0","3Y4W8Q93L06L6CJLDOG2PSZIGBJDVY","A1969Q0R4Y0E3J","3DZKABX2ZIR9F0FDMQGPG3LEN12CVN","","<img src=""img/set1/S1.jpg"" width=""540"" height = ""360"" style=""border:16px solid orange"">","null","","","","","","","","","",""
"null","","html-keyboard-response","120","849338","0.0-120.0","3Y4W8Q93L06L6CJLDOG2PSZIGBJDVY","A1969Q0R4Y0E3J","3DZKABX2ZIR9F0FDMQGPG3LEN12CVN","","","null","","","","","","","","","",""
"404.89999997615814","","image-keyboard-response","121","849747","0.0-121.0","3Y4W8Q93L06L6CJLDOG2PSZIGBJDVY","A1969Q0R4Y0E3J","3DZKABX2ZIR9F0FDMQGPG3LEN12CVN","","img/set1/S1.jpg","83","1","structured_normal","83","structured_normal,structured_incentive,random,structured_load","3,4,2,3,2,1","1,4,2,3","true","","",""
"null","","html-keyboard-response","122","850112","0.0-122.0","3Y4W8Q93L06L6CJLDOG2PSZIGBJDVY","A1969Q0R4Y0E3J","3DZKABX2ZIR9F0FDMQGPG3LEN12CVN","","<img src=""img/set1/S1.jpg"" width=""540"" height = ""360"" style=""border:16px solid orange"">","null","","","","","","","","","",""
"null","","html-keyboard-response","123","850322","0.0-123.0","3Y4W8Q93L06L6CJLDOG2PSZIGBJDVY","A1969Q0R4Y0E3J","3DZKABX2ZIR9F0FDMQGPG3LEN12CVN","","","null","","","","","","","","","",""
"497.39999997615814","","image-keyboard-response","124","850823","0.0-124.0","3Y4W8Q93L06L6CJLDOG2PSZIGBJDVY","A1969Q0R4Y0E3J","3DZKABX2ZIR9F0FDMQGPG3LEN12CVN","","img/set1/S2.jpg","68","2","structured_normal","68","structured_normal,structured_incentive,random,structured_load","3,4,2,3,2,1","1,4,2,3","true","","",""
"null","","html-keyboard-response","125","851182","0.0-125.0","3Y4W8Q93L06L6CJLDOG2PSZIGBJDVY","A1969Q0R4Y0E3J","3DZKABX2ZIR9F0FDMQGPG3LEN12CVN","","<img src=""img/set1/S2.jpg"" width=""540"" height = ""360"" style=""border:16px solid orange"">","null","","","","","","","","","",""
"null","","html-keyboard-response","126","851392","0.0-126.0","3Y4W8Q93L06L6CJLDOG2PSZIGBJDVY","A1969Q0R4Y0E3J","3DZKABX2ZIR9F0FDMQGPG3LEN12CVN","","","null","","","","","","","","","",""
"389.0999999642372","","image-keyboard-response","127","851785","0.0-127.0","3Y4W8Q93L06L6CJLDOG2PSZIGBJDVY","A1969Q0R4Y0E3J","3DZKABX2ZIR9F0FDMQGPG3LEN12CVN","","img/set1/S2.jpg","68","2","structured_normal","68","structured_normal,structured_incentive,random,structured_load","3,4,2,3,2,1","1,4,2,3","true","","",""
"null","","html-keyboard-response","128","852153","0.0-128.0","3Y4W8Q93L06L6CJLDOG2PSZIGBJDVY","A1969Q0R4Y0E3J","3DZKABX2ZIR9F0FDMQGPG3LEN12CVN","","<img src=""img/set1/S2.jpg"" width=""540"" height = ""360"" style=""border:16px solid orange"">","null","","","","","","","","","",""
"null","","html-keyboard-response","129","852362","0.0-129.0","3Y4W8Q93L06L6CJLDOG2PSZIGBJDVY","A1969Q0R4Y0E3J","3DZKABX2ZIR9F0FDMQGPG3LEN12CVN","","","null","","","","","","","","","",""
"659.3000000119209","","image-keyboard-response","130","853025","0.0-130.0","3Y4W8Q93L06L6CJLDOG2PSZIGBJDVY","A1969Q0R4Y0E3J","3DZKABX2ZIR9F0FDMQGPG3LEN12CVN","","img/set1/S1.jpg","83","1","structured_normal","83","structured_normal,structured_incentive,random,structured_load","3,4,2,3,2,1","1,4,2,3","true","","",""
"null","","html-keyboard-response","131","853382","0.0-131.0","3Y4W8Q93L06L6CJLDOG2PSZIGBJDVY","A1969Q0R4Y0E3J","3DZKABX2ZIR9F0FDMQGPG3LEN12CVN","","<img src=""img/set1/S1.jpg"" width=""540"" height = ""360"" style=""border:16px solid orange"">","null","","","","","","","","","",""
"null","","html-keyboard-response","132","853599","0.0-132.0","3Y4W8Q93L06L6CJLDOG2PSZIGBJDVY","A1969Q0R4Y0E3J","3DZKABX2ZIR9F0FDMQGPG3LEN12CVN","","","null","","","","","","","","","",""
"621.1999999880791","","image-keyboard-response","133","854226","0.0-133.0","3Y4W8Q93L06L6CJLDOG2PSZIGBJDVY","A1969Q0R4Y0E3J","3DZKABX2ZIR9F0FDMQGPG3LEN12CVN","","img/set1/S3.jpg","72","3","structured_normal","72","structured_normal,structured_incentive,random,structured_load","3,4,2,3,2,1","1,4,2,3","true","","",""
"null","","html-keyboard-response","134","854592","0.0-134.0","3Y4W8Q93L06L6CJLDOG2PSZIGBJDVY","A1969Q0R4Y0E3J","3DZKABX2ZIR9F0FDMQGPG3LEN12CVN","","<img src=""img/set1/S3.jpg"" width=""540"" height = ""360"" style=""border:16px solid orange"">","null","","","","","","","","","",""
"null","","html-keyboard-response","135","854811","0.0-135.0","3Y4W8Q93L06L6CJLDOG2PSZIGBJDVY","A1969Q0R4Y0E3J","3DZKABX2ZIR9F0FDMQGPG3LEN12CVN","","","null","","","","","","","","","",""
"499.80000001192093","","image-keyboard-response","136","855314","0.0-136.0","3Y4W8Q93L06L6CJLDOG2PSZIGBJDVY","A1969Q0R4Y0E3J","3DZKABX2ZIR9F0FDMQGPG3LEN12CVN","","img/set1/S4.jpg","74","4","structured_normal","74","structured_normal,structured_incentive,random,structured_load","3,4,2,3,2,1","1,4,2,3","true","","",""
"null","","html-keyboard-response","137","855682","0.0-137.0","3Y4W8Q93L06L6CJLDOG2PSZIGBJDVY","A1969Q0R4Y0E3J","3DZKABX2ZIR9F0FDMQGPG3LEN12CVN","","<img src=""img/set1/S4.jpg"" width=""540"" height = ""360"" style=""border:16px solid orange"">","null","","","","","","","","","",""
"null","","html-keyboard-response","138","855902","0.0-138.0","3Y4W8Q93L06L6CJLDOG2PSZIGBJDVY","A1969Q0R4Y0E3J","3DZKABX2ZIR9F0FDMQGPG3LEN12CVN","","","null","","","","","","","","","",""
"611.8000000119209","","image-keyboard-response","139","856518","0.0-139.0","3Y4W8Q93L06L6CJLDOG2PSZIGBJDVY","A1969Q0R4Y0E3J","3DZKABX2ZIR9F0FDMQGPG3LEN12CVN","","img/set1/S2.jpg","68","2","structured_normal","68","structured_normal,structured_incentive,random,structured_load","3,4,2,3,2,1","1,4,2,3","true","","",""
"null","","html-keyboard-response","140","856882","0.0-140.0","3Y4W8Q93L06L6CJLDOG2PSZIGBJDVY","A1969Q0R4Y0E3J","3DZKABX2ZIR9F0FDMQGPG3LEN12CVN","","<img src=""img/set1/S2.jpg"" width=""540"" height = ""360"" style=""border:16px solid orange"">","null","","","","","","","","","",""
"null","","html-keyboard-response","141","857086","0.0-141.0","3Y4W8Q93L06L6CJLDOG2PSZIGBJDVY","A1969Q0R4Y0E3J","3DZKABX2ZIR9F0FDMQGPG3LEN12CVN","","","null","","","","","","","","","",""
"560.0999999642372","","image-keyboard-response","142","857650","0.0-142.0","3Y4W8Q93L06L6CJLDOG2PSZIGBJDVY","A1969Q0R4Y0E3J","3DZKABX2ZIR9F0FDMQGPG3LEN12CVN","","img/set1/S3.jpg","72","3","structured_normal","72","structured_normal,structured_incentive,random,structured_load","3,4,2,3,2,1","1,4,2,3","true","","",""
"null","","html-keyboard-response","143","858012","0.0-143.0","3Y4W8Q93L06L6CJLDOG2PSZIGBJDVY","A1969Q0R4Y0E3J","3DZKABX2ZIR9F0FDMQGPG3LEN12CVN","","<img src=""img/set1/S3.jpg"" width=""540"" height = ""360"" style=""border:16px solid orange"">","null","","","","","","","","","",""
"null","","html-keyboard-response","144","858232","0.0-144.0","3Y4W8Q93L06L6CJLDOG2PSZIGBJDVY","A1969Q0R4Y0E3J","3DZKABX2ZIR9F0FDMQGPG3LEN12CVN","","","null","","","","","","","","","",""
"462.60000002384186","","image-keyboard-response","145","858698","0.0-145.0","3Y4W8Q93L06L6CJLDOG2PSZIGBJDVY","A1969Q0R4Y0E3J","3DZKABX2ZIR9F0FDMQGPG3LEN12CVN","","img/set1/S4.jpg","74","4","structured_normal","74","structured_normal,structured_incentive,random,structured_load","3,4,2,3,2,1","1,4,2,3","true","","",""
"null","","html-keyboard-response","146","859063","0.0-146.0","3Y4W8Q93L06L6CJLDOG2PSZIGBJDVY","A1969Q0R4Y0E3J","3DZKABX2ZIR9F0FDMQGPG3LEN12CVN","","<img src=""img/set1/S4.jpg"" width=""540"" height = ""360"" style=""border:16px solid orange"">","null","","","","","","","","","",""
"null","","html-keyboard-response","147","859273","0.0-147.0","3Y4W8Q93L06L6CJLDOG2PSZIGBJDVY","A1969Q0R4Y0E3J","3DZKABX2ZIR9F0FDMQGPG3LEN12CVN","","","null","","","","","","","","","",""
"524.1000000238419","","image-keyboard-response","148","859802","0.0-148.0","3Y4W8Q93L06L6CJLDOG2PSZIGBJDVY","A1969Q0R4Y0E3J","3DZKABX2ZIR9F0FDMQGPG3LEN12CVN","","img/set1/S1.jpg","68","1","structured_normal","83","structured_normal,structured_incentive,random,structured_load","3,4,2,3,2,1","1,4,2,3","false","","",""
"null","","html-keyboard-response","149","860162","0.0-149.0","3Y4W8Q93L06L6CJLDOG2PSZIGBJDVY","A1969Q0R4Y0E3J","3DZKABX2ZIR9F0FDMQGPG3LEN12CVN","","<img src=""img/set1/S1.jpg"" width=""540"" height = ""360"">","null","","","","","","","","","",""
"null","","html-keyboard-response","150","860379","0.0-150.0","3Y4W8Q93L06L6CJLDOG2PSZIGBJDVY","A1969Q0R4Y0E3J","3DZKABX2ZIR9F0FDMQGPG3LEN12CVN","","","null","","","","","","","","","",""
"746.1000000238419","","image-keyboard-response","151","861130","0.0-151.0","3Y4W8Q93L06L6CJLDOG2PSZIGBJDVY","A1969Q0R4Y0E3J","3DZKABX2ZIR9F0FDMQGPG3LEN12CVN","","img/set1/S3.jpg","72","3","structured_normal","72","structured_normal,structured_incentive,random,structured_load","3,4,2,3,2,1","1,4,2,3","true","","",""
"null","","html-keyboard-response","152","861493","0.0-152.0","3Y4W8Q93L06L6CJLDOG2PSZIGBJDVY","A1969Q0R4Y0E3J","3DZKABX2ZIR9F0FDMQGPG3LEN12CVN","","<img src=""img/set1/S3.jpg"" width=""540"" height = ""360"" style=""border:16px solid orange"">","null","","","","","","","","","",""
"null","","html-keyboard-response","153","861709","0.0-153.0","3Y4W8Q93L06L6CJLDOG2PSZIGBJDVY","A1969Q0R4Y0E3J","3DZKABX2ZIR9F0FDMQGPG3LEN12CVN","","","null","","","","","","","","","",""
"574.9000000357628","","image-keyboard-response","154","862288","0.0-154.0","3Y4W8Q93L06L6CJLDOG2PSZIGBJDVY","A1969Q0R4Y0E3J","3DZKABX2ZIR9F0FDMQGPG3LEN12CVN","","img/set1/S4.jpg","74","4","structured_normal","74","structured_normal,structured_incentive,random,structured_load","3,4,2,3,2,1","1,4,2,3","true","","",""
"null","","html-keyboard-response","155","862652","0.0-155.0","3Y4W8Q93L06L6CJLDOG2PSZIGBJDVY","A1969Q0R4Y0E3J","3DZKABX2ZIR9F0FDMQGPG3LEN12CVN","","<img src=""img/set1/S4.jpg"" width=""540"" height = ""360"" style=""border:16px solid orange"">","null","","","","","","","","","",""
"null","","html-keyboard-response","156","862868","0.0-156.0","3Y4W8Q93L06L6CJLDOG2PSZIGBJDVY","A1969Q0R4Y0E3J","3DZKABX2ZIR9F0FDMQGPG3LEN12CVN","","","null","","","","","","","","","",""
"611.5","","image-keyboard-response","157","863483","0.0-157.0","3Y4W8Q93L06L6CJLDOG2PSZIGBJDVY","A1969Q0R4Y0E3J","3DZKABX2ZIR9F0FDMQGPG3LEN12CVN","","img/set1/S3.jpg","72","3","structured_normal","72","structured_normal,structured_incentive,random,structured_load","3,4,2,3,2,1","1,4,2,3","true","","",""
"null","","html-keyboard-response","158","863849","0.0-158.0","3Y4W8Q93L06L6CJLDOG2PSZIGBJDVY","A1969Q0R4Y0E3J","3DZKABX2ZIR9F0FDMQGPG3LEN12CVN","","<img src=""img/set1/S3.jpg"" width=""540"" height = ""360"" style=""border:16px solid orange"">","null","","","","","","","","","",""
"null","","html-keyboard-response","159","864072","0.0-159.0","3Y4W8Q93L06L6CJLDOG2PSZIGBJDVY","A1969Q0R4Y0E3J","3DZKABX2ZIR9F0FDMQGPG3LEN12CVN","","","null","","","","","","","","","",""
"395.89999997615814","","image-keyboard-response","160","864470","0.0-160.0","3Y4W8Q93L06L6CJLDOG2PSZIGBJDVY","A1969Q0R4Y0E3J","3DZKABX2ZIR9F0FDMQGPG3LEN12CVN","","img/set1/S4.jpg","74","4","structured_normal","74","structured_normal,structured_incentive,random,structured_load","3,4,2,3,2,1","1,4,2,3","true","","",""
"null","","html-keyboard-response","161","864833","0.0-161.0","3Y4W8Q93L06L6CJLDOG2PSZIGBJDVY","A1969Q0R4Y0E3J","3DZKABX2ZIR9F0FDMQGPG3LEN12CVN","","<img src=""img/set1/S4.jpg"" width=""540"" height = ""360"" style=""border:16px solid orange"">","null","","","","","","","","","",""
"null","","html-keyboard-response","162","865044","0.0-162.0","3Y4W8Q93L06L6CJLDOG2PSZIGBJDVY","A1969Q0R4Y0E3J","3DZKABX2ZIR9F0FDMQGPG3LEN12CVN","","","null","","","","","","","","","",""
"697.3999999761581","","image-keyboard-response","163","865746","0.0-163.0","3Y4W8Q93L06L6CJLDOG2PSZIGBJDVY","A1969Q0R4Y0E3J","3DZKABX2ZIR9F0FDMQGPG3LEN12CVN","","img/set1/S1.jpg","83","1","structured_normal","83","structured_normal,structured_incentive,random,structured_load","3,4,2,3,2,1","1,4,2,3","true","","",""
"null","","html-keyboard-response","164","866112","0.0-164.0","3Y4W8Q93L06L6CJLDOG2PSZIGBJDVY","A1969Q0R4Y0E3J","3DZKABX2ZIR9F0FDMQGPG3LEN12CVN","","<img src=""img/set1/S1.jpg"" width=""540"" height = ""360"" style=""border:16px solid orange"">","null","","","","","","","","","",""
"null","","html-keyboard-response","165","866322","0.0-165.0","3Y4W8Q93L06L6CJLDOG2PSZIGBJDVY","A1969Q0R4Y0E3J","3DZKABX2ZIR9F0FDMQGPG3LEN12CVN","","","null","","","","","","","","","",""
"507.19999998807907","","image-keyboard-response","166","866833","0.0-166.0","3Y4W8Q93L06L6CJLDOG2PSZIGBJDVY","A1969Q0R4Y0E3J","3DZKABX2ZIR9F0FDMQGPG3LEN12CVN","","img/set1/S2.jpg","68","2","structured_normal","68","structured_normal,structured_incentive,random,structured_load","3,4,2,3,2,1","1,4,2,3","true","","",""
"null","","html-keyboard-response","167","867202","0.0-167.0","3Y4W8Q93L06L6CJLDOG2PSZIGBJDVY","A1969Q0R4Y0E3J","3DZKABX2ZIR9F0FDMQGPG3LEN12CVN","","<img src=""img/set1/S2.jpg"" width=""540"" height = ""360"" style=""border:16px solid orange"">","null","","","","","","","","","",""
"null","","html-keyboard-response","168","867420","0.0-168.0","3Y4W8Q93L06L6CJLDOG2PSZIGBJDVY","A1969Q0R4Y0E3J","3DZKABX2ZIR9F0FDMQGPG3LEN12CVN","","","null","","","","","","","","","",""
"689","","image-keyboard-response","169","868113","0.0-169.0","3Y4W8Q93L06L6CJLDOG2PSZIGBJDVY","A1969Q0R4Y0E3J","3DZKABX2ZIR9F0FDMQGPG3LEN12CVN","","img/set1/S1.jpg","83","1","structured_normal","83","structured_normal,structured_incentive,random,structured_load","3,4,2,3,2,1","1,4,2,3","true","","",""
"null","","html-keyboard-response","170","868469","0.0-170.0","3Y4W8Q93L06L6CJLDOG2PSZIGBJDVY","A1969Q0R4Y0E3J","3DZKABX2ZIR9F0FDMQGPG3LEN12CVN","","<img src=""img/set1/S1.jpg"" width=""540"" height = ""360"" style=""border:16px solid orange"">","null","","","","","","","","","",""
"null","","html-keyboard-response","171","868682","0.0-171.0","3Y4W8Q93L06L6CJLDOG2PSZIGBJDVY","A1969Q0R4Y0E3J","3DZKABX2ZIR9F0FDMQGPG3LEN12CVN","","","null","","","","","","","","","",""
"662.7999999523163","","image-keyboard-response","172","869349","0.0-172.0","3Y4W8Q93L06L6CJLDOG2PSZIGBJDVY","A1969Q0R4Y0E3J","3DZKABX2ZIR9F0FDMQGPG3LEN12CVN","","img/set1/S3.jpg","72","3","structured_normal","72","structured_normal,structured_incentive,random,structured_load","3,4,2,3,2,1","1,4,2,3","true","","",""
"null","","html-keyboard-response","173","869712","0.0-173.0","3Y4W8Q93L06L6CJLDOG2PSZIGBJDVY","A1969Q0R4Y0E3J","3DZKABX2ZIR9F0FDMQGPG3LEN12CVN","","<img src=""img/set1/S3.jpg"" width=""540"" height = ""360"" style=""border:16px solid orange"">","null","","","","","","","","","",""
"null","","html-keyboard-response","174","869933","0.0-174.0","3Y4W8Q93L06L6CJLDOG2PSZIGBJDVY","A1969Q0R4Y0E3J","3DZKABX2ZIR9F0FDMQGPG3LEN12CVN","","","null","","","","","","","","","",""
"488.19999998807907","","image-keyboard-response","175","870425","0.0-175.0","3Y4W8Q93L06L6CJLDOG2PSZIGBJDVY","A1969Q0R4Y0E3J","3DZKABX2ZIR9F0FDMQGPG3LEN12CVN","","img/set1/S4.jpg","74","4","structured_normal","74","structured_normal,structured_incentive,random,structured_load","3,4,2,3,2,1","1,4,2,3","true","","",""
"null","","html-keyboard-response","176","870787","0.0-176.0","3Y4W8Q93L06L6CJLDOG2PSZIGBJDVY","A1969Q0R4Y0E3J","3DZKABX2ZIR9F0FDMQGPG3LEN12CVN","","<img src=""img/set1/S4.jpg"" width=""540"" height = ""360"" style=""border:16px solid orange"">","null","","","","","","","","","",""
"null","","html-keyboard-response","177","871002","0.0-177.0","3Y4W8Q93L06L6CJLDOG2PSZIGBJDVY","A1969Q0R4Y0E3J","3DZKABX2ZIR9F0FDMQGPG3LEN12CVN","","","null","","","","","","","","","",""
"522.0999999642372","","image-keyboard-response","178","871528","0.0-178.0","3Y4W8Q93L06L6CJLDOG2PSZIGBJDVY","A1969Q0R4Y0E3J","3DZKABX2ZIR9F0FDMQGPG3LEN12CVN","","img/set1/S3.jpg","72","3","structured_normal","72","structured_normal,structured_incentive,random,structured_load","3,4,2,3,2,1","1,4,2,3","true","","",""
"null","","html-keyboard-response","179","871889","0.0-179.0","3Y4W8Q93L06L6CJLDOG2PSZIGBJDVY","A1969Q0R4Y0E3J","3DZKABX2ZIR9F0FDMQGPG3LEN12CVN","","<img src=""img/set1/S3.jpg"" width=""540"" height = ""360"" style=""border:16px solid orange"">","null","","","","","","","","","",""
"null","","html-keyboard-response","180","872105","0.0-180.0","3Y4W8Q93L06L6CJLDOG2PSZIGBJDVY","A1969Q0R4Y0E3J","3DZKABX2ZIR9F0FDMQGPG3LEN12CVN","","","null","","","","","","","","","",""
"594.6999999880791","","image-keyboard-response","181","872704","0.0-181.0","3Y4W8Q93L06L6CJLDOG2PSZIGBJDVY","A1969Q0R4Y0E3J","3DZKABX2ZIR9F0FDMQGPG3LEN12CVN","","img/set1/S4.jpg","74","4","structured_normal","74","structured_normal,structured_incentive,random,structured_load","3,4,2,3,2,1","1,4,2,3","true","","",""
"null","","html-keyboard-response","182","873073","0.0-182.0","3Y4W8Q93L06L6CJLDOG2PSZIGBJDVY","A1969Q0R4Y0E3J","3DZKABX2ZIR9F0FDMQGPG3LEN12CVN","","<img src=""img/set1/S4.jpg"" width=""540"" height = ""360"" style=""border:16px solid orange"">","null","","","","","","","","","",""
"null","","html-keyboard-response","183","873283","0.0-183.0","3Y4W8Q93L06L6CJLDOG2PSZIGBJDVY","A1969Q0R4Y0E3J","3DZKABX2ZIR9F0FDMQGPG3LEN12CVN","","","null","","","","","","","","","",""
"465.30000001192093","","image-keyboard-response","184","873751","0.0-184.0","3Y4W8Q93L06L6CJLDOG2PSZIGBJDVY","A1969Q0R4Y0E3J","3DZKABX2ZIR9F0FDMQGPG3LEN12CVN","","img/set1/S3.jpg","72","3","structured_normal","72","structured_normal,structured_incentive,random,structured_load","3,4,2,3,2,1","1,4,2,3","true","","",""
"null","","html-keyboard-response","185","874112","0.0-185.0","3Y4W8Q93L06L6CJLDOG2PSZIGBJDVY","A1969Q0R4Y0E3J","3DZKABX2ZIR9F0FDMQGPG3LEN12CVN","","<img src=""img/set1/S3.jpg"" width=""540"" height = ""360"" style=""border:16px solid orange"">","null","","","","","","","","","",""
"null","","html-keyboard-response","186","874322","0.0-186.0","3Y4W8Q93L06L6CJLDOG2PSZIGBJDVY","A1969Q0R4Y0E3J","3DZKABX2ZIR9F0FDMQGPG3LEN12CVN","","","null","","","","","","","","","",""
"458.9000000357628","","image-keyboard-response","187","874785","0.0-187.0","3Y4W8Q93L06L6CJLDOG2PSZIGBJDVY","A1969Q0R4Y0E3J","3DZKABX2ZIR9F0FDMQGPG3LEN12CVN","","img/set1/S4.jpg","74","4","structured_normal","74","structured_normal,structured_incentive,random,structured_load","3,4,2,3,2,1","1,4,2,3","true","","",""
"null","","html-keyboard-response","188","875149","0.0-188.0","3Y4W8Q93L06L6CJLDOG2PSZIGBJDVY","A1969Q0R4Y0E3J","3DZKABX2ZIR9F0FDMQGPG3LEN12CVN","","<img src=""img/set1/S4.jpg"" width=""540"" height = ""360"" style=""border:16px solid orange"">","null","","","","","","","","","",""
"null","","html-keyboard-response","189","875362","0.0-189.0","3Y4W8Q93L06L6CJLDOG2PSZIGBJDVY","A1969Q0R4Y0E3J","3DZKABX2ZIR9F0FDMQGPG3LEN12CVN","","","null","","","","","","","","","",""
"370.69999998807907","","image-keyboard-response","190","875736","0.0-190.0","3Y4W8Q93L06L6CJLDOG2PSZIGBJDVY","A1969Q0R4Y0E3J","3DZKABX2ZIR9F0FDMQGPG3LEN12CVN","","img/set1/S3.jpg","72","3","structured_normal","72","structured_normal,structured_incentive,random,structured_load","3,4,2,3,2,1","1,4,2,3","true","","",""
"null","","html-keyboard-response","191","876110","0.0-191.0","3Y4W8Q93L06L6CJLDOG2PSZIGBJDVY","A1969Q0R4Y0E3J","3DZKABX2ZIR9F0FDMQGPG3LEN12CVN","","<img src=""img/set1/S3.jpg"" width=""540"" height = ""360"" style=""border:16px solid orange"">","null","","","","","","","","","",""
"null","","html-keyboard-response","192","876323","0.0-192.0","3Y4W8Q93L06L6CJLDOG2PSZIGBJDVY","A1969Q0R4Y0E3J","3DZKABX2ZIR9F0FDMQGPG3LEN12CVN","","","null","","","","","","","","","",""
"400.5","","image-keyboard-response","193","876727","0.0-193.0","3Y4W8Q93L06L6CJLDOG2PSZIGBJDVY","A1969Q0R4Y0E3J","3DZKABX2ZIR9F0FDMQGPG3LEN12CVN","","img/set1/S4.jpg","74","4","structured_normal","74","structured_normal,structured_incentive,random,structured_load","3,4,2,3,2,1","1,4,2,3","true","","",""
"null","","html-keyboard-response","194","877102","0.0-194.0","3Y4W8Q93L06L6CJLDOG2PSZIGBJDVY","A1969Q0R4Y0E3J","3DZKABX2ZIR9F0FDMQGPG3LEN12CVN","","<img src=""img/set1/S4.jpg"" width=""540"" height = ""360"" style=""border:16px solid orange"">","null","","","","","","","","","",""
"null","","html-keyboard-response","195","877438","0.0-195.0","3Y4W8Q93L06L6CJLDOG2PSZIGBJDVY","A1969Q0R4Y0E3J","3DZKABX2ZIR9F0FDMQGPG3LEN12CVN","","","null","","","","","","","","","",""
"545.9000000357628","","image-keyboard-response","196","877987","0.0-196.0","3Y4W8Q93L06L6CJLDOG2PSZIGBJDVY","A1969Q0R4Y0E3J","3DZKABX2ZIR9F0FDMQGPG3LEN12CVN","","img/set1/S2.jpg","68","2","structured_normal","68","structured_normal,structured_incentive,random,structured_load","3,4,2,3,2,1","1,4,2,3","true","","",""
"null","","html-keyboard-response","197","878355","0.0-197.0","3Y4W8Q93L06L6CJLDOG2PSZIGBJDVY","A1969Q0R4Y0E3J","3DZKABX2ZIR9F0FDMQGPG3LEN12CVN","","<img src=""img/set1/S2.jpg"" width=""540"" height = ""360"" style=""border:16px solid orange"">","null","","","","","","","","","",""
"null","","html-keyboard-response","198","878562","0.0-198.0","3Y4W8Q93L06L6CJLDOG2PSZIGBJDVY","A1969Q0R4Y0E3J","3DZKABX2ZIR9F0FDMQGPG3LEN12CVN","","","null","","","","","","","","","",""
"578.8999999761581","","image-keyboard-response","199","879145","0.0-199.0","3Y4W8Q93L06L6CJLDOG2PSZIGBJDVY","A1969Q0R4Y0E3J","3DZKABX2ZIR9F0FDMQGPG3LEN12CVN","","img/set1/S1.jpg","83","1","structured_normal","83","structured_normal,structured_incentive,random,structured_load","3,4,2,3,2,1","1,4,2,3","true","","",""
"null","","html-keyboard-response","200","879527","0.0-200.0","3Y4W8Q93L06L6CJLDOG2PSZIGBJDVY","A1969Q0R4Y0E3J","3DZKABX2ZIR9F0FDMQGPG3LEN12CVN","","<img src=""img/set1/S1.jpg"" width=""540"" height = ""360"" style=""border:16px solid orange"">","null","","","","","","","","","",""
"null","","html-keyboard-response","201","879742","0.0-201.0","3Y4W8Q93L06L6CJLDOG2PSZIGBJDVY","A1969Q0R4Y0E3J","3DZKABX2ZIR9F0FDMQGPG3LEN12CVN","","","null","","","","","","","","","",""
"655.5","","image-keyboard-response","202","880400","0.0-202.0","3Y4W8Q93L06L6CJLDOG2PSZIGBJDVY","A1969Q0R4Y0E3J","3DZKABX2ZIR9F0FDMQGPG3LEN12CVN","","img/set1/S3.jpg","72","3","structured_normal","72","structured_normal,structured_incentive,random,structured_load","3,4,2,3,2,1","1,4,2,3","true","","",""
"null","","html-keyboard-response","203","880771","0.0-203.0","3Y4W8Q93L06L6CJLDOG2PSZIGBJDVY","A1969Q0R4Y0E3J","3DZKABX2ZIR9F0FDMQGPG3LEN12CVN","","<img src=""img/set1/S3.jpg"" width=""540"" height = ""360"" style=""border:16px solid orange"">","null","","","","","","","","","",""
"null","","html-keyboard-response","204","880984","0.0-204.0","3Y4W8Q93L06L6CJLDOG2PSZIGBJDVY","A1969Q0R4Y0E3J","3DZKABX2ZIR9F0FDMQGPG3LEN12CVN","","","null","","","","","","","","","",""
"427.5","","image-keyboard-response","205","881415","0.0-205.0","3Y4W8Q93L06L6CJLDOG2PSZIGBJDVY","A1969Q0R4Y0E3J","3DZKABX2ZIR9F0FDMQGPG3LEN12CVN","","img/set1/S4.jpg","74","4","structured_normal","74","structured_normal,structured_incentive,random,structured_load","3,4,2,3,2,1","1,4,2,3","true","","",""
"null","","html-keyboard-response","206","881773","0.0-206.0","3Y4W8Q93L06L6CJLDOG2PSZIGBJDVY","A1969Q0R4Y0E3J","3DZKABX2ZIR9F0FDMQGPG3LEN12CVN","","<img src=""img/set1/S4.jpg"" width=""540"" height = ""360"" style=""border:16px solid orange"">","null","","","","","","","","","",""
"null","","html-keyboard-response","207","881990","0.0-207.0","3Y4W8Q93L06L6CJLDOG2PSZIGBJDVY","A1969Q0R4Y0E3J","3DZKABX2ZIR9F0FDMQGPG3LEN12CVN","","","null","","","","","","","","","",""
"505.69999998807907","","image-keyboard-response","208","882506","0.0-208.0","3Y4W8Q93L06L6CJLDOG2PSZIGBJDVY","A1969Q0R4Y0E3J","3DZKABX2ZIR9F0FDMQGPG3LEN12CVN","","img/set1/S3.jpg","72","3","structured_normal","72","structured_normal,structured_incentive,random,structured_load","3,4,2,3,2,1","1,4,2,3","true","","",""
"null","","html-keyboard-response","209","882863","0.0-209.0","3Y4W8Q93L06L6CJLDOG2PSZIGBJDVY","A1969Q0R4Y0E3J","3DZKABX2ZIR9F0FDMQGPG3LEN12CVN","","<img src=""img/set1/S3.jpg"" width=""540"" height = ""360"" style=""border:16px solid orange"">","null","","","","","","","","","",""
"null","","html-keyboard-response","210","883069","0.0-210.0","3Y4W8Q93L06L6CJLDOG2PSZIGBJDVY","A1969Q0R4Y0E3J","3DZKABX2ZIR9F0FDMQGPG3LEN12CVN","","","null","","","","","","","","","",""
"562.1999999880791","","image-keyboard-response","211","883635","0.0-211.0","3Y4W8Q93L06L6CJLDOG2PSZIGBJDVY","A1969Q0R4Y0E3J","3DZKABX2ZIR9F0FDMQGPG3LEN12CVN","","img/set1/S4.jpg","74","4","structured_normal","74","structured_normal,structured_incentive,random,structured_load","3,4,2,3,2,1","1,4,2,3","true","","",""
"null","","html-keyboard-response","212","883995","0.0-212.0","3Y4W8Q93L06L6CJLDOG2PSZIGBJDVY","A1969Q0R4Y0E3J","3DZKABX2ZIR9F0FDMQGPG3LEN12CVN","","<img src=""img/set1/S4.jpg"" width=""540"" height = ""360"" style=""border:16px solid orange"">","null","","","","","","","","","",""
"null","","html-keyboard-response","213","884205","0.0-213.0","3Y4W8Q93L06L6CJLDOG2PSZIGBJDVY","A1969Q0R4Y0E3J","3DZKABX2ZIR9F0FDMQGPG3LEN12CVN","","","null","","","","","","","","","",""
"513","","image-keyboard-response","214","884722","0.0-214.0","3Y4W8Q93L06L6CJLDOG2PSZIGBJDVY","A1969Q0R4Y0E3J","3DZKABX2ZIR9F0FDMQGPG3LEN12CVN","","img/set1/S2.jpg","68","2","structured_normal","68","structured_normal,structured_incentive,random,structured_load","3,4,2,3,2,1","1,4,2,3","true","","",""
"null","","html-keyboard-response","215","885087","0.0-215.0","3Y4W8Q93L06L6CJLDOG2PSZIGBJDVY","A1969Q0R4Y0E3J","3DZKABX2ZIR9F0FDMQGPG3LEN12CVN","","<img src=""img/set1/S2.jpg"" width=""540"" height = ""360"" style=""border:16px solid orange"">","null","","","","","","","","","",""
"null","","html-keyboard-response","216","885296","0.0-216.0","3Y4W8Q93L06L6CJLDOG2PSZIGBJDVY","A1969Q0R4Y0E3J","3DZKABX2ZIR9F0FDMQGPG3LEN12CVN","","","null","","","","","","","","","",""
"751.6999999880791","","image-keyboard-response","217","886053","0.0-217.0","3Y4W8Q93L06L6CJLDOG2PSZIGBJDVY","A1969Q0R4Y0E3J","3DZKABX2ZIR9F0FDMQGPG3LEN12CVN","","img/set1/S3.jpg","72","3","structured_normal","72","structured_normal,structured_incentive,random,structured_load","3,4,2,3,2,1","1,4,2,3","true","","",""
"null","","html-keyboard-response","218","886418","0.0-218.0","3Y4W8Q93L06L6CJLDOG2PSZIGBJDVY","A1969Q0R4Y0E3J","3DZKABX2ZIR9F0FDMQGPG3LEN12CVN","","<img src=""img/set1/S3.jpg"" width=""540"" height = ""360"" style=""border:16px solid orange"">","null","","","","","","","","","",""
"null","","html-keyboard-response","219","886629","0.0-219.0","3Y4W8Q93L06L6CJLDOG2PSZIGBJDVY","A1969Q0R4Y0E3J","3DZKABX2ZIR9F0FDMQGPG3LEN12CVN","","","null","","","","","","","","","",""
"403.39999997615814","","image-keyboard-response","220","887036","0.0-220.0","3Y4W8Q93L06L6CJLDOG2PSZIGBJDVY","A1969Q0R4Y0E3J","3DZKABX2ZIR9F0FDMQGPG3LEN12CVN","","img/set1/S4.jpg","74","4","structured_normal","74","structured_normal,structured_incentive,random,structured_load","3,4,2,3,2,1","1,4,2,3","true","","",""
"null","","html-keyboard-response","221","887398","0.0-221.0","3Y4W8Q93L06L6CJLDOG2PSZIGBJDVY","A1969Q0R4Y0E3J","3DZKABX2ZIR9F0FDMQGPG3LEN12CVN","","<img src=""img/set1/S4.jpg"" width=""540"" height = ""360"" style=""border:16px solid orange"">","null","","","","","","","","","",""
"null","","html-keyboard-response","222","887618","0.0-222.0","3Y4W8Q93L06L6CJLDOG2PSZIGBJDVY","A1969Q0R4Y0E3J","3DZKABX2ZIR9F0FDMQGPG3LEN12CVN","","","null","","","","","","","","","",""
"425.69999998807907","","image-keyboard-response","223","888048","0.0-223.0","3Y4W8Q93L06L6CJLDOG2PSZIGBJDVY","A1969Q0R4Y0E3J","3DZKABX2ZIR9F0FDMQGPG3LEN12CVN","","img/set1/S3.jpg","72","3","structured_normal","72","structured_normal,structured_incentive,random,structured_load","3,4,2,3,2,1","1,4,2,3","true","","",""
"null","","html-keyboard-response","224","888409","0.0-224.0","3Y4W8Q93L06L6CJLDOG2PSZIGBJDVY","A1969Q0R4Y0E3J","3DZKABX2ZIR9F0FDMQGPG3LEN12CVN","","<img src=""img/set1/S3.jpg"" width=""540"" height = ""360"" style=""border:16px solid orange"">","null","","","","","","","","","",""
"null","","html-keyboard-response","225","888619","0.0-225.0","3Y4W8Q93L06L6CJLDOG2PSZIGBJDVY","A1969Q0R4Y0E3J","3DZKABX2ZIR9F0FDMQGPG3LEN12CVN","","","null","","","","","","","","","",""
"551.1000000238419","","image-keyboard-response","226","889174","0.0-226.0","3Y4W8Q93L06L6CJLDOG2PSZIGBJDVY","A1969Q0R4Y0E3J","3DZKABX2ZIR9F0FDMQGPG3LEN12CVN","","img/set1/S4.jpg","74","4","structured_normal","74","structured_normal,structured_incentive,random,structured_load","3,4,2,3,2,1","1,4,2,3","true","","",""
"null","","html-keyboard-response","227","889539","0.0-227.0","3Y4W8Q93L06L6CJLDOG2PSZIGBJDVY","A1969Q0R4Y0E3J","3DZKABX2ZIR9F0FDMQGPG3LEN12CVN","","<img src=""img/set1/S4.jpg"" width=""540"" height = ""360"" style=""border:16px solid orange"">","null","","","","","","","","","",""
"null","","html-keyboard-response","228","889764","0.0-228.0","3Y4W8Q93L06L6CJLDOG2PSZIGBJDVY","A1969Q0R4Y0E3J","3DZKABX2ZIR9F0FDMQGPG3LEN12CVN","","","null","","","","","","","","","",""
"675.6000000238419","","image-keyboard-response","229","890443","0.0-229.0","3Y4W8Q93L06L6CJLDOG2PSZIGBJDVY","A1969Q0R4Y0E3J","3DZKABX2ZIR9F0FDMQGPG3LEN12CVN","","img/set1/S1.jpg","83","1","structured_normal","83","structured_normal,structured_incentive,random,structured_load","3,4,2,3,2,1","1,4,2,3","true","","",""
"null","","html-keyboard-response","230","890799","0.0-230.0","3Y4W8Q93L06L6CJLDOG2PSZIGBJDVY","A1969Q0R4Y0E3J","3DZKABX2ZIR9F0FDMQGPG3LEN12CVN","","<img src=""img/set1/S1.jpg"" width=""540"" height = ""360"" style=""border:16px solid orange"">","null","","","","","","","","","",""
"null","","html-keyboard-response","231","891010","0.0-231.0","3Y4W8Q93L06L6CJLDOG2PSZIGBJDVY","A1969Q0R4Y0E3J","3DZKABX2ZIR9F0FDMQGPG3LEN12CVN","","","null","","","","","","","","","",""
"568.6000000238419","","image-keyboard-response","232","891582","0.0-232.0","3Y4W8Q93L06L6CJLDOG2PSZIGBJDVY","A1969Q0R4Y0E3J","3DZKABX2ZIR9F0FDMQGPG3LEN12CVN","","img/set1/S3.jpg","72","3","structured_normal","72","structured_normal,structured_incentive,random,structured_load","3,4,2,3,2,1","1,4,2,3","true","","",""
"null","","html-keyboard-response","233","891950","0.0-233.0","3Y4W8Q93L06L6CJLDOG2PSZIGBJDVY","A1969Q0R4Y0E3J","3DZKABX2ZIR9F0FDMQGPG3LEN12CVN","","<img src=""img/set1/S3.jpg"" width=""540"" height = ""360"" style=""border:16px solid orange"">","null","","","","","","","","","",""
"null","","html-keyboard-response","234","892160","0.0-234.0","3Y4W8Q93L06L6CJLDOG2PSZIGBJDVY","A1969Q0R4Y0E3J","3DZKABX2ZIR9F0FDMQGPG3LEN12CVN","","","null","","","","","","","","","",""
"476.5","","image-keyboard-response","235","892640","0.0-235.0","3Y4W8Q93L06L6CJLDOG2PSZIGBJDVY","A1969Q0R4Y0E3J","3DZKABX2ZIR9F0FDMQGPG3LEN12CVN","","img/set1/S4.jpg","74","4","structured_normal","74","structured_normal,structured_incentive,random,structured_load","3,4,2,3,2,1","1,4,2,3","true","","",""
"null","","html-keyboard-response","236","893000","0.0-236.0","3Y4W8Q93L06L6CJLDOG2PSZIGBJDVY","A1969Q0R4Y0E3J","3DZKABX2ZIR9F0FDMQGPG3LEN12CVN","","<img src=""img/set1/S4.jpg"" width=""540"" height = ""360"" style=""border:16px solid orange"">","null","","","","","","","","","",""
"null","","html-keyboard-response","237","893209","0.0-237.0","3Y4W8Q93L06L6CJLDOG2PSZIGBJDVY","A1969Q0R4Y0E3J","3DZKABX2ZIR9F0FDMQGPG3LEN12CVN","","","null","","","","","","","","","",""
"558.3000000119209","","image-keyboard-response","238","893771","0.0-238.0","3Y4W8Q93L06L6CJLDOG2PSZIGBJDVY","A1969Q0R4Y0E3J","3DZKABX2ZIR9F0FDMQGPG3LEN12CVN","","img/set1/S2.jpg","68","2","structured_normal","68","structured_normal,structured_incentive,random,structured_load","3,4,2,3,2,1","1,4,2,3","true","","",""
"null","","html-keyboard-response","239","894130","0.0-239.0","3Y4W8Q93L06L6CJLDOG2PSZIGBJDVY","A1969Q0R4Y0E3J","3DZKABX2ZIR9F0FDMQGPG3LEN12CVN","","<img src=""img/set1/S2.jpg"" width=""540"" height = ""360"" style=""border:16px solid orange"">","null","","","","","","","","","",""
"null","","html-keyboard-response","240","894343","0.0-240.0","3Y4W8Q93L06L6CJLDOG2PSZIGBJDVY","A1969Q0R4Y0E3J","3DZKABX2ZIR9F0FDMQGPG3LEN12CVN","","","null","","","","","","","","","",""
"486.30000001192093","","image-keyboard-response","241","894833","0.0-241.0","3Y4W8Q93L06L6CJLDOG2PSZIGBJDVY","A1969Q0R4Y0E3J","3DZKABX2ZIR9F0FDMQGPG3LEN12CVN","","img/set1/S3.jpg","72","3","structured_normal","72","structured_normal,structured_incentive,random,structured_load","3,4,2,3,2,1","1,4,2,3","true","","",""
"null","","html-keyboard-response","242","895200","0.0-242.0","3Y4W8Q93L06L6CJLDOG2PSZIGBJDVY","A1969Q0R4Y0E3J","3DZKABX2ZIR9F0FDMQGPG3LEN12CVN","","<img src=""img/set1/S3.jpg"" width=""540"" height = ""360"" style=""border:16px solid orange"">","null","","","","","","","","","",""
"null","","html-keyboard-response","243","895408","0.0-243.0","3Y4W8Q93L06L6CJLDOG2PSZIGBJDVY","A1969Q0R4Y0E3J","3DZKABX2ZIR9F0FDMQGPG3LEN12CVN","","","null","","","","","","","","","",""
"524.5","","image-keyboard-response","244","895938","0.0-244.0","3Y4W8Q93L06L6CJLDOG2PSZIGBJDVY","A1969Q0R4Y0E3J","3DZKABX2ZIR9F0FDMQGPG3LEN12CVN","","img/set1/S4.jpg","74","4","structured_normal","74","structured_normal,structured_incentive,random,structured_load","3,4,2,3,2,1","1,4,2,3","true","","",""
"null","","html-keyboard-response","245","896301","0.0-245.0","3Y4W8Q93L06L6CJLDOG2PSZIGBJDVY","A1969Q0R4Y0E3J","3DZKABX2ZIR9F0FDMQGPG3LEN12CVN","","<img src=""img/set1/S4.jpg"" width=""540"" height = ""360"" style=""border:16px solid orange"">","null","","","","","","","","","",""
"null","","html-keyboard-response","246","896507","0.0-246.0","3Y4W8Q93L06L6CJLDOG2PSZIGBJDVY","A1969Q0R4Y0E3J","3DZKABX2ZIR9F0FDMQGPG3LEN12CVN","","","null","","","","","","","","","",""
"652.0999999642372","","image-keyboard-response","247","897163","0.0-247.0","3Y4W8Q93L06L6CJLDOG2PSZIGBJDVY","A1969Q0R4Y0E3J","3DZKABX2ZIR9F0FDMQGPG3LEN12CVN","","img/set1/S1.jpg","83","1","structured_normal","83","structured_normal,structured_incentive,random,structured_load","3,4,2,3,2,1","1,4,2,3","true","","",""
"null","","html-keyboard-response","248","897539","0.0-248.0","3Y4W8Q93L06L6CJLDOG2PSZIGBJDVY","A1969Q0R4Y0E3J","3DZKABX2ZIR9F0FDMQGPG3LEN12CVN","","<img src=""img/set1/S1.jpg"" width=""540"" height = ""360"" style=""border:16px solid orange"">","null","","","","","","","","","",""
"null","","html-keyboard-response","249","897747","0.0-249.0","3Y4W8Q93L06L6CJLDOG2PSZIGBJDVY","A1969Q0R4Y0E3J","3DZKABX2ZIR9F0FDMQGPG3LEN12CVN","","","null","","","","","","","","","",""
"620.6000000238419","","image-keyboard-response","250","898371","0.0-250.0","3Y4W8Q93L06L6CJLDOG2PSZIGBJDVY","A1969Q0R4Y0E3J","3DZKABX2ZIR9F0FDMQGPG3LEN12CVN","","img/set1/S3.jpg","72","3","structured_normal","72","structured_normal,structured_incentive,random,structured_load","3,4,2,3,2,1","1,4,2,3","true","","",""
"null","","html-keyboard-response","251","898728","0.0-251.0","3Y4W8Q93L06L6CJLDOG2PSZIGBJDVY","A1969Q0R4Y0E3J","3DZKABX2ZIR9F0FDMQGPG3LEN12CVN","","<img src=""img/set1/S3.jpg"" width=""540"" height = ""360"" style=""border:16px solid orange"">","null","","","","","","","","","",""
"null","","html-keyboard-response","252","898935","0.0-252.0","3Y4W8Q93L06L6CJLDOG2PSZIGBJDVY","A1969Q0R4Y0E3J","3DZKABX2ZIR9F0FDMQGPG3LEN12CVN","","","null","","","","","","","","","",""
"459","","image-keyboard-response","253","899398","0.0-253.0","3Y4W8Q93L06L6CJLDOG2PSZIGBJDVY","A1969Q0R4Y0E3J","3DZKABX2ZIR9F0FDMQGPG3LEN12CVN","","img/set1/S4.jpg","74","4","structured_normal","74","structured_normal,structured_incentive,random,structured_load","3,4,2,3,2,1","1,4,2,3","true","","",""
"null","","html-keyboard-response","254","899770","0.0-254.0","3Y4W8Q93L06L6CJLDOG2PSZIGBJDVY","A1969Q0R4Y0E3J","3DZKABX2ZIR9F0FDMQGPG3LEN12CVN","","<img src=""img/set1/S4.jpg"" width=""540"" height = ""360"" style=""border:16px solid orange"">","null","","","","","","","","","",""
"null","","html-keyboard-response","255","899986","0.0-255.0","3Y4W8Q93L06L6CJLDOG2PSZIGBJDVY","A1969Q0R4Y0E3J","3DZKABX2ZIR9F0FDMQGPG3LEN12CVN","","","null","","","","","","","","","",""
"654.5","","image-keyboard-response","256","900644","0.0-256.0","3Y4W8Q93L06L6CJLDOG2PSZIGBJDVY","A1969Q0R4Y0E3J","3DZKABX2ZIR9F0FDMQGPG3LEN12CVN","","img/set1/S1.jpg","83","1","structured_normal","83","structured_normal,structured_incentive,random,structured_load","3,4,2,3,2,1","1,4,2,3","true","","",""
"null","","html-keyboard-response","257","901000","0.0-257.0","3Y4W8Q93L06L6CJLDOG2PSZIGBJDVY","A1969Q0R4Y0E3J","3DZKABX2ZIR9F0FDMQGPG3LEN12CVN","","<img src=""img/set1/S1.jpg"" width=""540"" height = ""360"" style=""border:16px solid orange"">","null","","","","","","","","","",""
"null","","html-keyboard-response","258","901207","0.0-258.0","3Y4W8Q93L06L6CJLDOG2PSZIGBJDVY","A1969Q0R4Y0E3J","3DZKABX2ZIR9F0FDMQGPG3LEN12CVN","","","null","","","","","","","","","",""
"509.2999999523163","","image-keyboard-response","259","901721","0.0-259.0","3Y4W8Q93L06L6CJLDOG2PSZIGBJDVY","A1969Q0R4Y0E3J","3DZKABX2ZIR9F0FDMQGPG3LEN12CVN","","img/set1/S1.jpg","83","1","structured_normal","83","structured_normal,structured_incentive,random,structured_load","3,4,2,3,2,1","1,4,2,3","true","","",""
"null","","html-keyboard-response","260","902084","0.0-260.0","3Y4W8Q93L06L6CJLDOG2PSZIGBJDVY","A1969Q0R4Y0E3J","3DZKABX2ZIR9F0FDMQGPG3LEN12CVN","","<img src=""img/set1/S1.jpg"" width=""540"" height = ""360"" style=""border:16px solid orange"">","null","","","","","","","","","",""
"null","","html-keyboard-response","261","902299","0.0-261.0","3Y4W8Q93L06L6CJLDOG2PSZIGBJDVY","A1969Q0R4Y0E3J","3DZKABX2ZIR9F0FDMQGPG3LEN12CVN","","","null","","","","","","","","","",""
"664.6999999880791","","image-keyboard-response","262","902968","0.0-262.0","3Y4W8Q93L06L6CJLDOG2PSZIGBJDVY","A1969Q0R4Y0E3J","3DZKABX2ZIR9F0FDMQGPG3LEN12CVN","","img/set1/S3.jpg","72","3","structured_normal","72","structured_normal,structured_incentive,random,structured_load","3,4,2,3,2,1","1,4,2,3","true","","",""
"null","","html-keyboard-response","263","903329","0.0-263.0","3Y4W8Q93L06L6CJLDOG2PSZIGBJDVY","A1969Q0R4Y0E3J","3DZKABX2ZIR9F0FDMQGPG3LEN12CVN","","<img src=""img/set1/S3.jpg"" width=""540"" height = ""360"" style=""border:16px solid orange"">","null","","","","","","","","","",""
"null","","html-keyboard-response","264","903550","0.0-264.0","3Y4W8Q93L06L6CJLDOG2PSZIGBJDVY","A1969Q0R4Y0E3J","3DZKABX2ZIR9F0FDMQGPG3LEN12CVN","","","null","","","","","","","","","",""
"452.2000000476837","","image-keyboard-response","265","904006","0.0-265.0","3Y4W8Q93L06L6CJLDOG2PSZIGBJDVY","A1969Q0R4Y0E3J","3DZKABX2ZIR9F0FDMQGPG3LEN12CVN","","img/set1/S4.jpg","74","4","structured_normal","74","structured_normal,structured_incentive,random,structured_load","3,4,2,3,2,1","1,4,2,3","true","","",""
"null","","html-keyboard-response","266","904378","0.0-266.0","3Y4W8Q93L06L6CJLDOG2PSZIGBJDVY","A1969Q0R4Y0E3J","3DZKABX2ZIR9F0FDMQGPG3LEN12CVN","","<img src=""img/set1/S4.jpg"" width=""540"" height = ""360"" style=""border:16px solid orange"">","null","","","","","","","","","",""
"null","","html-keyboard-response","267","904599","0.0-267.0","3Y4W8Q93L06L6CJLDOG2PSZIGBJDVY","A1969Q0R4Y0E3J","3DZKABX2ZIR9F0FDMQGPG3LEN12CVN","","","null","","","","","","","","","",""
"502.89999997615814","","image-keyboard-response","268","905106","0.0-268.0","3Y4W8Q93L06L6CJLDOG2PSZIGBJDVY","A1969Q0R4Y0E3J","3DZKABX2ZIR9F0FDMQGPG3LEN12CVN","","img/set1/S3.jpg","72","3","structured_normal","72","structured_normal,structured_incentive,random,structured_load","3,4,2,3,2,1","1,4,2,3","true","","",""
"null","","html-keyboard-response","269","905468","0.0-269.0","3Y4W8Q93L06L6CJLDOG2PSZIGBJDVY","A1969Q0R4Y0E3J","3DZKABX2ZIR9F0FDMQGPG3LEN12CVN","","<img src=""img/set1/S3.jpg"" width=""540"" height = ""360"" style=""border:16px solid orange"">","null","","","","","","","","","",""
"null","","html-keyboard-response","270","905688","0.0-270.0","3Y4W8Q93L06L6CJLDOG2PSZIGBJDVY","A1969Q0R4Y0E3J","3DZKABX2ZIR9F0FDMQGPG3LEN12CVN","","","null","","","","","","","","","",""
"415.30000001192093","","image-keyboard-response","271","906108","0.0-271.0","3Y4W8Q93L06L6CJLDOG2PSZIGBJDVY","A1969Q0R4Y0E3J","3DZKABX2ZIR9F0FDMQGPG3LEN12CVN","","img/set1/S4.jpg","74","4","structured_normal","74","structured_normal,structured_incentive,random,structured_load","3,4,2,3,2,1","1,4,2,3","true","","",""
"null","","html-keyboard-response","272","906465","0.0-272.0","3Y4W8Q93L06L6CJLDOG2PSZIGBJDVY","A1969Q0R4Y0E3J","3DZKABX2ZIR9F0FDMQGPG3LEN12CVN","","<img src=""img/set1/S4.jpg"" width=""540"" height = ""360"" style=""border:16px solid orange"">","null","","","","","","","","","",""
"null","","html-keyboard-response","273","906678","0.0-273.0","3Y4W8Q93L06L6CJLDOG2PSZIGBJDVY","A1969Q0R4Y0E3J","3DZKABX2ZIR9F0FDMQGPG3LEN12CVN","","","null","","","","","","","","","",""
"550.3999999761581","","image-keyboard-response","274","907233","0.0-274.0","3Y4W8Q93L06L6CJLDOG2PSZIGBJDVY","A1969Q0R4Y0E3J","3DZKABX2ZIR9F0FDMQGPG3LEN12CVN","","img/set1/S2.jpg","68","2","structured_normal","68","structured_normal,structured_incentive,random,structured_load","3,4,2,3,2,1","1,4,2,3","true","","",""
"null","","html-keyboard-response","275","907599","0.0-275.0","3Y4W8Q93L06L6CJLDOG2PSZIGBJDVY","A1969Q0R4Y0E3J","3DZKABX2ZIR9F0FDMQGPG3LEN12CVN","","<img src=""img/set1/S2.jpg"" width=""540"" height = ""360"" style=""border:16px solid orange"">","null","","","","","","","","","",""
"null","","html-keyboard-response","276","907809","0.0-276.0","3Y4W8Q93L06L6CJLDOG2PSZIGBJDVY","A1969Q0R4Y0E3J","3DZKABX2ZIR9F0FDMQGPG3LEN12CVN","","","null","","","","","","","","","",""
"418.5","","image-keyboard-response","277","908231","0.0-277.0","3Y4W8Q93L06L6CJLDOG2PSZIGBJDVY","A1969Q0R4Y0E3J","3DZKABX2ZIR9F0FDMQGPG3LEN12CVN","","img/set1/S2.jpg","68","2","structured_normal","68","structured_normal,structured_incentive,random,structured_load","3,4,2,3,2,1","1,4,2,3","true","","",""
"null","","html-keyboard-response","278","908599","0.0-278.0","3Y4W8Q93L06L6CJLDOG2PSZIGBJDVY","A1969Q0R4Y0E3J","3DZKABX2ZIR9F0FDMQGPG3LEN12CVN","","<img src=""img/set1/S2.jpg"" width=""540"" height = ""360"" style=""border:16px solid orange"">","null","","","","","","","","","",""
"null","","html-keyboard-response","279","908809","0.0-279.0","3Y4W8Q93L06L6CJLDOG2PSZIGBJDVY","A1969Q0R4Y0E3J","3DZKABX2ZIR9F0FDMQGPG3LEN12CVN","","","null","","","","","","","","","",""
"526.5999999642372","","image-keyboard-response","280","909340","0.0-280.0","3Y4W8Q93L06L6CJLDOG2PSZIGBJDVY","A1969Q0R4Y0E3J","3DZKABX2ZIR9F0FDMQGPG3LEN12CVN","","img/set1/S1.jpg","83","1","structured_normal","83","structured_normal,structured_incentive,random,structured_load","3,4,2,3,2,1","1,4,2,3","true","","",""
"null","","html-keyboard-response","281","909699","0.0-281.0","3Y4W8Q93L06L6CJLDOG2PSZIGBJDVY","A1969Q0R4Y0E3J","3DZKABX2ZIR9F0FDMQGPG3LEN12CVN","","<img src=""img/set1/S1.jpg"" width=""540"" height = ""360"" style=""border:16px solid orange"">","null","","","","","","","","","",""
"null","","html-keyboard-response","282","909906","0.0-282.0","3Y4W8Q93L06L6CJLDOG2PSZIGBJDVY","A1969Q0R4Y0E3J","3DZKABX2ZIR9F0FDMQGPG3LEN12CVN","","","null","","","","","","","","","",""
"404.69999998807907","","image-keyboard-response","283","910316","0.0-283.0","3Y4W8Q93L06L6CJLDOG2PSZIGBJDVY","A1969Q0R4Y0E3J","3DZKABX2ZIR9F0FDMQGPG3LEN12CVN","","img/set1/S1.jpg","83","1","structured_normal","83","structured_normal,structured_incentive,random,structured_load","3,4,2,3,2,1","1,4,2,3","true","","",""
"null","","html-keyboard-response","284","910678","0.0-284.0","3Y4W8Q93L06L6CJLDOG2PSZIGBJDVY","A1969Q0R4Y0E3J","3DZKABX2ZIR9F0FDMQGPG3LEN12CVN","","<img src=""img/set1/S1.jpg"" width=""540"" height = ""360"" style=""border:16px solid orange"">","null","","","","","","","","","",""
"null","","html-keyboard-response","285","910899","0.0-285.0","3Y4W8Q93L06L6CJLDOG2PSZIGBJDVY","A1969Q0R4Y0E3J","3DZKABX2ZIR9F0FDMQGPG3LEN12CVN","","","null","","","","","","","","","",""
"395","","image-keyboard-response","286","911299","0.0-286.0","3Y4W8Q93L06L6CJLDOG2PSZIGBJDVY","A1969Q0R4Y0E3J","3DZKABX2ZIR9F0FDMQGPG3LEN12CVN","","img/set1/S1.jpg","83","1","structured_normal","83","structured_normal,structured_incentive,random,structured_load","3,4,2,3,2,1","1,4,2,3","true","","",""
"null","","html-keyboard-response","287","911662","0.0-287.0","3Y4W8Q93L06L6CJLDOG2PSZIGBJDVY","A1969Q0R4Y0E3J","3DZKABX2ZIR9F0FDMQGPG3LEN12CVN","","<img src=""img/set1/S1.jpg"" width=""540"" height = ""360"" style=""border:16px solid orange"">","null","","","","","","","","","",""
"null","","html-keyboard-response","288","911884","0.0-288.0","3Y4W8Q93L06L6CJLDOG2PSZIGBJDVY","A1969Q0R4Y0E3J","3DZKABX2ZIR9F0FDMQGPG3LEN12CVN","","","null","","","","","","","","","",""
"491.80000001192093","","image-keyboard-response","289","912380","0.0-289.0","3Y4W8Q93L06L6CJLDOG2PSZIGBJDVY","A1969Q0R4Y0E3J","3DZKABX2ZIR9F0FDMQGPG3LEN12CVN","","img/set1/S3.jpg","72","3","structured_normal","72","structured_normal,structured_incentive,random,structured_load","3,4,2,3,2,1","1,4,2,3","true","","",""
"null","","html-keyboard-response","290","912744","0.0-290.0","3Y4W8Q93L06L6CJLDOG2PSZIGBJDVY","A1969Q0R4Y0E3J","3DZKABX2ZIR9F0FDMQGPG3LEN12CVN","","<img src=""img/set1/S3.jpg"" width=""540"" height = ""360"" style=""border:16px solid orange"">","null","","","","","","","","","",""
"null","","html-keyboard-response","291","912959","0.0-291.0","3Y4W8Q93L06L6CJLDOG2PSZIGBJDVY","A1969Q0R4Y0E3J","3DZKABX2ZIR9F0FDMQGPG3LEN12CVN","","","null","","","","","","","","","",""
"492.89999997615814","","image-keyboard-response","292","913456","0.0-292.0","3Y4W8Q93L06L6CJLDOG2PSZIGBJDVY","A1969Q0R4Y0E3J","3DZKABX2ZIR9F0FDMQGPG3LEN12CVN","","img/set1/S4.jpg","74","4","structured_normal","74","structured_normal,structured_incentive,random,structured_load","3,4,2,3,2,1","1,4,2,3","true","","",""
"null","","html-keyboard-response","293","913829","0.0-293.0","3Y4W8Q93L06L6CJLDOG2PSZIGBJDVY","A1969Q0R4Y0E3J","3DZKABX2ZIR9F0FDMQGPG3LEN12CVN","","<img src=""img/set1/S4.jpg"" width=""540"" height = ""360"" style=""border:16px solid orange"">","null","","","","","","","","","",""
"null","","html-keyboard-response","294","914038","0.0-294.0","3Y4W8Q93L06L6CJLDOG2PSZIGBJDVY","A1969Q0R4Y0E3J","3DZKABX2ZIR9F0FDMQGPG3LEN12CVN","","","null","","","","","","","","","",""
"507.60000002384186","","image-keyboard-response","295","914550","0.0-295.0","3Y4W8Q93L06L6CJLDOG2PSZIGBJDVY","A1969Q0R4Y0E3J","3DZKABX2ZIR9F0FDMQGPG3LEN12CVN","","img/set1/S3.jpg","72","3","structured_normal","72","structured_normal,structured_incentive,random,structured_load","3,4,2,3,2,1","1,4,2,3","true","","",""
"null","","html-keyboard-response","296","914920","0.0-296.0","3Y4W8Q93L06L6CJLDOG2PSZIGBJDVY","A1969Q0R4Y0E3J","3DZKABX2ZIR9F0FDMQGPG3LEN12CVN","","<img src=""img/set1/S3.jpg"" width=""540"" height = ""360"" style=""border:16px solid orange"">","null","","","","","","","","","",""
"null","","html-keyboard-response","297","915129","0.0-297.0","3Y4W8Q93L06L6CJLDOG2PSZIGBJDVY","A1969Q0R4Y0E3J","3DZKABX2ZIR9F0FDMQGPG3LEN12CVN","","","null","","","","","","","","","",""
"476.2000000476837","","image-keyboard-response","298","915612","0.0-298.0","3Y4W8Q93L06L6CJLDOG2PSZIGBJDVY","A1969Q0R4Y0E3J","3DZKABX2ZIR9F0FDMQGPG3LEN12CVN","","img/set1/S4.jpg","74","4","structured_normal","74","structured_normal,structured_incentive,random,structured_load","3,4,2,3,2,1","1,4,2,3","true","","",""
"null","","html-keyboard-response","299","915968","0.0-299.0","3Y4W8Q93L06L6CJLDOG2PSZIGBJDVY","A1969Q0R4Y0E3J","3DZKABX2ZIR9F0FDMQGPG3LEN12CVN","","<img src=""img/set1/S4.jpg"" width=""540"" height = ""360"" style=""border:16px solid orange"">","null","","","","","","","","","",""
"null","","html-keyboard-response","300","916183","0.0-300.0","3Y4W8Q93L06L6CJLDOG2PSZIGBJDVY","A1969Q0R4Y0E3J","3DZKABX2ZIR9F0FDMQGPG3LEN12CVN","","","null","","","","","","","","","",""
"622.7999999523163","","image-keyboard-response","301","916810","0.0-301.0","3Y4W8Q93L06L6CJLDOG2PSZIGBJDVY","A1969Q0R4Y0E3J","3DZKABX2ZIR9F0FDMQGPG3LEN12CVN","","img/set1/S1.jpg","83","1","structured_normal","83","structured_normal,structured_incentive,random,structured_load","3,4,2,3,2,1","1,4,2,3","true","","",""
"null","","html-keyboard-response","302","917170","0.0-302.0","3Y4W8Q93L06L6CJLDOG2PSZIGBJDVY","A1969Q0R4Y0E3J","3DZKABX2ZIR9F0FDMQGPG3LEN12CVN","","<img src=""img/set1/S1.jpg"" width=""540"" height = ""360"" style=""border:16px solid orange"">","null","","","","","","","","","",""
"null","","html-keyboard-response","303","917379","0.0-303.0","3Y4W8Q93L06L6CJLDOG2PSZIGBJDVY","A1969Q0R4Y0E3J","3DZKABX2ZIR9F0FDMQGPG3LEN12CVN","","","null","","","","","","","","","",""
"381.39999997615814","","image-keyboard-response","304","917764","0.0-304.0","3Y4W8Q93L06L6CJLDOG2PSZIGBJDVY","A1969Q0R4Y0E3J","3DZKABX2ZIR9F0FDMQGPG3LEN12CVN","","img/set1/S1.jpg","83","1","structured_normal","83","structured_normal,structured_incentive,random,structured_load","3,4,2,3,2,1","1,4,2,3","true","","",""
"null","","html-keyboard-response","305","918130","0.0-305.0","3Y4W8Q93L06L6CJLDOG2PSZIGBJDVY","A1969Q0R4Y0E3J","3DZKABX2ZIR9F0FDMQGPG3LEN12CVN","","<img src=""img/set1/S1.jpg"" width=""540"" height = ""360"" style=""border:16px solid orange"">","null","","","","","","","","","",""
"null","","html-keyboard-response","306","918349","0.0-306.0","3Y4W8Q93L06L6CJLDOG2PSZIGBJDVY","A1969Q0R4Y0E3J","3DZKABX2ZIR9F0FDMQGPG3LEN12CVN","","","null","","","","","","","","","",""
"400.60000002384186","","image-keyboard-response","307","918753","0.0-307.0","3Y4W8Q93L06L6CJLDOG2PSZIGBJDVY","A1969Q0R4Y0E3J","3DZKABX2ZIR9F0FDMQGPG3LEN12CVN","","img/set1/S1.jpg","83","1","structured_normal","83","structured_normal,structured_incentive,random,structured_load","3,4,2,3,2,1","1,4,2,3","true","","",""
"null","","html-keyboard-response","308","919110","0.0-308.0","3Y4W8Q93L06L6CJLDOG2PSZIGBJDVY","A1969Q0R4Y0E3J","3DZKABX2ZIR9F0FDMQGPG3LEN12CVN","","<img src=""img/set1/S1.jpg"" width=""540"" height = ""360"" style=""border:16px solid orange"">","null","","","","","","","","","",""
"null","","html-keyboard-response","309","919323","0.0-309.0","3Y4W8Q93L06L6CJLDOG2PSZIGBJDVY","A1969Q0R4Y0E3J","3DZKABX2ZIR9F0FDMQGPG3LEN12CVN","","","null","","","","","","","","","",""
"481.5","","image-keyboard-response","310","919811","0.0-310.0","3Y4W8Q93L06L6CJLDOG2PSZIGBJDVY","A1969Q0R4Y0E3J","3DZKABX2ZIR9F0FDMQGPG3LEN12CVN","","img/set1/S3.jpg","72","3","structured_normal","72","structured_normal,structured_incentive,random,structured_load","3,4,2,3,2,1","1,4,2,3","true","","",""
"null","","html-keyboard-response","311","920168","0.0-311.0","3Y4W8Q93L06L6CJLDOG2PSZIGBJDVY","A1969Q0R4Y0E3J","3DZKABX2ZIR9F0FDMQGPG3LEN12CVN","","<img src=""img/set1/S3.jpg"" width=""540"" height = ""360"" style=""border:16px solid orange"">","null","","","","","","","","","",""
"null","","html-keyboard-response","312","920379","0.0-312.0","3Y4W8Q93L06L6CJLDOG2PSZIGBJDVY","A1969Q0R4Y0E3J","3DZKABX2ZIR9F0FDMQGPG3LEN12CVN","","","null","","","","","","","","","",""
"562.8999999761581","","image-keyboard-response","313","920946","0.0-313.0","3Y4W8Q93L06L6CJLDOG2PSZIGBJDVY","A1969Q0R4Y0E3J","3DZKABX2ZIR9F0FDMQGPG3LEN12CVN","","img/set1/S4.jpg","74","4","structured_normal","74","structured_normal,structured_incentive,random,structured_load","3,4,2,3,2,1","1,4,2,3","true","","",""
"null","","html-keyboard-response","314","921309","0.0-314.0","3Y4W8Q93L06L6CJLDOG2PSZIGBJDVY","A1969Q0R4Y0E3J","3DZKABX2ZIR9F0FDMQGPG3LEN12CVN","","<img src=""img/set1/S4.jpg"" width=""540"" height = ""360"" style=""border:16px solid orange"">","null","","","","","","","","","",""
"null","","html-keyboard-response","315","921519","0.0-315.0","3Y4W8Q93L06L6CJLDOG2PSZIGBJDVY","A1969Q0R4Y0E3J","3DZKABX2ZIR9F0FDMQGPG3LEN12CVN","","","null","","","","","","","","","",""
"440.10000002384186","","image-keyboard-response","316","921963","0.0-316.0","3Y4W8Q93L06L6CJLDOG2PSZIGBJDVY","A1969Q0R4Y0E3J","3DZKABX2ZIR9F0FDMQGPG3LEN12CVN","","img/set1/S3.jpg","72","3","structured_normal","72","structured_normal,structured_incentive,random,structured_load","3,4,2,3,2,1","1,4,2,3","true","","",""
"null","","html-keyboard-response","317","922318","0.0-317.0","3Y4W8Q93L06L6CJLDOG2PSZIGBJDVY","A1969Q0R4Y0E3J","3DZKABX2ZIR9F0FDMQGPG3LEN12CVN","","<img src=""img/set1/S3.jpg"" width=""540"" height = ""360"" style=""border:16px solid orange"">","null","","","","","","","","","",""
"null","","html-keyboard-response","318","922547","0.0-318.0","3Y4W8Q93L06L6CJLDOG2PSZIGBJDVY","A1969Q0R4Y0E3J","3DZKABX2ZIR9F0FDMQGPG3LEN12CVN","","","null","","","","","","","","","",""
"562.7999999523163","","image-keyboard-response","319","923113","0.0-319.0","3Y4W8Q93L06L6CJLDOG2PSZIGBJDVY","A1969Q0R4Y0E3J","3DZKABX2ZIR9F0FDMQGPG3LEN12CVN","","img/set1/S4.jpg","74","4","structured_normal","74","structured_normal,structured_incentive,random,structured_load","3,4,2,3,2,1","1,4,2,3","true","","",""
"null","","html-keyboard-response","320","923477","0.0-320.0","3Y4W8Q93L06L6CJLDOG2PSZIGBJDVY","A1969Q0R4Y0E3J","3DZKABX2ZIR9F0FDMQGPG3LEN12CVN","","<img src=""img/set1/S4.jpg"" width=""540"" height = ""360"" style=""border:16px solid orange"">","null","","","","","","","","","",""
"null","","html-keyboard-response","321","923699","0.0-321.0","3Y4W8Q93L06L6CJLDOG2PSZIGBJDVY","A1969Q0R4Y0E3J","3DZKABX2ZIR9F0FDMQGPG3LEN12CVN","","","null","","","","","","","","","",""
"514.7999999523163","","image-keyboard-response","322","924218","0.0-322.0","3Y4W8Q93L06L6CJLDOG2PSZIGBJDVY","A1969Q0R4Y0E3J","3DZKABX2ZIR9F0FDMQGPG3LEN12CVN","","img/set1/S3.jpg","72","3","structured_normal","72","structured_normal,structured_incentive,random,structured_load","3,4,2,3,2,1","1,4,2,3","true","","",""
"null","","html-keyboard-response","323","924576","0.0-323.0","3Y4W8Q93L06L6CJLDOG2PSZIGBJDVY","A1969Q0R4Y0E3J","3DZKABX2ZIR9F0FDMQGPG3LEN12CVN","","<img src=""img/set1/S3.jpg"" width=""540"" height = ""360"" style=""border:16px solid orange"">","null","","","","","","","","","",""
"null","","html-keyboard-response","324","924794","0.0-324.0","3Y4W8Q93L06L6CJLDOG2PSZIGBJDVY","A1969Q0R4Y0E3J","3DZKABX2ZIR9F0FDMQGPG3LEN12CVN","","","null","","","","","","","","","",""
"502.19999998807907","","image-keyboard-response","325","925302","0.0-325.0","3Y4W8Q93L06L6CJLDOG2PSZIGBJDVY","A1969Q0R4Y0E3J","3DZKABX2ZIR9F0FDMQGPG3LEN12CVN","","img/set1/S4.jpg","74","4","structured_normal","74","structured_normal,structured_incentive,random,structured_load","3,4,2,3,2,1","1,4,2,3","true","","",""
"null","","html-keyboard-response","326","925666","0.0-326.0","3Y4W8Q93L06L6CJLDOG2PSZIGBJDVY","A1969Q0R4Y0E3J","3DZKABX2ZIR9F0FDMQGPG3LEN12CVN","","<img src=""img/set1/S4.jpg"" width=""540"" height = ""360"" style=""border:16px solid orange"">","null","","","","","","","","","",""
"null","","html-keyboard-response","327","925884","0.0-327.0","3Y4W8Q93L06L6CJLDOG2PSZIGBJDVY","A1969Q0R4Y0E3J","3DZKABX2ZIR9F0FDMQGPG3LEN12CVN","","","null","","","","","","","","","",""
"636.2000000476837","","image-keyboard-response","328","926524","0.0-328.0","3Y4W8Q93L06L6CJLDOG2PSZIGBJDVY","A1969Q0R4Y0E3J","3DZKABX2ZIR9F0FDMQGPG3LEN12CVN","","img/set1/S3.jpg","72","3","structured_normal","72","structured_normal,structured_incentive,random,structured_load","3,4,2,3,2,1","1,4,2,3","true","","",""
"null","","html-keyboard-response","329","926889","0.0-329.0","3Y4W8Q93L06L6CJLDOG2PSZIGBJDVY","A1969Q0R4Y0E3J","3DZKABX2ZIR9F0FDMQGPG3LEN12CVN","","<img src=""img/set1/S3.jpg"" width=""540"" height = ""360"" style=""border:16px solid orange"">","null","","","","","","","","","",""
"null","","html-keyboard-response","330","927109","0.0-330.0","3Y4W8Q93L06L6CJLDOG2PSZIGBJDVY","A1969Q0R4Y0E3J","3DZKABX2ZIR9F0FDMQGPG3LEN12CVN","","","null","","","","","","","","","",""
"341.5","","image-keyboard-response","331","927454","0.0-331.0","3Y4W8Q93L06L6CJLDOG2PSZIGBJDVY","A1969Q0R4Y0E3J","3DZKABX2ZIR9F0FDMQGPG3LEN12CVN","","img/set1/S4.jpg","74","4","structured_normal","74","structured_normal,structured_incentive,random,structured_load","3,4,2,3,2,1","1,4,2,3","true","","",""
"null","","html-keyboard-response","332","927819","0.0-332.0","3Y4W8Q93L06L6CJLDOG2PSZIGBJDVY","A1969Q0R4Y0E3J","3DZKABX2ZIR9F0FDMQGPG3LEN12CVN","","<img src=""img/set1/S4.jpg"" width=""540"" height = ""360"" style=""border:16px solid orange"">","null","","","","","","","","","",""
"null","","html-keyboard-response","333","928029","0.0-333.0","3Y4W8Q93L06L6CJLDOG2PSZIGBJDVY","A1969Q0R4Y0E3J","3DZKABX2ZIR9F0FDMQGPG3LEN12CVN","","","null","","","","","","","","","",""
"540.4000000357628","","image-keyboard-response","334","928574","0.0-334.0","3Y4W8Q93L06L6CJLDOG2PSZIGBJDVY","A1969Q0R4Y0E3J","3DZKABX2ZIR9F0FDMQGPG3LEN12CVN","","img/set1/S2.jpg","83","2","structured_normal","68","structured_normal,structured_incentive,random,structured_load","3,4,2,3,2,1","1,4,2,3","false","","",""
"null","","html-keyboard-response","335","928938","0.0-335.0","3Y4W8Q93L06L6CJLDOG2PSZIGBJDVY","A1969Q0R4Y0E3J","3DZKABX2ZIR9F0FDMQGPG3LEN12CVN","","<img src=""img/set1/S2.jpg"" width=""540"" height = ""360"">","null","","","","","","","","","",""
"null","","html-keyboard-response","336","929159","0.0-336.0","3Y4W8Q93L06L6CJLDOG2PSZIGBJDVY","A1969Q0R4Y0E3J","3DZKABX2ZIR9F0FDMQGPG3LEN12CVN","","","null","","","","","","","","","",""
"605.3000000119209","","image-keyboard-response","337","929769","0.0-337.0","3Y4W8Q93L06L6CJLDOG2PSZIGBJDVY","A1969Q0R4Y0E3J","3DZKABX2ZIR9F0FDMQGPG3LEN12CVN","","img/set1/S3.jpg","72","3","structured_normal","72","structured_normal,structured_incentive,random,structured_load","3,4,2,3,2,1","1,4,2,3","true","","",""
"null","","html-keyboard-response","338","930129","0.0-338.0","3Y4W8Q93L06L6CJLDOG2PSZIGBJDVY","A1969Q0R4Y0E3J","3DZKABX2ZIR9F0FDMQGPG3LEN12CVN","","<img src=""img/set1/S3.jpg"" width=""540"" height = ""360"" style=""border:16px solid orange"">","null","","","","","","","","","",""
"null","","html-keyboard-response","339","930338","0.0-339.0","3Y4W8Q93L06L6CJLDOG2PSZIGBJDVY","A1969Q0R4Y0E3J","3DZKABX2ZIR9F0FDMQGPG3LEN12CVN","","","null","","","","","","","","","",""
"717.6000000238419","","image-keyboard-response","340","931060","0.0-340.0","3Y4W8Q93L06L6CJLDOG2PSZIGBJDVY","A1969Q0R4Y0E3J","3DZKABX2ZIR9F0FDMQGPG3LEN12CVN","","img/set1/S4.jpg","74","4","structured_normal","74","structured_normal,structured_incentive,random,structured_load","3,4,2,3,2,1","1,4,2,3","true","","",""
"null","","html-keyboard-response","341","931418","0.0-341.0","3Y4W8Q93L06L6CJLDOG2PSZIGBJDVY","A1969Q0R4Y0E3J","3DZKABX2ZIR9F0FDMQGPG3LEN12CVN","","<img src=""img/set1/S4.jpg"" width=""540"" height = ""360"" style=""border:16px solid orange"">","null","","","","","","","","","",""
"null","","html-keyboard-response","342","931639","0.0-342.0","3Y4W8Q93L06L6CJLDOG2PSZIGBJDVY","A1969Q0R4Y0E3J","3DZKABX2ZIR9F0FDMQGPG3LEN12CVN","","","null","","","","","","","","","",""
"521.5999999642372","","image-keyboard-response","343","932165","0.0-343.0","3Y4W8Q93L06L6CJLDOG2PSZIGBJDVY","A1969Q0R4Y0E3J","3DZKABX2ZIR9F0FDMQGPG3LEN12CVN","","img/set1/S3.jpg","72","3","structured_normal","72","structured_normal,structured_incentive,random,structured_load","3,4,2,3,2,1","1,4,2,3","true","","",""
"null","","html-keyboard-response","344","932528","0.0-344.0","3Y4W8Q93L06L6CJLDOG2PSZIGBJDVY","A1969Q0R4Y0E3J","3DZKABX2ZIR9F0FDMQGPG3LEN12CVN","","<img src=""img/set1/S3.jpg"" width=""540"" height = ""360"" style=""border:16px solid orange"">","null","","","","","","","","","",""
"null","","html-keyboard-response","345","932739","0.0-345.0","3Y4W8Q93L06L6CJLDOG2PSZIGBJDVY","A1969Q0R4Y0E3J","3DZKABX2ZIR9F0FDMQGPG3LEN12CVN","","","null","","","","","","","","","",""
"557","","image-keyboard-response","346","933300","0.0-346.0","3Y4W8Q93L06L6CJLDOG2PSZIGBJDVY","A1969Q0R4Y0E3J","3DZKABX2ZIR9F0FDMQGPG3LEN12CVN","","img/set1/S4.jpg","74","4","structured_normal","74","structured_normal,structured_incentive,random,structured_load","3,4,2,3,2,1","1,4,2,3","true","","",""
"null","","html-keyboard-response","347","933658","0.0-347.0","3Y4W8Q93L06L6CJLDOG2PSZIGBJDVY","A1969Q0R4Y0E3J","3DZKABX2ZIR9F0FDMQGPG3LEN12CVN","","<img src=""img/set1/S4.jpg"" width=""540"" height = ""360"" style=""border:16px solid orange"">","null","","","","","","","","","",""
"null","","html-keyboard-response","348","933863","0.0-348.0","3Y4W8Q93L06L6CJLDOG2PSZIGBJDVY","A1969Q0R4Y0E3J","3DZKABX2ZIR9F0FDMQGPG3LEN12CVN","","","null","","","","","","","","","",""
"542.8000000119209","","image-keyboard-response","349","934410","0.0-349.0","3Y4W8Q93L06L6CJLDOG2PSZIGBJDVY","A1969Q0R4Y0E3J","3DZKABX2ZIR9F0FDMQGPG3LEN12CVN","","img/set1/S2.jpg","68","2","structured_normal","68","structured_normal,structured_incentive,random,structured_load","3,4,2,3,2,1","1,4,2,3","true","","",""
"null","","html-keyboard-response","350","934770","0.0-350.0","3Y4W8Q93L06L6CJLDOG2PSZIGBJDVY","A1969Q0R4Y0E3J","3DZKABX2ZIR9F0FDMQGPG3LEN12CVN","","<img src=""img/set1/S2.jpg"" width=""540"" height = ""360"" style=""border:16px solid orange"">","null","","","","","","","","","",""
"null","","html-keyboard-response","351","934980","0.0-351.0","3Y4W8Q93L06L6CJLDOG2PSZIGBJDVY","A1969Q0R4Y0E3J","3DZKABX2ZIR9F0FDMQGPG3LEN12CVN","","","null","","","","","","","","","",""
"533.3000000119209","","image-keyboard-response","352","935517","0.0-352.0","3Y4W8Q93L06L6CJLDOG2PSZIGBJDVY","A1969Q0R4Y0E3J","3DZKABX2ZIR9F0FDMQGPG3LEN12CVN","","img/set1/S3.jpg","72","3","structured_normal","72","structured_normal,structured_incentive,random,structured_load","3,4,2,3,2,1","1,4,2,3","true","","",""
"null","","html-keyboard-response","353","935879","0.0-353.0","3Y4W8Q93L06L6CJLDOG2PSZIGBJDVY","A1969Q0R4Y0E3J","3DZKABX2ZIR9F0FDMQGPG3LEN12CVN","","<img src=""img/set1/S3.jpg"" width=""540"" height = ""360"" style=""border:16px solid orange"">","null","","","","","","","","","",""
"null","","html-keyboard-response","354","936085","0.0-354.0","3Y4W8Q93L06L6CJLDOG2PSZIGBJDVY","A1969Q0R4Y0E3J","3DZKABX2ZIR9F0FDMQGPG3LEN12CVN","","","null","","","","","","","","","",""
"554.7999999523163","","image-keyboard-response","355","936646","0.0-355.0","3Y4W8Q93L06L6CJLDOG2PSZIGBJDVY","A1969Q0R4Y0E3J","3DZKABX2ZIR9F0FDMQGPG3LEN12CVN","","img/set1/S4.jpg","74","4","structured_normal","74","structured_normal,structured_incentive,random,structured_load","3,4,2,3,2,1","1,4,2,3","true","","",""
"null","","html-keyboard-response","356","937009","0.0-356.0","3Y4W8Q93L06L6CJLDOG2PSZIGBJDVY","A1969Q0R4Y0E3J","3DZKABX2ZIR9F0FDMQGPG3LEN12CVN","","<img src=""img/set1/S4.jpg"" width=""540"" height = ""360"" style=""border:16px solid orange"">","null","","","","","","","","","",""
"null","","html-keyboard-response","357","937222","0.0-357.0","3Y4W8Q93L06L6CJLDOG2PSZIGBJDVY","A1969Q0R4Y0E3J","3DZKABX2ZIR9F0FDMQGPG3LEN12CVN","","","null","","","","","","","","","",""
"556.6999999880791","","image-keyboard-response","358","937783","0.0-358.0","3Y4W8Q93L06L6CJLDOG2PSZIGBJDVY","A1969Q0R4Y0E3J","3DZKABX2ZIR9F0FDMQGPG3LEN12CVN","","img/set1/S2.jpg","68","2","structured_normal","68","structured_normal,structured_incentive,random,structured_load","3,4,2,3,2,1","1,4,2,3","true","","",""
"null","","html-keyboard-response","359","938150","0.0-359.0","3Y4W8Q93L06L6CJLDOG2PSZIGBJDVY","A1969Q0R4Y0E3J","3DZKABX2ZIR9F0FDMQGPG3LEN12CVN","","<img src=""img/set1/S2.jpg"" width=""540"" height = ""360"" style=""border:16px solid orange"">","null","","","","","","","","","",""
"null","","html-keyboard-response","360","938359","0.0-360.0","3Y4W8Q93L06L6CJLDOG2PSZIGBJDVY","A1969Q0R4Y0E3J","3DZKABX2ZIR9F0FDMQGPG3LEN12CVN","","","null","","","","","","","","","",""
"418.5999999642372","","image-keyboard-response","361","938781","0.0-361.0","3Y4W8Q93L06L6CJLDOG2PSZIGBJDVY","A1969Q0R4Y0E3J","3DZKABX2ZIR9F0FDMQGPG3LEN12CVN","","img/set1/S2.jpg","68","2","structured_normal","68","structured_normal,structured_incentive,random,structured_load","3,4,2,3,2,1","1,4,2,3","true","","",""
"null","","html-keyboard-response","362","939149","0.0-362.0","3Y4W8Q93L06L6CJLDOG2PSZIGBJDVY","A1969Q0R4Y0E3J","3DZKABX2ZIR9F0FDMQGPG3LEN12CVN","","<img src=""img/set1/S2.jpg"" width=""540"" height = ""360"" style=""border:16px solid orange"">","null","","","","","","","","","",""
"null","","html-keyboard-response","363","939356","0.0-363.0","3Y4W8Q93L06L6CJLDOG2PSZIGBJDVY","A1969Q0R4Y0E3J","3DZKABX2ZIR9F0FDMQGPG3LEN12CVN","","","null","","","","","","","","","",""
"3570.600000023842","","html-keyboard-response","364","942926","0.0-364.0","3Y4W8Q93L06L6CJLDOG2PSZIGBJDVY","A1969Q0R4Y0E3J","3DZKABX2ZIR9F0FDMQGPG3LEN12CVN","","<p class=""center-content"">You have completed a block! </p><p class=""center-content"">Press any key on the keyboard to continue, </p><p class=""center-content"">or wait for the automatic progression to the next block after one minute.</p>","74","","","","","","","","","",""
"54043","","instructions","365","996971","0.0-365.0","3Y4W8Q93L06L6CJLDOG2PSZIGBJDVY","A1969Q0R4Y0E3J","3DZKABX2ZIR9F0FDMQGPG3LEN12CVN","[{""page_index"":0,""viewing_time"":54041.80000001192}]","","","","","","","","","","","",""
"24875.400000035763","","instructions","366","1021853","0.0-366.0","3Y4W8Q93L06L6CJLDOG2PSZIGBJDVY","A1969Q0R4Y0E3J","3DZKABX2ZIR9F0FDMQGPG3LEN12CVN","[{""page_index"":0,""viewing_time"":13773.199999988079},{""page_index"":1,""viewing_time"":11100.900000035763}]","","","","","","","","","","","",""
"734.1999999880791","","image-keyboard-response","367","1022591","0.0-367.0","3Y4W8Q93L06L6CJLDOG2PSZIGBJDVY","A1969Q0R4Y0E3J","3DZKABX2ZIR9F0FDMQGPG3LEN12CVN","","img/set2/S4.jpg","74","4","structured_incentive","74","structured_normal,structured_incentive,random,structured_load","3,4,2,3,2,1","1,4,2,3","true","","",""
"null","","html-keyboard-response","368","1022950","0.0-368.0","3Y4W8Q93L06L6CJLDOG2PSZIGBJDVY","A1969Q0R4Y0E3J","3DZKABX2ZIR9F0FDMQGPG3LEN12CVN","","<img src=""img/set2/S4.jpg"" width=""540"" height = ""360"" style=""border:16px solid orange"">","null","","","","","","","","","",""
"null","","html-keyboard-response","369","1023160","0.0-369.0","3Y4W8Q93L06L6CJLDOG2PSZIGBJDVY","A1969Q0R4Y0E3J","3DZKABX2ZIR9F0FDMQGPG3LEN12CVN","","","null","","","","","","","","","",""
"1042.800000011921","","image-keyboard-response","370","1024208","0.0-370.0","3Y4W8Q93L06L6CJLDOG2PSZIGBJDVY","A1969Q0R4Y0E3J","3DZKABX2ZIR9F0FDMQGPG3LEN12CVN","","img/set2/S1.jpg","68","1","structured_incentive","83","structured_normal,structured_incentive,random,structured_load","3,4,2,3,2,1","1,4,2,3","false","","",""
"null","","html-keyboard-response","371","1024568","0.0-371.0","3Y4W8Q93L06L6CJLDOG2PSZIGBJDVY","A1969Q0R4Y0E3J","3DZKABX2ZIR9F0FDMQGPG3LEN12CVN","","<img src=""img/set2/S1.jpg"" width=""540"" height = ""360"">","null","","","","","","","","","",""
"null","","html-keyboard-response","372","1024790","0.0-372.0","3Y4W8Q93L06L6CJLDOG2PSZIGBJDVY","A1969Q0R4Y0E3J","3DZKABX2ZIR9F0FDMQGPG3LEN12CVN","","","null","","","","","","","","","",""
"246.29999995231628","","image-keyboard-response","373","1025040","0.0-373.0","3Y4W8Q93L06L6CJLDOG2PSZIGBJDVY","A1969Q0R4Y0E3J","3DZKABX2ZIR9F0FDMQGPG3LEN12CVN","","img/set2/S4.jpg","83","4","structured_incentive","74","structured_normal,structured_incentive,random,structured_load","3,4,2,3,2,1","1,4,2,3","false","","",""
"null","","html-keyboard-response","374","1025406","0.0-374.0","3Y4W8Q93L06L6CJLDOG2PSZIGBJDVY","A1969Q0R4Y0E3J","3DZKABX2ZIR9F0FDMQGPG3LEN12CVN","","<img src=""img/set2/S4.jpg"" width=""540"" height = ""360"">","null","","","","","","","","","",""
"null","","html-keyboard-response","375","1025622","0.0-375.0","3Y4W8Q93L06L6CJLDOG2PSZIGBJDVY","A1969Q0R4Y0E3J","3DZKABX2ZIR9F0FDMQGPG3LEN12CVN","","","null","","","","","","","","","",""
"488.80000001192093","","image-keyboard-response","376","1026115","0.0-376.0","3Y4W8Q93L06L6CJLDOG2PSZIGBJDVY","A1969Q0R4Y0E3J","3DZKABX2ZIR9F0FDMQGPG3LEN12CVN","","img/set2/S4.jpg","74","4","structured_incentive","74","structured_normal,structured_incentive,random,structured_load","3,4,2,3,2,1","1,4,2,3","true","","",""
"null","","html-keyboard-response","377","1026484","0.0-377.0","3Y4W8Q93L06L6CJLDOG2PSZIGBJDVY","A1969Q0R4Y0E3J","3DZKABX2ZIR9F0FDMQGPG3LEN12CVN","","<img src=""img/set2/S4.jpg"" width=""540"" height = ""360"" style=""border:16px solid orange"">","null","","","","","","","","","",""
"null","","html-keyboard-response","378","1026689","0.0-378.0","3Y4W8Q93L06L6CJLDOG2PSZIGBJDVY","A1969Q0R4Y0E3J","3DZKABX2ZIR9F0FDMQGPG3LEN12CVN","","","null","","","","","","","","","",""
