"rt","url","trial_type","trial_index","time_elapsed","internal_node_id","assignmentID","mturkID","hitID","view_history","stimulus","key_press","state","test_part","correct_response","order_block","order_chunk","order_freq","correct","responses","question_order","bonus"
"22676.70000000298","consent.html","external-html","0","22746","0.0-0.0","3VNXK88KKD493M6418B03WGSOEDV9J","A19CB2C4GY4C60","388CL5C1RJ9X03EZUESK4LKS9TSHL1","","","","","","","","","","","","",""
"79758.29999999702","","instructions","1","102510","0.0-1.0","3VNXK88KKD493M6418B03WGSOEDV9J","A19CB2C4GY4C60","388CL5C1RJ9X03EZUESK4LKS9TSHL1","[{""page_index"":0,""viewing_time"":6121.10000000149},{""page_index"":1,""viewing_time"":5047.19999999553},{""page_index"":2,""viewing_time"":6791.89999999851},{""page_index"":3,""viewing_time"":26137.30000000447},{""page_index"":4,""viewing_time"":21214.5},{""page_index"":5,""viewing_time"":8363.60000000149},{""page_index"":6,""viewing_time"":6082}]","","","","","","","","","","","",""
"30737.29999999702","","instructions","2","133248","0.0-2.0","3VNXK88KKD493M6418B03WGSOEDV9J","A19CB2C4GY4C60","388CL5C1RJ9X03EZUESK4LKS9TSHL1","[{""page_index"":0,""viewing_time"":30737}]","","","","","","","","","","","",""
"12348.79999999702","","instructions","3","145598","0.0-3.0","3VNXK88KKD493M6418B03WGSOEDV9J","A19CB2C4GY4C60","388CL5C1RJ9X03EZUESK4LKS9TSHL1","[{""page_index"":0,""viewing_time"":6899.20000000298},{""page_index"":1,""viewing_time"":5449.19999999553}]","","","","","","","","","","","",""
"1546.6000000014901","","image-keyboard-response","4","147147","0.0-4.0","3VNXK88KKD493M6418B03WGSOEDV9J","A19CB2C4GY4C60","388CL5C1RJ9X03EZUESK4LKS9TSHL1","","img/set1/S3.jpg","83","3","structured_incentive","72","structured_incentive,random,structured_normal,structured_load","3,4,2,1,2,3","1,4,3,2","false","","",""
"null","","html-keyboard-response","5","147501","0.0-5.0","3VNXK88KKD493M6418B03WGSOEDV9J","A19CB2C4GY4C60","388CL5C1RJ9X03EZUESK4LKS9TSHL1","","<img src=""img/set1/S3.jpg"" width=""540"" height = ""360"">","null","","","","","","","","","",""
"null","","html-keyboard-response","6","147704","0.0-6.0","3VNXK88KKD493M6418B03WGSOEDV9J","A19CB2C4GY4C60","388CL5C1RJ9X03EZUESK4LKS9TSHL1","","","null","","","","","","","","","",""
"1448","","image-keyboard-response","7","149153","0.0-7.0","3VNXK88KKD493M6418B03WGSOEDV9J","A19CB2C4GY4C60","388CL5C1RJ9X03EZUESK4LKS9TSHL1","","img/set1/S4.jpg","68","4","structured_incentive","74","structured_incentive,random,structured_normal,structured_load","3,4,2,1,2,3","1,4,3,2","false","","",""
"null","","html-keyboard-response","8","149505","0.0-8.0","3VNXK88KKD493M6418B03WGSOEDV9J","A19CB2C4GY4C60","388CL5C1RJ9X03EZUESK4LKS9TSHL1","","<img src=""img/set1/S4.jpg"" width=""540"" height = ""360"">","null","","","","","","","","","",""
"null","","html-keyboard-response","9","149708","0.0-9.0","3VNXK88KKD493M6418B03WGSOEDV9J","A19CB2C4GY4C60","388CL5C1RJ9X03EZUESK4LKS9TSHL1","","","null","","","","","","","","","",""
"1254.7999999970198","","image-keyboard-response","10","150964","0.0-10.0","3VNXK88KKD493M6418B03WGSOEDV9J","A19CB2C4GY4C60","388CL5C1RJ9X03EZUESK4LKS9TSHL1","","img/set1/S2.jpg","68","2","structured_incentive","68","structured_incentive,random,structured_normal,structured_load","3,4,2,1,2,3","1,4,3,2","true","","",""
"null","","html-keyboard-response","11","151316","0.0-11.0","3VNXK88KKD493M6418B03WGSOEDV9J","A19CB2C4GY4C60","388CL5C1RJ9X03EZUESK4LKS9TSHL1","","<img src=""img/set1/S2.jpg"" width=""540"" height = ""360"" style=""border:16px solid orange"">","null","","","","","","","","","",""
"null","","html-keyboard-response","12","151518","0.0-12.0","3VNXK88KKD493M6418B03WGSOEDV9J","A19CB2C4GY4C60","388CL5C1RJ9X03EZUESK4LKS9TSHL1","","","null","","","","","","","","","",""
"1461.5","","image-keyboard-response","13","152981","0.0-13.0","3VNXK88KKD493M6418B03WGSOEDV9J","A19CB2C4GY4C60","388CL5C1RJ9X03EZUESK4LKS9TSHL1","","img/set1/S3.jpg","68","3","structured_incentive","72","structured_incentive,random,structured_normal,structured_load","3,4,2,1,2,3","1,4,3,2","false","","",""
"null","","html-keyboard-response","14","153333","0.0-14.0","3VNXK88KKD493M6418B03WGSOEDV9J","A19CB2C4GY4C60","388CL5C1RJ9X03EZUESK4LKS9TSHL1","","<img src=""img/set1/S3.jpg"" width=""540"" height = ""360"">","null","","","","","","","","","",""
"null","","html-keyboard-response","15","153534","0.0-15.0","3VNXK88KKD493M6418B03WGSOEDV9J","A19CB2C4GY4C60","388CL5C1RJ9X03EZUESK4LKS9TSHL1","","","null","","","","","","","","","",""
"1246","","image-keyboard-response","16","154781","0.0-16.0","3VNXK88KKD493M6418B03WGSOEDV9J","A19CB2C4GY4C60","388CL5C1RJ9X03EZUESK4LKS9TSHL1","","img/set1/S4.jpg","68","4","structured_incentive","74","structured_incentive,random,structured_normal,structured_load","3,4,2,1,2,3","1,4,3,2","false","","",""
"null","","html-keyboard-response","17","155134","0.0-17.0","3VNXK88KKD493M6418B03WGSOEDV9J","A19CB2C4GY4C60","388CL5C1RJ9X03EZUESK4LKS9TSHL1","","<img src=""img/set1/S4.jpg"" width=""540"" height = ""360"">","null","","","","","","","","","",""
"null","","html-keyboard-response","18","155334","0.0-18.0","3VNXK88KKD493M6418B03WGSOEDV9J","A19CB2C4GY4C60","388CL5C1RJ9X03EZUESK4LKS9TSHL1","","","null","","","","","","","","","",""
"420.5","","image-keyboard-response","19","155756","0.0-19.0","3VNXK88KKD493M6418B03WGSOEDV9J","A19CB2C4GY4C60","388CL5C1RJ9X03EZUESK4LKS9TSHL1","","img/set1/S1.jpg","74","1","structured_incentive","83","structured_incentive,random,structured_normal,structured_load","3,4,2,1,2,3","1,4,3,2","false","","",""
"null","","html-keyboard-response","20","156108","0.0-20.0","3VNXK88KKD493M6418B03WGSOEDV9J","A19CB2C4GY4C60","388CL5C1RJ9X03EZUESK4LKS9TSHL1","","<img src=""img/set1/S1.jpg"" width=""540"" height = ""360"">","null","","","","","","","","","",""
"null","","html-keyboard-response","21","156309","0.0-21.0","3VNXK88KKD493M6418B03WGSOEDV9J","A19CB2C4GY4C60","388CL5C1RJ9X03EZUESK4LKS9TSHL1","","","null","","","","","","","","","",""
"1265.2999999970198","","image-keyboard-response","22","157576","0.0-22.0","3VNXK88KKD493M6418B03WGSOEDV9J","A19CB2C4GY4C60","388CL5C1RJ9X03EZUESK4LKS9TSHL1","","img/set1/S2.jpg","72","2","structured_incentive","68","structured_incentive,random,structured_normal,structured_load","3,4,2,1,2,3","1,4,3,2","false","","",""
"null","","html-keyboard-response","23","157928","0.0-23.0","3VNXK88KKD493M6418B03WGSOEDV9J","A19CB2C4GY4C60","388CL5C1RJ9X03EZUESK4LKS9TSHL1","","<img src=""img/set1/S2.jpg"" width=""540"" height = ""360"">","null","","","","","","","","","",""
"null","","html-keyboard-response","24","158129","0.0-24.0","3VNXK88KKD493M6418B03WGSOEDV9J","A19CB2C4GY4C60","388CL5C1RJ9X03EZUESK4LKS9TSHL1","","","null","","","","","","","","","",""
"1201.3999999985099","","image-keyboard-response","25","159331","0.0-25.0","3VNXK88KKD493M6418B03WGSOEDV9J","A19CB2C4GY4C60","388CL5C1RJ9X03EZUESK4LKS9TSHL1","","img/set1/S1.jpg","68","1","structured_incentive","83","structured_incentive,random,structured_normal,structured_load","3,4,2,1,2,3","1,4,3,2","false","","",""
"null","","html-keyboard-response","26","159683","0.0-26.0","3VNXK88KKD493M6418B03WGSOEDV9J","A19CB2C4GY4C60","388CL5C1RJ9X03EZUESK4LKS9TSHL1","","<img src=""img/set1/S1.jpg"" width=""540"" height = ""360"">","null","","","","","","","","","",""
"null","","html-keyboard-response","27","159884","0.0-27.0","3VNXK88KKD493M6418B03WGSOEDV9J","A19CB2C4GY4C60","388CL5C1RJ9X03EZUESK4LKS9TSHL1","","","null","","","","","","","","","",""
"903.2999999970198","","image-keyboard-response","28","160788","0.0-28.0","3VNXK88KKD493M6418B03WGSOEDV9J","A19CB2C4GY4C60","388CL5C1RJ9X03EZUESK4LKS9TSHL1","","img/set1/S3.jpg","74","3","structured_incentive","72","structured_incentive,random,structured_normal,structured_load","3,4,2,1,2,3","1,4,3,2","false","","",""
"null","","html-keyboard-response","29","161141","0.0-29.0","3VNXK88KKD493M6418B03WGSOEDV9J","A19CB2C4GY4C60","388CL5C1RJ9X03EZUESK4LKS9TSHL1","","<img src=""img/set1/S3.jpg"" width=""540"" height = ""360"">","null","","","","","","","","","",""
"null","","html-keyboard-response","30","161342","0.0-30.0","3VNXK88KKD493M6418B03WGSOEDV9J","A19CB2C4GY4C60","388CL5C1RJ9X03EZUESK4LKS9TSHL1","","","null","","","","","","","","","",""
"1185.3999999985099","","image-keyboard-response","31","162528","0.0-31.0","3VNXK88KKD493M6418B03WGSOEDV9J","A19CB2C4GY4C60","388CL5C1RJ9X03EZUESK4LKS9TSHL1","","img/set1/S4.jpg","83","4","structured_incentive","74","structured_incentive,random,structured_normal,structured_load","3,4,2,1,2,3","1,4,3,2","false","","",""
"null","","html-keyboard-response","32","162880","0.0-32.0","3VNXK88KKD493M6418B03WGSOEDV9J","A19CB2C4GY4C60","388CL5C1RJ9X03EZUESK4LKS9TSHL1","","<img src=""img/set1/S4.jpg"" width=""540"" height = ""360"">","null","","","","","","","","","",""
"null","","html-keyboard-response","33","163081","0.0-33.0","3VNXK88KKD493M6418B03WGSOEDV9J","A19CB2C4GY4C60","388CL5C1RJ9X03EZUESK4LKS9TSHL1","","","null","","","","","","","","","",""
"948.1000000014901","","image-keyboard-response","34","164031","0.0-34.0","3VNXK88KKD493M6418B03WGSOEDV9J","A19CB2C4GY4C60","388CL5C1RJ9X03EZUESK4LKS9TSHL1","","img/set1/S1.jpg","83","1","structured_incentive","83","structured_incentive,random,structured_normal,structured_load","3,4,2,1,2,3","1,4,3,2","true","","",""
"null","","html-keyboard-response","35","164382","0.0-35.0","3VNXK88KKD493M6418B03WGSOEDV9J","A19CB2C4GY4C60","388CL5C1RJ9X03EZUESK4LKS9TSHL1","","<img src=""img/set1/S1.jpg"" width=""540"" height = ""360"" style=""border:16px solid orange"">","null","","","","","","","","","",""
"null","","html-keyboard-response","36","164583","0.0-36.0","3VNXK88KKD493M6418B03WGSOEDV9J","A19CB2C4GY4C60","388CL5C1RJ9X03EZUESK4LKS9TSHL1","","","null","","","","","","","","","",""
"1441.2999999970198","","image-keyboard-response","37","166026","0.0-37.0","3VNXK88KKD493M6418B03WGSOEDV9J","A19CB2C4GY4C60","388CL5C1RJ9X03EZUESK4LKS9TSHL1","","img/set1/S2.jpg","83","2","structured_incentive","68","structured_incentive,random,structured_normal,structured_load","3,4,2,1,2,3","1,4,3,2","false","","",""
"null","","html-keyboard-response","38","166377","0.0-38.0","3VNXK88KKD493M6418B03WGSOEDV9J","A19CB2C4GY4C60","388CL5C1RJ9X03EZUESK4LKS9TSHL1","","<img src=""img/set1/S2.jpg"" width=""540"" height = ""360"">","null","","","","","","","","","",""
"null","","html-keyboard-response","39","166579","0.0-39.0","3VNXK88KKD493M6418B03WGSOEDV9J","A19CB2C4GY4C60","388CL5C1RJ9X03EZUESK4LKS9TSHL1","","","null","","","","","","","","","",""
"884.5","","image-keyboard-response","40","167465","0.0-40.0","3VNXK88KKD493M6418B03WGSOEDV9J","A19CB2C4GY4C60","388CL5C1RJ9X03EZUESK4LKS9TSHL1","","img/set1/S1.jpg","83","1","structured_incentive","83","structured_incentive,random,structured_normal,structured_load","3,4,2,1,2,3","1,4,3,2","true","","",""
"null","","html-keyboard-response","41","167817","0.0-41.0","3VNXK88KKD493M6418B03WGSOEDV9J","A19CB2C4GY4C60","388CL5C1RJ9X03EZUESK4LKS9TSHL1","","<img src=""img/set1/S1.jpg"" width=""540"" height = ""360"" style=""border:16px solid orange"">","null","","","","","","","","","",""
"null","","html-keyboard-response","42","168019","0.0-42.0","3VNXK88KKD493M6418B03WGSOEDV9J","A19CB2C4GY4C60","388CL5C1RJ9X03EZUESK4LKS9TSHL1","","","null","","","","","","","","","",""
"945.8999999985099","","image-keyboard-response","43","168966","0.0-43.0","3VNXK88KKD493M6418B03WGSOEDV9J","A19CB2C4GY4C60","388CL5C1RJ9X03EZUESK4LKS9TSHL1","","img/set1/S3.jpg","72","3","structured_incentive","72","structured_incentive,random,structured_normal,structured_load","3,4,2,1,2,3","1,4,3,2","true","","",""
"null","","html-keyboard-response","44","169317","0.0-44.0","3VNXK88KKD493M6418B03WGSOEDV9J","A19CB2C4GY4C60","388CL5C1RJ9X03EZUESK4LKS9TSHL1","","<img src=""img/set1/S3.jpg"" width=""540"" height = ""360"" style=""border:16px solid orange"">","null","","","","","","","","","",""
"null","","html-keyboard-response","45","169519","0.0-45.0","3VNXK88KKD493M6418B03WGSOEDV9J","A19CB2C4GY4C60","388CL5C1RJ9X03EZUESK4LKS9TSHL1","","","null","","","","","","","","","",""
"1270.5","","image-keyboard-response","46","170790","0.0-46.0","3VNXK88KKD493M6418B03WGSOEDV9J","A19CB2C4GY4C60","388CL5C1RJ9X03EZUESK4LKS9TSHL1","","img/set1/S4.jpg","68","4","structured_incentive","74","structured_incentive,random,structured_normal,structured_load","3,4,2,1,2,3","1,4,3,2","false","","",""
"null","","html-keyboard-response","47","171142","0.0-47.0","3VNXK88KKD493M6418B03WGSOEDV9J","A19CB2C4GY4C60","388CL5C1RJ9X03EZUESK4LKS9TSHL1","","<img src=""img/set1/S4.jpg"" width=""540"" height = ""360"">","null","","","","","","","","","",""
"null","","html-keyboard-response","48","171343","0.0-48.0","3VNXK88KKD493M6418B03WGSOEDV9J","A19CB2C4GY4C60","388CL5C1RJ9X03EZUESK4LKS9TSHL1","","","null","","","","","","","","","",""
"1044.0999999940395","","image-keyboard-response","49","172388","0.0-49.0","3VNXK88KKD493M6418B03WGSOEDV9J","A19CB2C4GY4C60","388CL5C1RJ9X03EZUESK4LKS9TSHL1","","img/set1/S2.jpg","72","2","structured_incentive","68","structured_incentive,random,structured_normal,structured_load","3,4,2,1,2,3","1,4,3,2","false","","",""
"null","","html-keyboard-response","50","172740","0.0-50.0","3VNXK88KKD493M6418B03WGSOEDV9J","A19CB2C4GY4C60","388CL5C1RJ9X03EZUESK4LKS9TSHL1","","<img src=""img/set1/S2.jpg"" width=""540"" height = ""360"">","null","","","","","","","","","",""
"null","","html-keyboard-response","51","172941","0.0-51.0","3VNXK88KKD493M6418B03WGSOEDV9J","A19CB2C4GY4C60","388CL5C1RJ9X03EZUESK4LKS9TSHL1","","","null","","","","","","","","","",""
"964.8999999985099","","image-keyboard-response","52","173907","0.0-52.0","3VNXK88KKD493M6418B03WGSOEDV9J","A19CB2C4GY4C60","388CL5C1RJ9X03EZUESK4LKS9TSHL1","","img/set1/S1.jpg","72","1","structured_incentive","83","structured_incentive,random,structured_normal,structured_load","3,4,2,1,2,3","1,4,3,2","false","","",""
"null","","html-keyboard-response","53","174259","0.0-53.0","3VNXK88KKD493M6418B03WGSOEDV9J","A19CB2C4GY4C60","388CL5C1RJ9X03EZUESK4LKS9TSHL1","","<img src=""img/set1/S1.jpg"" width=""540"" height = ""360"">","null","","","","","","","","","",""
"null","","html-keyboard-response","54","174461","0.0-54.0","3VNXK88KKD493M6418B03WGSOEDV9J","A19CB2C4GY4C60","388CL5C1RJ9X03EZUESK4LKS9TSHL1","","","null","","","","","","","","","",""
"797.5","","image-keyboard-response","55","175260","0.0-55.0","3VNXK88KKD493M6418B03WGSOEDV9J","A19CB2C4GY4C60","388CL5C1RJ9X03EZUESK4LKS9TSHL1","","img/set1/S3.jpg","72","3","structured_incentive","72","structured_incentive,random,structured_normal,structured_load","3,4,2,1,2,3","1,4,3,2","true","","",""
"null","","html-keyboard-response","56","175613","0.0-56.0","3VNXK88KKD493M6418B03WGSOEDV9J","A19CB2C4GY4C60","388CL5C1RJ9X03EZUESK4LKS9TSHL1","","<img src=""img/set1/S3.jpg"" width=""540"" height = ""360"" style=""border:16px solid orange"">","null","","","","","","","","","",""
"null","","html-keyboard-response","57","175814","0.0-57.0","3VNXK88KKD493M6418B03WGSOEDV9J","A19CB2C4GY4C60","388CL5C1RJ9X03EZUESK4LKS9TSHL1","","","null","","","","","","","","","",""
"970.9000000059605","","image-keyboard-response","58","176787","0.0-58.0","3VNXK88KKD493M6418B03WGSOEDV9J","A19CB2C4GY4C60","388CL5C1RJ9X03EZUESK4LKS9TSHL1","","img/set1/S4.jpg","83","4","structured_incentive","74","structured_incentive,random,structured_normal,structured_load","3,4,2,1,2,3","1,4,3,2","false","","",""
"null","","html-keyboard-response","59","177139","0.0-59.0","3VNXK88KKD493M6418B03WGSOEDV9J","A19CB2C4GY4C60","388CL5C1RJ9X03EZUESK4LKS9TSHL1","","<img src=""img/set1/S4.jpg"" width=""540"" height = ""360"">","null","","","","","","","","","",""
"null","","html-keyboard-response","60","177340","0.0-60.0","3VNXK88KKD493M6418B03WGSOEDV9J","A19CB2C4GY4C60","388CL5C1RJ9X03EZUESK4LKS9TSHL1","","","null","","","","","","","","","",""
"838.1000000014901","","image-keyboard-response","61","178179","0.0-61.0","3VNXK88KKD493M6418B03WGSOEDV9J","A19CB2C4GY4C60","388CL5C1RJ9X03EZUESK4LKS9TSHL1","","img/set1/S2.jpg","83","2","structured_incentive","68","structured_incentive,random,structured_normal,structured_load","3,4,2,1,2,3","1,4,3,2","false","","",""
"null","","html-keyboard-response","62","178531","0.0-62.0","3VNXK88KKD493M6418B03WGSOEDV9J","A19CB2C4GY4C60","388CL5C1RJ9X03EZUESK4LKS9TSHL1","","<img src=""img/set1/S2.jpg"" width=""540"" height = ""360"">","null","","","","","","","","","",""
"null","","html-keyboard-response","63","178733","0.0-63.0","3VNXK88KKD493M6418B03WGSOEDV9J","A19CB2C4GY4C60","388CL5C1RJ9X03EZUESK4LKS9TSHL1","","","null","","","","","","","","","",""
"895.2999999970198","","image-keyboard-response","64","179629","0.0-64.0","3VNXK88KKD493M6418B03WGSOEDV9J","A19CB2C4GY4C60","388CL5C1RJ9X03EZUESK4LKS9TSHL1","","img/set1/S2.jpg","74","2","structured_incentive","68","structured_incentive,random,structured_normal,structured_load","3,4,2,1,2,3","1,4,3,2","false","","",""
"null","","html-keyboard-response","65","179981","0.0-65.0","3VNXK88KKD493M6418B03WGSOEDV9J","A19CB2C4GY4C60","388CL5C1RJ9X03EZUESK4LKS9TSHL1","","<img src=""img/set1/S2.jpg"" width=""540"" height = ""360"">","null","","","","","","","","","",""
"null","","html-keyboard-response","66","180184","0.0-66.0","3VNXK88KKD493M6418B03WGSOEDV9J","A19CB2C4GY4C60","388CL5C1RJ9X03EZUESK4LKS9TSHL1","","","null","","","","","","","","","",""
"818.7999999970198","","image-keyboard-response","67","181004","0.0-67.0","3VNXK88KKD493M6418B03WGSOEDV9J","A19CB2C4GY4C60","388CL5C1RJ9X03EZUESK4LKS9TSHL1","","img/set1/S2.jpg","68","2","structured_incentive","68","structured_incentive,random,structured_normal,structured_load","3,4,2,1,2,3","1,4,3,2","true","","",""
"null","","html-keyboard-response","68","181355","0.0-68.0","3VNXK88KKD493M6418B03WGSOEDV9J","A19CB2C4GY4C60","388CL5C1RJ9X03EZUESK4LKS9TSHL1","","<img src=""img/set1/S2.jpg"" width=""540"" height = ""360"" style=""border:16px solid orange"">","null","","","","","","","","","",""
"null","","html-keyboard-response","69","181556","0.0-69.0","3VNXK88KKD493M6418B03WGSOEDV9J","A19CB2C4GY4C60","388CL5C1RJ9X03EZUESK4LKS9TSHL1","","","null","","","","","","","","","",""
"1170.4000000059605","","image-keyboard-response","70","182729","0.0-70.0","3VNXK88KKD493M6418B03WGSOEDV9J","A19CB2C4GY4C60","388CL5C1RJ9X03EZUESK4LKS9TSHL1","","img/set1/S3.jpg","68","3","structured_incentive","72","structured_incentive,random,structured_normal,structured_load","3,4,2,1,2,3","1,4,3,2","false","","",""
"null","","html-keyboard-response","71","183081","0.0-71.0","3VNXK88KKD493M6418B03WGSOEDV9J","A19CB2C4GY4C60","388CL5C1RJ9X03EZUESK4LKS9TSHL1","","<img src=""img/set1/S3.jpg"" width=""540"" height = ""360"">","null","","","","","","","","","",""
"null","","html-keyboard-response","72","183282","0.0-72.0","3VNXK88KKD493M6418B03WGSOEDV9J","A19CB2C4GY4C60","388CL5C1RJ9X03EZUESK4LKS9TSHL1","","","null","","","","","","","","","",""
"958.5999999940395","","image-keyboard-response","73","184242","0.0-73.0","3VNXK88KKD493M6418B03WGSOEDV9J","A19CB2C4GY4C60","388CL5C1RJ9X03EZUESK4LKS9TSHL1","","img/set1/S4.jpg","74","4","structured_incentive","74","structured_incentive,random,structured_normal,structured_load","3,4,2,1,2,3","1,4,3,2","true","","",""
"null","","html-keyboard-response","74","184594","0.0-74.0","3VNXK88KKD493M6418B03WGSOEDV9J","A19CB2C4GY4C60","388CL5C1RJ9X03EZUESK4LKS9TSHL1","","<img src=""img/set1/S4.jpg"" width=""540"" height = ""360"" style=""border:16px solid Violet"">","null","","","","","","","","","",""
"null","","html-keyboard-response","75","184795","0.0-75.0","3VNXK88KKD493M6418B03WGSOEDV9J","A19CB2C4GY4C60","388CL5C1RJ9X03EZUESK4LKS9TSHL1","","","null","","","","","","","","","",""
"954","","image-keyboard-response","76","185751","0.0-76.0","3VNXK88KKD493M6418B03WGSOEDV9J","A19CB2C4GY4C60","388CL5C1RJ9X03EZUESK4LKS9TSHL1","","img/set1/S1.jpg","72","1","structured_incentive","83","structured_incentive,random,structured_normal,structured_load","3,4,2,1,2,3","1,4,3,2","false","","",""
"null","","html-keyboard-response","77","186103","0.0-77.0","3VNXK88KKD493M6418B03WGSOEDV9J","A19CB2C4GY4C60","388CL5C1RJ9X03EZUESK4LKS9TSHL1","","<img src=""img/set1/S1.jpg"" width=""540"" height = ""360"">","null","","","","","","","","","",""
"null","","html-keyboard-response","78","186305","0.0-78.0","3VNXK88KKD493M6418B03WGSOEDV9J","A19CB2C4GY4C60","388CL5C1RJ9X03EZUESK4LKS9TSHL1","","","null","","","","","","","","","",""
"985.5","","image-keyboard-response","79","187291","0.0-79.0","3VNXK88KKD493M6418B03WGSOEDV9J","A19CB2C4GY4C60","388CL5C1RJ9X03EZUESK4LKS9TSHL1","","img/set1/S1.jpg","83","1","structured_incentive","83","structured_incentive,random,structured_normal,structured_load","3,4,2,1,2,3","1,4,3,2","true","","",""
"null","","html-keyboard-response","80","187661","0.0-80.0","3VNXK88KKD493M6418B03WGSOEDV9J","A19CB2C4GY4C60","388CL5C1RJ9X03EZUESK4LKS9TSHL1","","<img src=""img/set1/S1.jpg"" width=""540"" height = ""360"" style=""border:16px solid orange"">","null","","","","","","","","","",""
"null","","html-keyboard-response","81","187864","0.0-81.0","3VNXK88KKD493M6418B03WGSOEDV9J","A19CB2C4GY4C60","388CL5C1RJ9X03EZUESK4LKS9TSHL1","","","null","","","","","","","","","",""
"605.1999999955297","","image-keyboard-response","82","188470","0.0-82.0","3VNXK88KKD493M6418B03WGSOEDV9J","A19CB2C4GY4C60","388CL5C1RJ9X03EZUESK4LKS9TSHL1","","img/set1/S1.jpg","83","1","structured_incentive","83","structured_incentive,random,structured_normal,structured_load","3,4,2,1,2,3","1,4,3,2","true","","",""
"null","","html-keyboard-response","83","188823","0.0-83.0","3VNXK88KKD493M6418B03WGSOEDV9J","A19CB2C4GY4C60","388CL5C1RJ9X03EZUESK4LKS9TSHL1","","<img src=""img/set1/S1.jpg"" width=""540"" height = ""360"" style=""border:16px solid orange"">","null","","","","","","","","","",""
"null","","html-keyboard-response","84","189025","0.0-84.0","3VNXK88KKD493M6418B03WGSOEDV9J","A19CB2C4GY4C60","388CL5C1RJ9X03EZUESK4LKS9TSHL1","","","null","","","","","","","","","",""
"944.8999999985099","","image-keyboard-response","85","189971","0.0-85.0","3VNXK88KKD493M6418B03WGSOEDV9J","A19CB2C4GY4C60","388CL5C1RJ9X03EZUESK4LKS9TSHL1","","img/set1/S2.jpg","74","2","structured_incentive","68","structured_incentive,random,structured_normal,structured_load","3,4,2,1,2,3","1,4,3,2","false","","",""
"null","","html-keyboard-response","86","190323","0.0-86.0","3VNXK88KKD493M6418B03WGSOEDV9J","A19CB2C4GY4C60","388CL5C1RJ9X03EZUESK4LKS9TSHL1","","<img src=""img/set1/S2.jpg"" width=""540"" height = ""360"">","null","","","","","","","","","",""
"null","","html-keyboard-response","87","190525","0.0-87.0","3VNXK88KKD493M6418B03WGSOEDV9J","A19CB2C4GY4C60","388CL5C1RJ9X03EZUESK4LKS9TSHL1","","","null","","","","","","","","","",""
"744.2000000029802","","image-keyboard-response","88","191271","0.0-88.0","3VNXK88KKD493M6418B03WGSOEDV9J","A19CB2C4GY4C60","388CL5C1RJ9X03EZUESK4LKS9TSHL1","","img/set1/S1.jpg","83","1","structured_incentive","83","structured_incentive,random,structured_normal,structured_load","3,4,2,1,2,3","1,4,3,2","true","","",""
"null","","html-keyboard-response","89","191623","0.0-89.0","3VNXK88KKD493M6418B03WGSOEDV9J","A19CB2C4GY4C60","388CL5C1RJ9X03EZUESK4LKS9TSHL1","","<img src=""img/set1/S1.jpg"" width=""540"" height = ""360"" style=""border:16px solid orange"">","null","","","","","","","","","",""
"null","","html-keyboard-response","90","191832","0.0-90.0","3VNXK88KKD493M6418B03WGSOEDV9J","A19CB2C4GY4C60","388CL5C1RJ9X03EZUESK4LKS9TSHL1","","","null","","","","","","","","","",""
"734.7999999970198","","image-keyboard-response","91","192568","0.0-91.0","3VNXK88KKD493M6418B03WGSOEDV9J","A19CB2C4GY4C60","388CL5C1RJ9X03EZUESK4LKS9TSHL1","","img/set1/S3.jpg","68","3","structured_incentive","72","structured_incentive,random,structured_normal,structured_load","3,4,2,1,2,3","1,4,3,2","false","","",""
"null","","html-keyboard-response","92","192926","0.0-92.0","3VNXK88KKD493M6418B03WGSOEDV9J","A19CB2C4GY4C60","388CL5C1RJ9X03EZUESK4LKS9TSHL1","","<img src=""img/set1/S3.jpg"" width=""540"" height = ""360"">","null","","","","","","","","","",""
"null","","html-keyboard-response","93","193127","0.0-93.0","3VNXK88KKD493M6418B03WGSOEDV9J","A19CB2C4GY4C60","388CL5C1RJ9X03EZUESK4LKS9TSHL1","","","null","","","","","","","","","",""
"1108.3000000044703","","image-keyboard-response","94","194236","0.0-94.0","3VNXK88KKD493M6418B03WGSOEDV9J","A19CB2C4GY4C60","388CL5C1RJ9X03EZUESK4LKS9TSHL1","","img/set1/S4.jpg","68","4","structured_incentive","74","structured_incentive,random,structured_normal,structured_load","3,4,2,1,2,3","1,4,3,2","false","","",""
"null","","html-keyboard-response","95","194589","0.0-95.0","3VNXK88KKD493M6418B03WGSOEDV9J","A19CB2C4GY4C60","388CL5C1RJ9X03EZUESK4LKS9TSHL1","","<img src=""img/set1/S4.jpg"" width=""540"" height = ""360"">","null","","","","","","","","","",""
"null","","html-keyboard-response","96","194790","0.0-96.0","3VNXK88KKD493M6418B03WGSOEDV9J","A19CB2C4GY4C60","388CL5C1RJ9X03EZUESK4LKS9TSHL1","","","null","","","","","","","","","",""
"1006.5999999940395","","image-keyboard-response","97","195798","0.0-97.0","3VNXK88KKD493M6418B03WGSOEDV9J","A19CB2C4GY4C60","388CL5C1RJ9X03EZUESK4LKS9TSHL1","","img/set1/S2.jpg","74","2","structured_incentive","68","structured_incentive,random,structured_normal,structured_load","3,4,2,1,2,3","1,4,3,2","false","","",""
"null","","html-keyboard-response","98","196150","0.0-98.0","3VNXK88KKD493M6418B03WGSOEDV9J","A19CB2C4GY4C60","388CL5C1RJ9X03EZUESK4LKS9TSHL1","","<img src=""img/set1/S2.jpg"" width=""540"" height = ""360"">","null","","","","","","","","","",""
"null","","html-keyboard-response","99","196352","0.0-99.0","3VNXK88KKD493M6418B03WGSOEDV9J","A19CB2C4GY4C60","388CL5C1RJ9X03EZUESK4LKS9TSHL1","","","null","","","","","","","","","",""
"755.1999999955297","","image-keyboard-response","100","197108","0.0-100.0","3VNXK88KKD493M6418B03WGSOEDV9J","A19CB2C4GY4C60","388CL5C1RJ9X03EZUESK4LKS9TSHL1","","img/set1/S1.jpg","72","1","structured_incentive","83","structured_incentive,random,structured_normal,structured_load","3,4,2,1,2,3","1,4,3,2","false","","",""
"null","","html-keyboard-response","101","197460","0.0-101.0","3VNXK88KKD493M6418B03WGSOEDV9J","A19CB2C4GY4C60","388CL5C1RJ9X03EZUESK4LKS9TSHL1","","<img src=""img/set1/S1.jpg"" width=""540"" height = ""360"">","null","","","","","","","","","",""
"null","","html-keyboard-response","102","197663","0.0-102.0","3VNXK88KKD493M6418B03WGSOEDV9J","A19CB2C4GY4C60","388CL5C1RJ9X03EZUESK4LKS9TSHL1","","","null","","","","","","","","","",""
"1172.8999999985099","","image-keyboard-response","103","198837","0.0-103.0","3VNXK88KKD493M6418B03WGSOEDV9J","A19CB2C4GY4C60","388CL5C1RJ9X03EZUESK4LKS9TSHL1","","img/set1/S3.jpg","68","3","structured_incentive","72","structured_incentive,random,structured_normal,structured_load","3,4,2,1,2,3","1,4,3,2","false","","",""
"null","","html-keyboard-response","104","199194","0.0-104.0","3VNXK88KKD493M6418B03WGSOEDV9J","A19CB2C4GY4C60","388CL5C1RJ9X03EZUESK4LKS9TSHL1","","<img src=""img/set1/S3.jpg"" width=""540"" height = ""360"">","null","","","","","","","","","",""
"null","","html-keyboard-response","105","199395","0.0-105.0","3VNXK88KKD493M6418B03WGSOEDV9J","A19CB2C4GY4C60","388CL5C1RJ9X03EZUESK4LKS9TSHL1","","","null","","","","","","","","","",""
"1209.6000000014901","","image-keyboard-response","106","200606","0.0-106.0","3VNXK88KKD493M6418B03WGSOEDV9J","A19CB2C4GY4C60","388CL5C1RJ9X03EZUESK4LKS9TSHL1","","img/set1/S4.jpg","68","4","structured_incentive","74","structured_incentive,random,structured_normal,structured_load","3,4,2,1,2,3","1,4,3,2","false","","",""
"null","","html-keyboard-response","107","200957","0.0-107.0","3VNXK88KKD493M6418B03WGSOEDV9J","A19CB2C4GY4C60","388CL5C1RJ9X03EZUESK4LKS9TSHL1","","<img src=""img/set1/S4.jpg"" width=""540"" height = ""360"">","null","","","","","","","","","",""
"null","","html-keyboard-response","108","201160","0.0-108.0","3VNXK88KKD493M6418B03WGSOEDV9J","A19CB2C4GY4C60","388CL5C1RJ9X03EZUESK4LKS9TSHL1","","","null","","","","","","","","","",""
"737.2000000029802","","image-keyboard-response","109","201898","0.0-109.0","3VNXK88KKD493M6418B03WGSOEDV9J","A19CB2C4GY4C60","388CL5C1RJ9X03EZUESK4LKS9TSHL1","","img/set1/S1.jpg","83","1","structured_incentive","83","structured_incentive,random,structured_normal,structured_load","3,4,2,1,2,3","1,4,3,2","true","","",""
"null","","html-keyboard-response","110","202251","0.0-110.0","3VNXK88KKD493M6418B03WGSOEDV9J","A19CB2C4GY4C60","388CL5C1RJ9X03EZUESK4LKS9TSHL1","","<img src=""img/set1/S1.jpg"" width=""540"" height = ""360"" style=""border:16px solid orange"">","null","","","","","","","","","",""
"null","","html-keyboard-response","111","202453","0.0-111.0","3VNXK88KKD493M6418B03WGSOEDV9J","A19CB2C4GY4C60","388CL5C1RJ9X03EZUESK4LKS9TSHL1","","","null","","","","","","","","","",""
"1025.8999999985099","","image-keyboard-response","112","203480","0.0-112.0","3VNXK88KKD493M6418B03WGSOEDV9J","A19CB2C4GY4C60","388CL5C1RJ9X03EZUESK4LKS9TSHL1","","img/set1/S2.jpg","74","2","structured_incentive","68","structured_incentive,random,structured_normal,structured_load","3,4,2,1,2,3","1,4,3,2","false","","",""
"null","","html-keyboard-response","113","203831","0.0-113.0","3VNXK88KKD493M6418B03WGSOEDV9J","A19CB2C4GY4C60","388CL5C1RJ9X03EZUESK4LKS9TSHL1","","<img src=""img/set1/S2.jpg"" width=""540"" height = ""360"">","null","","","","","","","","","",""
"null","","html-keyboard-response","114","204033","0.0-114.0","3VNXK88KKD493M6418B03WGSOEDV9J","A19CB2C4GY4C60","388CL5C1RJ9X03EZUESK4LKS9TSHL1","","","null","","","","","","","","","",""
"879.1000000014901","","image-keyboard-response","115","204913","0.0-115.0","3VNXK88KKD493M6418B03WGSOEDV9J","A19CB2C4GY4C60","388CL5C1RJ9X03EZUESK4LKS9TSHL1","","img/set1/S2.jpg","72","2","structured_incentive","68","structured_incentive,random,structured_normal,structured_load","3,4,2,1,2,3","1,4,3,2","false","","",""
"null","","html-keyboard-response","116","205265","0.0-116.0","3VNXK88KKD493M6418B03WGSOEDV9J","A19CB2C4GY4C60","388CL5C1RJ9X03EZUESK4LKS9TSHL1","","<img src=""img/set1/S2.jpg"" width=""540"" height = ""360"">","null","","","","","","","","","",""
"null","","html-keyboard-response","117","205467","0.0-117.0","3VNXK88KKD493M6418B03WGSOEDV9J","A19CB2C4GY4C60","388CL5C1RJ9X03EZUESK4LKS9TSHL1","","","null","","","","","","","","","",""
"783.7000000029802","","image-keyboard-response","118","206252","0.0-118.0","3VNXK88KKD493M6418B03WGSOEDV9J","A19CB2C4GY4C60","388CL5C1RJ9X03EZUESK4LKS9TSHL1","","img/set1/S1.jpg","83","1","structured_incentive","83","structured_incentive,random,structured_normal,structured_load","3,4,2,1,2,3","1,4,3,2","true","","",""
"null","","html-keyboard-response","119","206603","0.0-119.0","3VNXK88KKD493M6418B03WGSOEDV9J","A19CB2C4GY4C60","388CL5C1RJ9X03EZUESK4LKS9TSHL1","","<img src=""img/set1/S1.jpg"" width=""540"" height = ""360"" style=""border:16px solid orange"">","null","","","","","","","","","",""
"null","","html-keyboard-response","120","206805","0.0-120.0","3VNXK88KKD493M6418B03WGSOEDV9J","A19CB2C4GY4C60","388CL5C1RJ9X03EZUESK4LKS9TSHL1","","","null","","","","","","","","","",""
"595.1000000014901","","image-keyboard-response","121","207401","0.0-121.0","3VNXK88KKD493M6418B03WGSOEDV9J","A19CB2C4GY4C60","388CL5C1RJ9X03EZUESK4LKS9TSHL1","","img/set1/S2.jpg","68","2","structured_incentive","68","structured_incentive,random,structured_normal,structured_load","3,4,2,1,2,3","1,4,3,2","true","","",""
"null","","html-keyboard-response","122","207763","0.0-122.0","3VNXK88KKD493M6418B03WGSOEDV9J","A19CB2C4GY4C60","388CL5C1RJ9X03EZUESK4LKS9TSHL1","","<img src=""img/set1/S2.jpg"" width=""540"" height = ""360"" style=""border:16px solid orange"">","null","","","","","","","","","",""
"null","","html-keyboard-response","123","207964","0.0-123.0","3VNXK88KKD493M6418B03WGSOEDV9J","A19CB2C4GY4C60","388CL5C1RJ9X03EZUESK4LKS9TSHL1","","","null","","","","","","","","","",""
"445.6000000014901","","image-keyboard-response","124","208410","0.0-124.0","3VNXK88KKD493M6418B03WGSOEDV9J","A19CB2C4GY4C60","388CL5C1RJ9X03EZUESK4LKS9TSHL1","","img/set1/S2.jpg","68","2","structured_incentive","68","structured_incentive,random,structured_normal,structured_load","3,4,2,1,2,3","1,4,3,2","true","","",""
"null","","html-keyboard-response","125","208762","0.0-125.0","3VNXK88KKD493M6418B03WGSOEDV9J","A19CB2C4GY4C60","388CL5C1RJ9X03EZUESK4LKS9TSHL1","","<img src=""img/set1/S2.jpg"" width=""540"" height = ""360"" style=""border:16px solid orange"">","null","","","","","","","","","",""
"null","","html-keyboard-response","126","208964","0.0-126.0","3VNXK88KKD493M6418B03WGSOEDV9J","A19CB2C4GY4C60","388CL5C1RJ9X03EZUESK4LKS9TSHL1","","","null","","","","","","","","","",""
"1143.6000000014901","","image-keyboard-response","127","210108","0.0-127.0","3VNXK88KKD493M6418B03WGSOEDV9J","A19CB2C4GY4C60","388CL5C1RJ9X03EZUESK4LKS9TSHL1","","img/set1/S3.jpg","74","3","structured_incentive","72","structured_incentive,random,structured_normal,structured_load","3,4,2,1,2,3","1,4,3,2","false","","",""
"null","","html-keyboard-response","128","210462","0.0-128.0","3VNXK88KKD493M6418B03WGSOEDV9J","A19CB2C4GY4C60","388CL5C1RJ9X03EZUESK4LKS9TSHL1","","<img src=""img/set1/S3.jpg"" width=""540"" height = ""360"">","null","","","","","","","","","",""
"null","","html-keyboard-response","129","210663","0.0-129.0","3VNXK88KKD493M6418B03WGSOEDV9J","A19CB2C4GY4C60","388CL5C1RJ9X03EZUESK4LKS9TSHL1","","","null","","","","","","","","","",""
"1577","","image-keyboard-response","130","212241","0.0-130.0","3VNXK88KKD493M6418B03WGSOEDV9J","A19CB2C4GY4C60","388CL5C1RJ9X03EZUESK4LKS9TSHL1","","img/set1/S4.jpg","68","4","structured_incentive","74","structured_incentive,random,structured_normal,structured_load","3,4,2,1,2,3","1,4,3,2","false","","",""
"null","","html-keyboard-response","131","212592","0.0-131.0","3VNXK88KKD493M6418B03WGSOEDV9J","A19CB2C4GY4C60","388CL5C1RJ9X03EZUESK4LKS9TSHL1","","<img src=""img/set1/S4.jpg"" width=""540"" height = ""360"">","null","","","","","","","","","",""
"null","","html-keyboard-response","132","212795","0.0-132.0","3VNXK88KKD493M6418B03WGSOEDV9J","A19CB2C4GY4C60","388CL5C1RJ9X03EZUESK4LKS9TSHL1","","","null","","","","","","","","","",""
"1217.6000000014901","","image-keyboard-response","133","214014","0.0-133.0","3VNXK88KKD493M6418B03WGSOEDV9J","A19CB2C4GY4C60","388CL5C1RJ9X03EZUESK4LKS9TSHL1","","img/set1/S2.jpg","72","2","structured_incentive","68","structured_incentive,random,structured_normal,structured_load","3,4,2,1,2,3","1,4,3,2","false","","",""
"null","","html-keyboard-response","134","214366","0.0-134.0","3VNXK88KKD493M6418B03WGSOEDV9J","A19CB2C4GY4C60","388CL5C1RJ9X03EZUESK4LKS9TSHL1","","<img src=""img/set1/S2.jpg"" width=""540"" height = ""360"">","null","","","","","","","","","",""
"null","","html-keyboard-response","135","214568","0.0-135.0","3VNXK88KKD493M6418B03WGSOEDV9J","A19CB2C4GY4C60","388CL5C1RJ9X03EZUESK4LKS9TSHL1","","","null","","","","","","","","","",""
"1229.5","","image-keyboard-response","136","215798","0.0-136.0","3VNXK88KKD493M6418B03WGSOEDV9J","A19CB2C4GY4C60","388CL5C1RJ9X03EZUESK4LKS9TSHL1","","img/set1/S1.jpg","83","1","structured_incentive","83","structured_incentive,random,structured_normal,structured_load","3,4,2,1,2,3","1,4,3,2","true","","",""
"null","","html-keyboard-response","137","216151","0.0-137.0","3VNXK88KKD493M6418B03WGSOEDV9J","A19CB2C4GY4C60","388CL5C1RJ9X03EZUESK4LKS9TSHL1","","<img src=""img/set1/S1.jpg"" width=""540"" height = ""360"" style=""border:16px solid orange"">","null","","","","","","","","","",""
"null","","html-keyboard-response","138","216353","0.0-138.0","3VNXK88KKD493M6418B03WGSOEDV9J","A19CB2C4GY4C60","388CL5C1RJ9X03EZUESK4LKS9TSHL1","","","null","","","","","","","","","",""
"1081.8999999985099","","image-keyboard-response","139","217436","0.0-139.0","3VNXK88KKD493M6418B03WGSOEDV9J","A19CB2C4GY4C60","388CL5C1RJ9X03EZUESK4LKS9TSHL1","","img/set1/S2.jpg","74","2","structured_incentive","68","structured_incentive,random,structured_normal,structured_load","3,4,2,1,2,3","1,4,3,2","false","","",""
"null","","html-keyboard-response","140","217788","0.0-140.0","3VNXK88KKD493M6418B03WGSOEDV9J","A19CB2C4GY4C60","388CL5C1RJ9X03EZUESK4LKS9TSHL1","","<img src=""img/set1/S2.jpg"" width=""540"" height = ""360"">","null","","","","","","","","","",""
"null","","html-keyboard-response","141","217989","0.0-141.0","3VNXK88KKD493M6418B03WGSOEDV9J","A19CB2C4GY4C60","388CL5C1RJ9X03EZUESK4LKS9TSHL1","","","null","","","","","","","","","",""
"727.8999999985099","","image-keyboard-response","142","218718","0.0-142.0","3VNXK88KKD493M6418B03WGSOEDV9J","A19CB2C4GY4C60","388CL5C1RJ9X03EZUESK4LKS9TSHL1","","img/set1/S1.jpg","83","1","structured_incentive","83","structured_incentive,random,structured_normal,structured_load","3,4,2,1,2,3","1,4,3,2","true","","",""
"null","","html-keyboard-response","143","219070","0.0-143.0","3VNXK88KKD493M6418B03WGSOEDV9J","A19CB2C4GY4C60","388CL5C1RJ9X03EZUESK4LKS9TSHL1","","<img src=""img/set1/S1.jpg"" width=""540"" height = ""360"" style=""border:16px solid orange"">","null","","","","","","","","","",""
"null","","html-keyboard-response","144","219273","0.0-144.0","3VNXK88KKD493M6418B03WGSOEDV9J","A19CB2C4GY4C60","388CL5C1RJ9X03EZUESK4LKS9TSHL1","","","null","","","","","","","","","",""
"1071","","image-keyboard-response","145","220345","0.0-145.0","3VNXK88KKD493M6418B03WGSOEDV9J","A19CB2C4GY4C60","388CL5C1RJ9X03EZUESK4LKS9TSHL1","","img/set1/S3.jpg","68","3","structured_incentive","72","structured_incentive,random,structured_normal,structured_load","3,4,2,1,2,3","1,4,3,2","false","","",""
"null","","html-keyboard-response","146","220697","0.0-146.0","3VNXK88KKD493M6418B03WGSOEDV9J","A19CB2C4GY4C60","388CL5C1RJ9X03EZUESK4LKS9TSHL1","","<img src=""img/set1/S3.jpg"" width=""540"" height = ""360"">","null","","","","","","","","","",""
"null","","html-keyboard-response","147","220898","0.0-147.0","3VNXK88KKD493M6418B03WGSOEDV9J","A19CB2C4GY4C60","388CL5C1RJ9X03EZUESK4LKS9TSHL1","","","null","","","","","","","","","",""
"1107.5","","image-keyboard-response","148","222007","0.0-148.0","3VNXK88KKD493M6418B03WGSOEDV9J","A19CB2C4GY4C60","388CL5C1RJ9X03EZUESK4LKS9TSHL1","","img/set1/S4.jpg","68","4","structured_incentive","74","structured_incentive,random,structured_normal,structured_load","3,4,2,1,2,3","1,4,3,2","false","","",""
"null","","html-keyboard-response","149","222359","0.0-149.0","3VNXK88KKD493M6418B03WGSOEDV9J","A19CB2C4GY4C60","388CL5C1RJ9X03EZUESK4LKS9TSHL1","","<img src=""img/set1/S4.jpg"" width=""540"" height = ""360"">","null","","","","","","","","","",""
"null","","html-keyboard-response","150","222561","0.0-150.0","3VNXK88KKD493M6418B03WGSOEDV9J","A19CB2C4GY4C60","388CL5C1RJ9X03EZUESK4LKS9TSHL1","","","null","","","","","","","","","",""
"995.1000000014901","","image-keyboard-response","151","223557","0.0-151.0","3VNXK88KKD493M6418B03WGSOEDV9J","A19CB2C4GY4C60","388CL5C1RJ9X03EZUESK4LKS9TSHL1","","img/set1/S3.jpg","72","3","structured_incentive","72","structured_incentive,random,structured_normal,structured_load","3,4,2,1,2,3","1,4,3,2","true","","",""
"null","","html-keyboard-response","152","223909","0.0-152.0","3VNXK88KKD493M6418B03WGSOEDV9J","A19CB2C4GY4C60","388CL5C1RJ9X03EZUESK4LKS9TSHL1","","<img src=""img/set1/S3.jpg"" width=""540"" height = ""360"" style=""border:16px solid orange"">","null","","","","","","","","","",""
"null","","html-keyboard-response","153","224110","0.0-153.0","3VNXK88KKD493M6418B03WGSOEDV9J","A19CB2C4GY4C60","388CL5C1RJ9X03EZUESK4LKS9TSHL1","","","null","","","","","","","","","",""
"1108.4000000059605","","image-keyboard-response","154","225219","0.0-154.0","3VNXK88KKD493M6418B03WGSOEDV9J","A19CB2C4GY4C60","388CL5C1RJ9X03EZUESK4LKS9TSHL1","","img/set1/S4.jpg","72","4","structured_incentive","74","structured_incentive,random,structured_normal,structured_load","3,4,2,1,2,3","1,4,3,2","false","","",""
"null","","html-keyboard-response","155","225572","0.0-155.0","3VNXK88KKD493M6418B03WGSOEDV9J","A19CB2C4GY4C60","388CL5C1RJ9X03EZUESK4LKS9TSHL1","","<img src=""img/set1/S4.jpg"" width=""540"" height = ""360"">","null","","","","","","","","","",""
"null","","html-keyboard-response","156","225774","0.0-156.0","3VNXK88KKD493M6418B03WGSOEDV9J","A19CB2C4GY4C60","388CL5C1RJ9X03EZUESK4LKS9TSHL1","","","null","","","","","","","","","",""
"727.4000000059605","","image-keyboard-response","157","226503","0.0-157.0","3VNXK88KKD493M6418B03WGSOEDV9J","A19CB2C4GY4C60","388CL5C1RJ9X03EZUESK4LKS9TSHL1","","img/set1/S3.jpg","72","3","structured_incentive","72","structured_incentive,random,structured_normal,structured_load","3,4,2,1,2,3","1,4,3,2","true","","",""
"null","","html-keyboard-response","158","226854","0.0-158.0","3VNXK88KKD493M6418B03WGSOEDV9J","A19CB2C4GY4C60","388CL5C1RJ9X03EZUESK4LKS9TSHL1","","<img src=""img/set1/S3.jpg"" width=""540"" height = ""360"" style=""border:16px solid orange"">","null","","","","","","","","","",""
"null","","html-keyboard-response","159","227056","0.0-159.0","3VNXK88KKD493M6418B03WGSOEDV9J","A19CB2C4GY4C60","388CL5C1RJ9X03EZUESK4LKS9TSHL1","","","null","","","","","","","","","",""
"883.7000000029802","","image-keyboard-response","160","227941","0.0-160.0","3VNXK88KKD493M6418B03WGSOEDV9J","A19CB2C4GY4C60","388CL5C1RJ9X03EZUESK4LKS9TSHL1","","img/set1/S4.jpg","74","4","structured_incentive","74","structured_incentive,random,structured_normal,structured_load","3,4,2,1,2,3","1,4,3,2","true","","",""
"null","","html-keyboard-response","161","228293","0.0-161.0","3VNXK88KKD493M6418B03WGSOEDV9J","A19CB2C4GY4C60","388CL5C1RJ9X03EZUESK4LKS9TSHL1","","<img src=""img/set1/S4.jpg"" width=""540"" height = ""360"" style=""border:16px solid Violet"">","null","","","","","","","","","",""
"null","","html-keyboard-response","162","228495","0.0-162.0","3VNXK88KKD493M6418B03WGSOEDV9J","A19CB2C4GY4C60","388CL5C1RJ9X03EZUESK4LKS9TSHL1","","","null","","","","","","","","","",""
"1073.1000000014901","","image-keyboard-response","163","229569","0.0-163.0","3VNXK88KKD493M6418B03WGSOEDV9J","A19CB2C4GY4C60","388CL5C1RJ9X03EZUESK4LKS9TSHL1","","img/set1/S2.jpg","68","2","structured_incentive","68","structured_incentive,random,structured_normal,structured_load","3,4,2,1,2,3","1,4,3,2","true","","",""
"null","","html-keyboard-response","164","229920","0.0-164.0","3VNXK88KKD493M6418B03WGSOEDV9J","A19CB2C4GY4C60","388CL5C1RJ9X03EZUESK4LKS9TSHL1","","<img src=""img/set1/S2.jpg"" width=""540"" height = ""360"" style=""border:16px solid orange"">","null","","","","","","","","","",""
"null","","html-keyboard-response","165","230122","0.0-165.0","3VNXK88KKD493M6418B03WGSOEDV9J","A19CB2C4GY4C60","388CL5C1RJ9X03EZUESK4LKS9TSHL1","","","null","","","","","","","","","",""
"1073.3000000044703","","image-keyboard-response","166","231196","0.0-166.0","3VNXK88KKD493M6418B03WGSOEDV9J","A19CB2C4GY4C60","388CL5C1RJ9X03EZUESK4LKS9TSHL1","","img/set1/S3.jpg","72","3","structured_incentive","72","structured_incentive,random,structured_normal,structured_load","3,4,2,1,2,3","1,4,3,2","true","","",""
"null","","html-keyboard-response","167","231548","0.0-167.0","3VNXK88KKD493M6418B03WGSOEDV9J","A19CB2C4GY4C60","388CL5C1RJ9X03EZUESK4LKS9TSHL1","","<img src=""img/set1/S3.jpg"" width=""540"" height = ""360"" style=""border:16px solid orange"">","null","","","","","","","","","",""
"null","","html-keyboard-response","168","231749","0.0-168.0","3VNXK88KKD493M6418B03WGSOEDV9J","A19CB2C4GY4C60","388CL5C1RJ9X03EZUESK4LKS9TSHL1","","","null","","","","","","","","","",""
"744.9000000059605","","image-keyboard-response","169","232495","0.0-169.0","3VNXK88KKD493M6418B03WGSOEDV9J","A19CB2C4GY4C60","388CL5C1RJ9X03EZUESK4LKS9TSHL1","","img/set1/S4.jpg","68","4","structured_incentive","74","structured_incentive,random,structured_normal,structured_load","3,4,2,1,2,3","1,4,3,2","false","","",""
"null","","html-keyboard-response","170","232848","0.0-170.0","3VNXK88KKD493M6418B03WGSOEDV9J","A19CB2C4GY4C60","388CL5C1RJ9X03EZUESK4LKS9TSHL1","","<img src=""img/set1/S4.jpg"" width=""540"" height = ""360"">","null","","","","","","","","","",""
"null","","html-keyboard-response","171","233050","0.0-171.0","3VNXK88KKD493M6418B03WGSOEDV9J","A19CB2C4GY4C60","388CL5C1RJ9X03EZUESK4LKS9TSHL1","","","null","","","","","","","","","",""
"628","","image-keyboard-response","172","233679","0.0-172.0","3VNXK88KKD493M6418B03WGSOEDV9J","A19CB2C4GY4C60","388CL5C1RJ9X03EZUESK4LKS9TSHL1","","img/set1/S3.jpg","72","3","structured_incentive","72","structured_incentive,random,structured_normal,structured_load","3,4,2,1,2,3","1,4,3,2","true","","",""
"null","","html-keyboard-response","173","234032","0.0-173.0","3VNXK88KKD493M6418B03WGSOEDV9J","A19CB2C4GY4C60","388CL5C1RJ9X03EZUESK4LKS9TSHL1","","<img src=""img/set1/S3.jpg"" width=""540"" height = ""360"" style=""border:16px solid orange"">","null","","","","","","","","","",""
"null","","html-keyboard-response","174","234234","0.0-174.0","3VNXK88KKD493M6418B03WGSOEDV9J","A19CB2C4GY4C60","388CL5C1RJ9X03EZUESK4LKS9TSHL1","","","null","","","","","","","","","",""
"493.5","","image-keyboard-response","175","234728","0.0-175.0","3VNXK88KKD493M6418B03WGSOEDV9J","A19CB2C4GY4C60","388CL5C1RJ9X03EZUESK4LKS9TSHL1","","img/set1/S4.jpg","74","4","structured_incentive","74","structured_incentive,random,structured_normal,structured_load","3,4,2,1,2,3","1,4,3,2","true","","",""
"null","","html-keyboard-response","176","235079","0.0-176.0","3VNXK88KKD493M6418B03WGSOEDV9J","A19CB2C4GY4C60","388CL5C1RJ9X03EZUESK4LKS9TSHL1","","<img src=""img/set1/S4.jpg"" width=""540"" height = ""360"" style=""border:16px solid Violet"">","null","","","","","","","","","",""
"null","","html-keyboard-response","177","235282","0.0-177.0","3VNXK88KKD493M6418B03WGSOEDV9J","A19CB2C4GY4C60","388CL5C1RJ9X03EZUESK4LKS9TSHL1","","","null","","","","","","","","","",""
"759.8999999985099","","image-keyboard-response","178","236043","0.0-178.0","3VNXK88KKD493M6418B03WGSOEDV9J","A19CB2C4GY4C60","388CL5C1RJ9X03EZUESK4LKS9TSHL1","","img/set1/S1.jpg","83","1","structured_incentive","83","structured_incentive,random,structured_normal,structured_load","3,4,2,1,2,3","1,4,3,2","true","","",""
"null","","html-keyboard-response","179","236396","0.0-179.0","3VNXK88KKD493M6418B03WGSOEDV9J","A19CB2C4GY4C60","388CL5C1RJ9X03EZUESK4LKS9TSHL1","","<img src=""img/set1/S1.jpg"" width=""540"" height = ""360"" style=""border:16px solid orange"">","null","","","","","","","","","",""
"null","","html-keyboard-response","180","236597","0.0-180.0","3VNXK88KKD493M6418B03WGSOEDV9J","A19CB2C4GY4C60","388CL5C1RJ9X03EZUESK4LKS9TSHL1","","","null","","","","","","","","","",""
"892.9000000059605","","image-keyboard-response","181","237491","0.0-181.0","3VNXK88KKD493M6418B03WGSOEDV9J","A19CB2C4GY4C60","388CL5C1RJ9X03EZUESK4LKS9TSHL1","","img/set1/S2.jpg","74","2","structured_incentive","68","structured_incentive,random,structured_normal,structured_load","3,4,2,1,2,3","1,4,3,2","false","","",""
"null","","html-keyboard-response","182","237843","0.0-182.0","3VNXK88KKD493M6418B03WGSOEDV9J","A19CB2C4GY4C60","388CL5C1RJ9X03EZUESK4LKS9TSHL1","","<img src=""img/set1/S2.jpg"" width=""540"" height = ""360"">","null","","","","","","","","","",""
"null","","html-keyboard-response","183","238045","0.0-183.0","3VNXK88KKD493M6418B03WGSOEDV9J","A19CB2C4GY4C60","388CL5C1RJ9X03EZUESK4LKS9TSHL1","","","null","","","","","","","","","",""
"571.5","","image-keyboard-response","184","238617","0.0-184.0","3VNXK88KKD493M6418B03WGSOEDV9J","A19CB2C4GY4C60","388CL5C1RJ9X03EZUESK4LKS9TSHL1","","img/set1/S2.jpg","68","2","structured_incentive","68","structured_incentive,random,structured_normal,structured_load","3,4,2,1,2,3","1,4,3,2","true","","",""
"null","","html-keyboard-response","185","238970","0.0-185.0","3VNXK88KKD493M6418B03WGSOEDV9J","A19CB2C4GY4C60","388CL5C1RJ9X03EZUESK4LKS9TSHL1","","<img src=""img/set1/S2.jpg"" width=""540"" height = ""360"" style=""border:16px solid orange"">","null","","","","","","","","","",""
"null","","html-keyboard-response","186","239171","0.0-186.0","3VNXK88KKD493M6418B03WGSOEDV9J","A19CB2C4GY4C60","388CL5C1RJ9X03EZUESK4LKS9TSHL1","","","null","","","","","","","","","",""
"720.8999999985099","","image-keyboard-response","187","239894","0.0-187.0","3VNXK88KKD493M6418B03WGSOEDV9J","A19CB2C4GY4C60","388CL5C1RJ9X03EZUESK4LKS9TSHL1","","img/set1/S3.jpg","72","3","structured_incentive","72","structured_incentive,random,structured_normal,structured_load","3,4,2,1,2,3","1,4,3,2","true","","",""
"null","","html-keyboard-response","188","240246","0.0-188.0","3VNXK88KKD493M6418B03WGSOEDV9J","A19CB2C4GY4C60","388CL5C1RJ9X03EZUESK4LKS9TSHL1","","<img src=""img/set1/S3.jpg"" width=""540"" height = ""360"" style=""border:16px solid orange"">","null","","","","","","","","","",""
"null","","html-keyboard-response","189","240448","0.0-189.0","3VNXK88KKD493M6418B03WGSOEDV9J","A19CB2C4GY4C60","388CL5C1RJ9X03EZUESK4LKS9TSHL1","","","null","","","","","","","","","",""
"785.1999999955297","","image-keyboard-response","190","241234","0.0-190.0","3VNXK88KKD493M6418B03WGSOEDV9J","A19CB2C4GY4C60","388CL5C1RJ9X03EZUESK4LKS9TSHL1","","img/set1/S4.jpg","74","4","structured_incentive","74","structured_incentive,random,structured_normal,structured_load","3,4,2,1,2,3","1,4,3,2","true","","",""
"null","","html-keyboard-response","191","241587","0.0-191.0","3VNXK88KKD493M6418B03WGSOEDV9J","A19CB2C4GY4C60","388CL5C1RJ9X03EZUESK4LKS9TSHL1","","<img src=""img/set1/S4.jpg"" width=""540"" height = ""360"" style=""border:16px solid Violet"">","null","","","","","","","","","",""
"null","","html-keyboard-response","192","241788","0.0-192.0","3VNXK88KKD493M6418B03WGSOEDV9J","A19CB2C4GY4C60","388CL5C1RJ9X03EZUESK4LKS9TSHL1","","","null","","","","","","","","","",""
"1247.2999999970198","","image-keyboard-response","193","243036","0.0-193.0","3VNXK88KKD493M6418B03WGSOEDV9J","A19CB2C4GY4C60","388CL5C1RJ9X03EZUESK4LKS9TSHL1","","img/set1/S2.jpg","68","2","structured_incentive","68","structured_incentive,random,structured_normal,structured_load","3,4,2,1,2,3","1,4,3,2","true","","",""
"null","","html-keyboard-response","194","243389","0.0-194.0","3VNXK88KKD493M6418B03WGSOEDV9J","A19CB2C4GY4C60","388CL5C1RJ9X03EZUESK4LKS9TSHL1","","<img src=""img/set1/S2.jpg"" width=""540"" height = ""360"" style=""border:16px solid orange"">","null","","","","","","","","","",""
"null","","html-keyboard-response","195","243590","0.0-195.0","3VNXK88KKD493M6418B03WGSOEDV9J","A19CB2C4GY4C60","388CL5C1RJ9X03EZUESK4LKS9TSHL1","","","null","","","","","","","","","",""
"685","","image-keyboard-response","196","244276","0.0-196.0","3VNXK88KKD493M6418B03WGSOEDV9J","A19CB2C4GY4C60","388CL5C1RJ9X03EZUESK4LKS9TSHL1","","img/set1/S3.jpg","72","3","structured_incentive","72","structured_incentive,random,structured_normal,structured_load","3,4,2,1,2,3","1,4,3,2","true","","",""
"null","","html-keyboard-response","197","244629","0.0-197.0","3VNXK88KKD493M6418B03WGSOEDV9J","A19CB2C4GY4C60","388CL5C1RJ9X03EZUESK4LKS9TSHL1","","<img src=""img/set1/S3.jpg"" width=""540"" height = ""360"" style=""border:16px solid orange"">","null","","","","","","","","","",""
"null","","html-keyboard-response","198","244830","0.0-198.0","3VNXK88KKD493M6418B03WGSOEDV9J","A19CB2C4GY4C60","388CL5C1RJ9X03EZUESK4LKS9TSHL1","","","null","","","","","","","","","",""
"899.2000000029802","","image-keyboard-response","199","245730","0.0-199.0","3VNXK88KKD493M6418B03WGSOEDV9J","A19CB2C4GY4C60","388CL5C1RJ9X03EZUESK4LKS9TSHL1","","img/set1/S4.jpg","74","4","structured_incentive","74","structured_incentive,random,structured_normal,structured_load","3,4,2,1,2,3","1,4,3,2","true","","",""
"null","","html-keyboard-response","200","246083","0.0-200.0","3VNXK88KKD493M6418B03WGSOEDV9J","A19CB2C4GY4C60","388CL5C1RJ9X03EZUESK4LKS9TSHL1","","<img src=""img/set1/S4.jpg"" width=""540"" height = ""360"" style=""border:16px solid Violet"">","null","","","","","","","","","",""
"null","","html-keyboard-response","201","246285","0.0-201.0","3VNXK88KKD493M6418B03WGSOEDV9J","A19CB2C4GY4C60","388CL5C1RJ9X03EZUESK4LKS9TSHL1","","","null","","","","","","","","","",""
"644.5","","image-keyboard-response","202","246930","0.0-202.0","3VNXK88KKD493M6418B03WGSOEDV9J","A19CB2C4GY4C60","388CL5C1RJ9X03EZUESK4LKS9TSHL1","","img/set1/S1.jpg","83","1","structured_incentive","83","structured_incentive,random,structured_normal,structured_load","3,4,2,1,2,3","1,4,3,2","true","","",""
"null","","html-keyboard-response","203","247290","0.0-203.0","3VNXK88KKD493M6418B03WGSOEDV9J","A19CB2C4GY4C60","388CL5C1RJ9X03EZUESK4LKS9TSHL1","","<img src=""img/set1/S1.jpg"" width=""540"" height = ""360"" style=""border:16px solid orange"">","null","","","","","","","","","",""
"null","","html-keyboard-response","204","247492","0.0-204.0","3VNXK88KKD493M6418B03WGSOEDV9J","A19CB2C4GY4C60","388CL5C1RJ9X03EZUESK4LKS9TSHL1","","","null","","","","","","","","","",""
"1089.2000000029802","","image-keyboard-response","205","248583","0.0-205.0","3VNXK88KKD493M6418B03WGSOEDV9J","A19CB2C4GY4C60","388CL5C1RJ9X03EZUESK4LKS9TSHL1","","img/set1/S1.jpg","83","1","structured_incentive","83","structured_incentive,random,structured_normal,structured_load","3,4,2,1,2,3","1,4,3,2","true","","",""
"null","","html-keyboard-response","206","248935","0.0-206.0","3VNXK88KKD493M6418B03WGSOEDV9J","A19CB2C4GY4C60","388CL5C1RJ9X03EZUESK4LKS9TSHL1","","<img src=""img/set1/S1.jpg"" width=""540"" height = ""360"" style=""border:16px solid orange"">","null","","","","","","","","","",""
"null","","html-keyboard-response","207","249137","0.0-207.0","3VNXK88KKD493M6418B03WGSOEDV9J","A19CB2C4GY4C60","388CL5C1RJ9X03EZUESK4LKS9TSHL1","","","null","","","","","","","","","",""
"976.3999999985099","","image-keyboard-response","208","250114","0.0-208.0","3VNXK88KKD493M6418B03WGSOEDV9J","A19CB2C4GY4C60","388CL5C1RJ9X03EZUESK4LKS9TSHL1","","img/set1/S2.jpg","74","2","structured_incentive","68","structured_incentive,random,structured_normal,structured_load","3,4,2,1,2,3","1,4,3,2","false","","",""
"null","","html-keyboard-response","209","250473","0.0-209.0","3VNXK88KKD493M6418B03WGSOEDV9J","A19CB2C4GY4C60","388CL5C1RJ9X03EZUESK4LKS9TSHL1","","<img src=""img/set1/S2.jpg"" width=""540"" height = ""360"">","null","","","","","","","","","",""
"null","","html-keyboard-response","210","250675","0.0-210.0","3VNXK88KKD493M6418B03WGSOEDV9J","A19CB2C4GY4C60","388CL5C1RJ9X03EZUESK4LKS9TSHL1","","","null","","","","","","","","","",""
"633.5","","image-keyboard-response","211","251310","0.0-211.0","3VNXK88KKD493M6418B03WGSOEDV9J","A19CB2C4GY4C60","388CL5C1RJ9X03EZUESK4LKS9TSHL1","","img/set1/S2.jpg","68","2","structured_incentive","68","structured_incentive,random,structured_normal,structured_load","3,4,2,1,2,3","1,4,3,2","true","","",""
"null","","html-keyboard-response","212","251662","0.0-212.0","3VNXK88KKD493M6418B03WGSOEDV9J","A19CB2C4GY4C60","388CL5C1RJ9X03EZUESK4LKS9TSHL1","","<img src=""img/set1/S2.jpg"" width=""540"" height = ""360"" style=""border:16px solid orange"">","null","","","","","","","","","",""
"null","","html-keyboard-response","213","251864","0.0-213.0","3VNXK88KKD493M6418B03WGSOEDV9J","A19CB2C4GY4C60","388CL5C1RJ9X03EZUESK4LKS9TSHL1","","","null","","","","","","","","","",""
"510.5","","image-keyboard-response","214","252375","0.0-214.0","3VNXK88KKD493M6418B03WGSOEDV9J","A19CB2C4GY4C60","388CL5C1RJ9X03EZUESK4LKS9TSHL1","","img/set1/S2.jpg","68","2","structured_incentive","68","structured_incentive,random,structured_normal,structured_load","3,4,2,1,2,3","1,4,3,2","true","","",""
"null","","html-keyboard-response","215","252727","0.0-215.0","3VNXK88KKD493M6418B03WGSOEDV9J","A19CB2C4GY4C60","388CL5C1RJ9X03EZUESK4LKS9TSHL1","","<img src=""img/set1/S2.jpg"" width=""540"" height = ""360"" style=""border:16px solid orange"">","null","","","","","","","","","",""
"null","","html-keyboard-response","216","252929","0.0-216.0","3VNXK88KKD493M6418B03WGSOEDV9J","A19CB2C4GY4C60","388CL5C1RJ9X03EZUESK4LKS9TSHL1","","","null","","","","","","","","","",""
"962.7000000029802","","image-keyboard-response","217","253893","0.0-217.0","3VNXK88KKD493M6418B03WGSOEDV9J","A19CB2C4GY4C60","388CL5C1RJ9X03EZUESK4LKS9TSHL1","","img/set1/S1.jpg","83","1","structured_incentive","83","structured_incentive,random,structured_normal,structured_load","3,4,2,1,2,3","1,4,3,2","true","","",""
"null","","html-keyboard-response","218","254245","0.0-218.0","3VNXK88KKD493M6418B03WGSOEDV9J","A19CB2C4GY4C60","388CL5C1RJ9X03EZUESK4LKS9TSHL1","","<img src=""img/set1/S1.jpg"" width=""540"" height = ""360"" style=""border:16px solid orange"">","null","","","","","","","","","",""
"null","","html-keyboard-response","219","254446","0.0-219.0","3VNXK88KKD493M6418B03WGSOEDV9J","A19CB2C4GY4C60","388CL5C1RJ9X03EZUESK4LKS9TSHL1","","","null","","","","","","","","","",""
"871.8000000044703","","image-keyboard-response","220","255319","0.0-220.0","3VNXK88KKD493M6418B03WGSOEDV9J","A19CB2C4GY4C60","388CL5C1RJ9X03EZUESK4LKS9TSHL1","","img/set1/S3.jpg","72","3","structured_incentive","72","structured_incentive,random,structured_normal,structured_load","3,4,2,1,2,3","1,4,3,2","true","","",""
"null","","html-keyboard-response","221","255671","0.0-221.0","3VNXK88KKD493M6418B03WGSOEDV9J","A19CB2C4GY4C60","388CL5C1RJ9X03EZUESK4LKS9TSHL1","","<img src=""img/set1/S3.jpg"" width=""540"" height = ""360"" style=""border:16px solid orange"">","null","","","","","","","","","",""
"null","","html-keyboard-response","222","255873","0.0-222.0","3VNXK88KKD493M6418B03WGSOEDV9J","A19CB2C4GY4C60","388CL5C1RJ9X03EZUESK4LKS9TSHL1","","","null","","","","","","","","","",""
"844.5","","image-keyboard-response","223","256719","0.0-223.0","3VNXK88KKD493M6418B03WGSOEDV9J","A19CB2C4GY4C60","388CL5C1RJ9X03EZUESK4LKS9TSHL1","","img/set1/S4.jpg","68","4","structured_incentive","74","structured_incentive,random,structured_normal,structured_load","3,4,2,1,2,3","1,4,3,2","false","","",""
"null","","html-keyboard-response","224","257072","0.0-224.0","3VNXK88KKD493M6418B03WGSOEDV9J","A19CB2C4GY4C60","388CL5C1RJ9X03EZUESK4LKS9TSHL1","","<img src=""img/set1/S4.jpg"" width=""540"" height = ""360"">","null","","","","","","","","","",""
"null","","html-keyboard-response","225","257274","0.0-225.0","3VNXK88KKD493M6418B03WGSOEDV9J","A19CB2C4GY4C60","388CL5C1RJ9X03EZUESK4LKS9TSHL1","","","null","","","","","","","","","",""
"603.5","","image-keyboard-response","226","257879","0.0-226.0","3VNXK88KKD493M6418B03WGSOEDV9J","A19CB2C4GY4C60","388CL5C1RJ9X03EZUESK4LKS9TSHL1","","img/set1/S3.jpg","72","3","structured_incentive","72","structured_incentive,random,structured_normal,structured_load","3,4,2,1,2,3","1,4,3,2","true","","",""
"null","","html-keyboard-response","227","258231","0.0-227.0","3VNXK88KKD493M6418B03WGSOEDV9J","A19CB2C4GY4C60","388CL5C1RJ9X03EZUESK4LKS9TSHL1","","<img src=""img/set1/S3.jpg"" width=""540"" height = ""360"" style=""border:16px solid orange"">","null","","","","","","","","","",""
"null","","html-keyboard-response","228","258433","0.0-228.0","3VNXK88KKD493M6418B03WGSOEDV9J","A19CB2C4GY4C60","388CL5C1RJ9X03EZUESK4LKS9TSHL1","","","null","","","","","","","","","",""
"419.80000000447035","","image-keyboard-response","229","258854","0.0-229.0","3VNXK88KKD493M6418B03WGSOEDV9J","A19CB2C4GY4C60","388CL5C1RJ9X03EZUESK4LKS9TSHL1","","img/set1/S4.jpg","74","4","structured_incentive","74","structured_incentive,random,structured_normal,structured_load","3,4,2,1,2,3","1,4,3,2","true","","",""
"null","","html-keyboard-response","230","259206","0.0-230.0","3VNXK88KKD493M6418B03WGSOEDV9J","A19CB2C4GY4C60","388CL5C1RJ9X03EZUESK4LKS9TSHL1","","<img src=""img/set1/S4.jpg"" width=""540"" height = ""360"" style=""border:16px solid Violet"">","null","","","","","","","","","",""
"null","","html-keyboard-response","231","259408","0.0-231.0","3VNXK88KKD493M6418B03WGSOEDV9J","A19CB2C4GY4C60","388CL5C1RJ9X03EZUESK4LKS9TSHL1","","","null","","","","","","","","","",""
"504.8999999985099","","image-keyboard-response","232","259914","0.0-232.0","3VNXK88KKD493M6418B03WGSOEDV9J","A19CB2C4GY4C60","388CL5C1RJ9X03EZUESK4LKS9TSHL1","","img/set1/S3.jpg","72","3","structured_incentive","72","structured_incentive,random,structured_normal,structured_load","3,4,2,1,2,3","1,4,3,2","true","","",""
"null","","html-keyboard-response","233","260266","0.0-233.0","3VNXK88KKD493M6418B03WGSOEDV9J","A19CB2C4GY4C60","388CL5C1RJ9X03EZUESK4LKS9TSHL1","","<img src=""img/set1/S3.jpg"" width=""540"" height = ""360"" style=""border:16px solid orange"">","null","","","","","","","","","",""
"null","","html-keyboard-response","234","260468","0.0-234.0","3VNXK88KKD493M6418B03WGSOEDV9J","A19CB2C4GY4C60","388CL5C1RJ9X03EZUESK4LKS9TSHL1","","","null","","","","","","","","","",""
"391.40000000596046","","image-keyboard-response","235","260860","0.0-235.0","3VNXK88KKD493M6418B03WGSOEDV9J","A19CB2C4GY4C60","388CL5C1RJ9X03EZUESK4LKS9TSHL1","","img/set1/S4.jpg","74","4","structured_incentive","74","structured_incentive,random,structured_normal,structured_load","3,4,2,1,2,3","1,4,3,2","true","","",""
"null","","html-keyboard-response","236","261212","0.0-236.0","3VNXK88KKD493M6418B03WGSOEDV9J","A19CB2C4GY4C60","388CL5C1RJ9X03EZUESK4LKS9TSHL1","","<img src=""img/set1/S4.jpg"" width=""540"" height = ""360"" style=""border:16px solid Violet"">","null","","","","","","","","","",""
"null","","html-keyboard-response","237","261414","0.0-237.0","3VNXK88KKD493M6418B03WGSOEDV9J","A19CB2C4GY4C60","388CL5C1RJ9X03EZUESK4LKS9TSHL1","","","null","","","","","","","","","",""
"540.0999999940395","","image-keyboard-response","238","261955","0.0-238.0","3VNXK88KKD493M6418B03WGSOEDV9J","A19CB2C4GY4C60","388CL5C1RJ9X03EZUESK4LKS9TSHL1","","img/set1/S3.jpg","72","3","structured_incentive","72","structured_incentive,random,structured_normal,structured_load","3,4,2,1,2,3","1,4,3,2","true","","",""
"null","","html-keyboard-response","239","262308","0.0-239.0","3VNXK88KKD493M6418B03WGSOEDV9J","A19CB2C4GY4C60","388CL5C1RJ9X03EZUESK4LKS9TSHL1","","<img src=""img/set1/S3.jpg"" width=""540"" height = ""360"" style=""border:16px solid orange"">","null","","","","","","","","","",""
"null","","html-keyboard-response","240","262509","0.0-240.0","3VNXK88KKD493M6418B03WGSOEDV9J","A19CB2C4GY4C60","388CL5C1RJ9X03EZUESK4LKS9TSHL1","","","null","","","","","","","","","",""
"360.20000000298023","","image-keyboard-response","241","262870","0.0-241.0","3VNXK88KKD493M6418B03WGSOEDV9J","A19CB2C4GY4C60","388CL5C1RJ9X03EZUESK4LKS9TSHL1","","img/set1/S4.jpg","74","4","structured_incentive","74","structured_incentive,random,structured_normal,structured_load","3,4,2,1,2,3","1,4,3,2","true","","",""
"null","","html-keyboard-response","242","263223","0.0-242.0","3VNXK88KKD493M6418B03WGSOEDV9J","A19CB2C4GY4C60","388CL5C1RJ9X03EZUESK4LKS9TSHL1","","<img src=""img/set1/S4.jpg"" width=""540"" height = ""360"" style=""border:16px solid Violet"">","null","","","","","","","","","",""
"null","","html-keyboard-response","243","263425","0.0-243.0","3VNXK88KKD493M6418B03WGSOEDV9J","A19CB2C4GY4C60","388CL5C1RJ9X03EZUESK4LKS9TSHL1","","","null","","","","","","","","","",""
"759.6000000014901","","image-keyboard-response","244","264185","0.0-244.0","3VNXK88KKD493M6418B03WGSOEDV9J","A19CB2C4GY4C60","388CL5C1RJ9X03EZUESK4LKS9TSHL1","","img/set1/S2.jpg","68","2","structured_incentive","68","structured_incentive,random,structured_normal,structured_load","3,4,2,1,2,3","1,4,3,2","true","","",""
"null","","html-keyboard-response","245","264538","0.0-245.0","3VNXK88KKD493M6418B03WGSOEDV9J","A19CB2C4GY4C60","388CL5C1RJ9X03EZUESK4LKS9TSHL1","","<img src=""img/set1/S2.jpg"" width=""540"" height = ""360"" style=""border:16px solid orange"">","null","","","","","","","","","",""
"null","","html-keyboard-response","246","264740","0.0-246.0","3VNXK88KKD493M6418B03WGSOEDV9J","A19CB2C4GY4C60","388CL5C1RJ9X03EZUESK4LKS9TSHL1","","","null","","","","","","","","","",""
"613.1999999955297","","image-keyboard-response","247","265354","0.0-247.0","3VNXK88KKD493M6418B03WGSOEDV9J","A19CB2C4GY4C60","388CL5C1RJ9X03EZUESK4LKS9TSHL1","","img/set1/S3.jpg","72","3","structured_incentive","72","structured_incentive,random,structured_normal,structured_load","3,4,2,1,2,3","1,4,3,2","true","","",""
"null","","html-keyboard-response","248","265709","0.0-248.0","3VNXK88KKD493M6418B03WGSOEDV9J","A19CB2C4GY4C60","388CL5C1RJ9X03EZUESK4LKS9TSHL1","","<img src=""img/set1/S3.jpg"" width=""540"" height = ""360"" style=""border:16px solid orange"">","null","","","","","","","","","",""
"null","","html-keyboard-response","249","265910","0.0-249.0","3VNXK88KKD493M6418B03WGSOEDV9J","A19CB2C4GY4C60","388CL5C1RJ9X03EZUESK4LKS9TSHL1","","","null","","","","","","","","","",""
"644.8999999985099","","image-keyboard-response","250","266556","0.0-250.0","3VNXK88KKD493M6418B03WGSOEDV9J","A19CB2C4GY4C60","388CL5C1RJ9X03EZUESK4LKS9TSHL1","","img/set1/S4.jpg","74","4","structured_incentive","74","structured_incentive,random,structured_normal,structured_load","3,4,2,1,2,3","1,4,3,2","true","","",""
"null","","html-keyboard-response","251","266908","0.0-251.0","3VNXK88KKD493M6418B03WGSOEDV9J","A19CB2C4GY4C60","388CL5C1RJ9X03EZUESK4LKS9TSHL1","","<img src=""img/set1/S4.jpg"" width=""540"" height = ""360"" style=""border:16px solid Violet"">","null","","","","","","","","","",""
"null","","html-keyboard-response","252","267109","0.0-252.0","3VNXK88KKD493M6418B03WGSOEDV9J","A19CB2C4GY4C60","388CL5C1RJ9X03EZUESK4LKS9TSHL1","","","null","","","","","","","","","",""
"711.6000000014901","","image-keyboard-response","253","267822","0.0-253.0","3VNXK88KKD493M6418B03WGSOEDV9J","A19CB2C4GY4C60","388CL5C1RJ9X03EZUESK4LKS9TSHL1","","img/set1/S2.jpg","74","2","structured_incentive","68","structured_incentive,random,structured_normal,structured_load","3,4,2,1,2,3","1,4,3,2","false","","",""
"null","","html-keyboard-response","254","268174","0.0-254.0","3VNXK88KKD493M6418B03WGSOEDV9J","A19CB2C4GY4C60","388CL5C1RJ9X03EZUESK4LKS9TSHL1","","<img src=""img/set1/S2.jpg"" width=""540"" height = ""360"">","null","","","","","","","","","",""
"null","","html-keyboard-response","255","268376","0.0-255.0","3VNXK88KKD493M6418B03WGSOEDV9J","A19CB2C4GY4C60","388CL5C1RJ9X03EZUESK4LKS9TSHL1","","","null","","","","","","","","","",""
"1125.3999999985099","","image-keyboard-response","256","269503","0.0-256.0","3VNXK88KKD493M6418B03WGSOEDV9J","A19CB2C4GY4C60","388CL5C1RJ9X03EZUESK4LKS9TSHL1","","img/set1/S1.jpg","83","1","structured_incentive","83","structured_incentive,random,structured_normal,structured_load","3,4,2,1,2,3","1,4,3,2","true","","",""
"null","","html-keyboard-response","257","269855","0.0-257.0","3VNXK88KKD493M6418B03WGSOEDV9J","A19CB2C4GY4C60","388CL5C1RJ9X03EZUESK4LKS9TSHL1","","<img src=""img/set1/S1.jpg"" width=""540"" height = ""360"" style=""border:16px solid orange"">","null","","","","","","","","","",""
"null","","html-keyboard-response","258","270058","0.0-258.0","3VNXK88KKD493M6418B03WGSOEDV9J","A19CB2C4GY4C60","388CL5C1RJ9X03EZUESK4LKS9TSHL1","","","null","","","","","","","","","",""
"562.9000000059605","","image-keyboard-response","259","270622","0.0-259.0","3VNXK88KKD493M6418B03WGSOEDV9J","A19CB2C4GY4C60","388CL5C1RJ9X03EZUESK4LKS9TSHL1","","img/set1/S1.jpg","83","1","structured_incentive","83","structured_incentive,random,structured_normal,structured_load","3,4,2,1,2,3","1,4,3,2","true","","",""
"null","","html-keyboard-response","260","270973","0.0-260.0","3VNXK88KKD493M6418B03WGSOEDV9J","A19CB2C4GY4C60","388CL5C1RJ9X03EZUESK4LKS9TSHL1","","<img src=""img/set1/S1.jpg"" width=""540"" height = ""360"" style=""border:16px solid orange"">","null","","","","","","","","","",""
"null","","html-keyboard-response","261","271174","0.0-261.0","3VNXK88KKD493M6418B03WGSOEDV9J","A19CB2C4GY4C60","388CL5C1RJ9X03EZUESK4LKS9TSHL1","","","null","","","","","","","","","",""
"945.3999999985099","","image-keyboard-response","262","272121","0.0-262.0","3VNXK88KKD493M6418B03WGSOEDV9J","A19CB2C4GY4C60","388CL5C1RJ9X03EZUESK4LKS9TSHL1","","img/set1/S2.jpg","74","2","structured_incentive","68","structured_incentive,random,structured_normal,structured_load","3,4,2,1,2,3","1,4,3,2","false","","",""
"null","","html-keyboard-response","263","272473","0.0-263.0","3VNXK88KKD493M6418B03WGSOEDV9J","A19CB2C4GY4C60","388CL5C1RJ9X03EZUESK4LKS9TSHL1","","<img src=""img/set1/S2.jpg"" width=""540"" height = ""360"">","null","","","","","","","","","",""
"null","","html-keyboard-response","264","272674","0.0-264.0","3VNXK88KKD493M6418B03WGSOEDV9J","A19CB2C4GY4C60","388CL5C1RJ9X03EZUESK4LKS9TSHL1","","","null","","","","","","","","","",""
"665.3000000044703","","image-keyboard-response","265","273341","0.0-265.0","3VNXK88KKD493M6418B03WGSOEDV9J","A19CB2C4GY4C60","388CL5C1RJ9X03EZUESK4LKS9TSHL1","","img/set1/S1.jpg","83","1","structured_incentive","83","structured_incentive,random,structured_normal,structured_load","3,4,2,1,2,3","1,4,3,2","true","","",""
"null","","html-keyboard-response","266","273692","0.0-266.0","3VNXK88KKD493M6418B03WGSOEDV9J","A19CB2C4GY4C60","388CL5C1RJ9X03EZUESK4LKS9TSHL1","","<img src=""img/set1/S1.jpg"" width=""540"" height = ""360"" style=""border:16px solid orange"">","null","","","","","","","","","",""
"null","","html-keyboard-response","267","273894","0.0-267.0","3VNXK88KKD493M6418B03WGSOEDV9J","A19CB2C4GY4C60","388CL5C1RJ9X03EZUESK4LKS9TSHL1","","","null","","","","","","","","","",""
"364.3999999985099","","image-keyboard-response","268","274259","0.0-268.0","3VNXK88KKD493M6418B03WGSOEDV9J","A19CB2C4GY4C60","388CL5C1RJ9X03EZUESK4LKS9TSHL1","","img/set1/S2.jpg","68","2","structured_incentive","68","structured_incentive,random,structured_normal,structured_load","3,4,2,1,2,3","1,4,3,2","true","","",""
"null","","html-keyboard-response","269","274611","0.0-269.0","3VNXK88KKD493M6418B03WGSOEDV9J","A19CB2C4GY4C60","388CL5C1RJ9X03EZUESK4LKS9TSHL1","","<img src=""img/set1/S2.jpg"" width=""540"" height = ""360"" style=""border:16px solid orange"">","null","","","","","","","","","",""
"null","","html-keyboard-response","270","274813","0.0-270.0","3VNXK88KKD493M6418B03WGSOEDV9J","A19CB2C4GY4C60","388CL5C1RJ9X03EZUESK4LKS9TSHL1","","","null","","","","","","","","","",""
"569","","image-keyboard-response","271","275383","0.0-271.0","3VNXK88KKD493M6418B03WGSOEDV9J","A19CB2C4GY4C60","388CL5C1RJ9X03EZUESK4LKS9TSHL1","","img/set1/S3.jpg","72","3","structured_incentive","72","structured_incentive,random,structured_normal,structured_load","3,4,2,1,2,3","1,4,3,2","true","","",""
"null","","html-keyboard-response","272","275735","0.0-272.0","3VNXK88KKD493M6418B03WGSOEDV9J","A19CB2C4GY4C60","388CL5C1RJ9X03EZUESK4LKS9TSHL1","","<img src=""img/set1/S3.jpg"" width=""540"" height = ""360"" style=""border:16px solid orange"">","null","","","","","","","","","",""
"null","","html-keyboard-response","273","275950","0.0-273.0","3VNXK88KKD493M6418B03WGSOEDV9J","A19CB2C4GY4C60","388CL5C1RJ9X03EZUESK4LKS9TSHL1","","","null","","","","","","","","","",""
"491.09999999403954","","image-keyboard-response","274","276443","0.0-274.0","3VNXK88KKD493M6418B03WGSOEDV9J","A19CB2C4GY4C60","388CL5C1RJ9X03EZUESK4LKS9TSHL1","","img/set1/S4.jpg","74","4","structured_incentive","74","structured_incentive,random,structured_normal,structured_load","3,4,2,1,2,3","1,4,3,2","true","","",""
"null","","html-keyboard-response","275","276795","0.0-275.0","3VNXK88KKD493M6418B03WGSOEDV9J","A19CB2C4GY4C60","388CL5C1RJ9X03EZUESK4LKS9TSHL1","","<img src=""img/set1/S4.jpg"" width=""540"" height = ""360"" style=""border:16px solid Violet"">","null","","","","","","","","","",""
"null","","html-keyboard-response","276","277004","0.0-276.0","3VNXK88KKD493M6418B03WGSOEDV9J","A19CB2C4GY4C60","388CL5C1RJ9X03EZUESK4LKS9TSHL1","","","null","","","","","","","","","",""
"622.1999999955297","","image-keyboard-response","277","277628","0.0-277.0","3VNXK88KKD493M6418B03WGSOEDV9J","A19CB2C4GY4C60","388CL5C1RJ9X03EZUESK4LKS9TSHL1","","img/set1/S3.jpg","72","3","structured_incentive","72","structured_incentive,random,structured_normal,structured_load","3,4,2,1,2,3","1,4,3,2","true","","",""
"null","","html-keyboard-response","278","277980","0.0-278.0","3VNXK88KKD493M6418B03WGSOEDV9J","A19CB2C4GY4C60","388CL5C1RJ9X03EZUESK4LKS9TSHL1","","<img src=""img/set1/S3.jpg"" width=""540"" height = ""360"" style=""border:16px solid orange"">","null","","","","","","","","","",""
"null","","html-keyboard-response","279","278182","0.0-279.0","3VNXK88KKD493M6418B03WGSOEDV9J","A19CB2C4GY4C60","388CL5C1RJ9X03EZUESK4LKS9TSHL1","","","null","","","","","","","","","",""
"592.8000000044703","","image-keyboard-response","280","278776","0.0-280.0","3VNXK88KKD493M6418B03WGSOEDV9J","A19CB2C4GY4C60","388CL5C1RJ9X03EZUESK4LKS9TSHL1","","img/set1/S4.jpg","74","4","structured_incentive","74","structured_incentive,random,structured_normal,structured_load","3,4,2,1,2,3","1,4,3,2","true","","",""
"null","","html-keyboard-response","281","279128","0.0-281.0","3VNXK88KKD493M6418B03WGSOEDV9J","A19CB2C4GY4C60","388CL5C1RJ9X03EZUESK4LKS9TSHL1","","<img src=""img/set1/S4.jpg"" width=""540"" height = ""360"" style=""border:16px solid Violet"">","null","","","","","","","","","",""
"null","","html-keyboard-response","282","279329","0.0-282.0","3VNXK88KKD493M6418B03WGSOEDV9J","A19CB2C4GY4C60","388CL5C1RJ9X03EZUESK4LKS9TSHL1","","","null","","","","","","","","","",""
"596.3999999985099","","image-keyboard-response","283","279926","0.0-283.0","3VNXK88KKD493M6418B03WGSOEDV9J","A19CB2C4GY4C60","388CL5C1RJ9X03EZUESK4LKS9TSHL1","","img/set1/S2.jpg","68","2","structured_incentive","68","structured_incentive,random,structured_normal,structured_load","3,4,2,1,2,3","1,4,3,2","true","","",""
"null","","html-keyboard-response","284","280281","0.0-284.0","3VNXK88KKD493M6418B03WGSOEDV9J","A19CB2C4GY4C60","388CL5C1RJ9X03EZUESK4LKS9TSHL1","","<img src=""img/set1/S2.jpg"" width=""540"" height = ""360"" style=""border:16px solid orange"">","null","","","","","","","","","",""
"null","","html-keyboard-response","285","280492","0.0-285.0","3VNXK88KKD493M6418B03WGSOEDV9J","A19CB2C4GY4C60","388CL5C1RJ9X03EZUESK4LKS9TSHL1","","","null","","","","","","","","","",""
"462.80000000447035","","image-keyboard-response","286","280956","0.0-286.0","3VNXK88KKD493M6418B03WGSOEDV9J","A19CB2C4GY4C60","388CL5C1RJ9X03EZUESK4LKS9TSHL1","","img/set1/S3.jpg","72","3","structured_incentive","72","structured_incentive,random,structured_normal,structured_load","3,4,2,1,2,3","1,4,3,2","true","","",""
"null","","html-keyboard-response","287","281313","0.0-287.0","3VNXK88KKD493M6418B03WGSOEDV9J","A19CB2C4GY4C60","388CL5C1RJ9X03EZUESK4LKS9TSHL1","","<img src=""img/set1/S3.jpg"" width=""540"" height = ""360"" style=""border:16px solid orange"">","null","","","","","","","","","",""
"null","","html-keyboard-response","288","281514","0.0-288.0","3VNXK88KKD493M6418B03WGSOEDV9J","A19CB2C4GY4C60","388CL5C1RJ9X03EZUESK4LKS9TSHL1","","","null","","","","","","","","","",""
"526.1000000014901","","image-keyboard-response","289","282041","0.0-289.0","3VNXK88KKD493M6418B03WGSOEDV9J","A19CB2C4GY4C60","388CL5C1RJ9X03EZUESK4LKS9TSHL1","","img/set1/S4.jpg","74","4","structured_incentive","74","structured_incentive,random,structured_normal,structured_load","3,4,2,1,2,3","1,4,3,2","true","","",""
"null","","html-keyboard-response","290","282394","0.0-290.0","3VNXK88KKD493M6418B03WGSOEDV9J","A19CB2C4GY4C60","388CL5C1RJ9X03EZUESK4LKS9TSHL1","","<img src=""img/set1/S4.jpg"" width=""540"" height = ""360"" style=""border:16px solid Violet"">","null","","","","","","","","","",""
"null","","html-keyboard-response","291","282596","0.0-291.0","3VNXK88KKD493M6418B03WGSOEDV9J","A19CB2C4GY4C60","388CL5C1RJ9X03EZUESK4LKS9TSHL1","","","null","","","","","","","","","",""
"551.6000000014901","","image-keyboard-response","292","283149","0.0-292.0","3VNXK88KKD493M6418B03WGSOEDV9J","A19CB2C4GY4C60","388CL5C1RJ9X03EZUESK4LKS9TSHL1","","img/set1/S2.jpg","74","2","structured_incentive","68","structured_incentive,random,structured_normal,structured_load","3,4,2,1,2,3","1,4,3,2","false","","",""
"null","","html-keyboard-response","293","283501","0.0-293.0","3VNXK88KKD493M6418B03WGSOEDV9J","A19CB2C4GY4C60","388CL5C1RJ9X03EZUESK4LKS9TSHL1","","<img src=""img/set1/S2.jpg"" width=""540"" height = ""360"">","null","","","","","","","","","",""
"null","","html-keyboard-response","294","283702","0.0-294.0","3VNXK88KKD493M6418B03WGSOEDV9J","A19CB2C4GY4C60","388CL5C1RJ9X03EZUESK4LKS9TSHL1","","","null","","","","","","","","","",""
"483.8999999985099","","image-keyboard-response","295","284187","0.0-295.0","3VNXK88KKD493M6418B03WGSOEDV9J","A19CB2C4GY4C60","388CL5C1RJ9X03EZUESK4LKS9TSHL1","","img/set1/S3.jpg","72","3","structured_incentive","72","structured_incentive,random,structured_normal,structured_load","3,4,2,1,2,3","1,4,3,2","true","","",""
"null","","html-keyboard-response","296","284540","0.0-296.0","3VNXK88KKD493M6418B03WGSOEDV9J","A19CB2C4GY4C60","388CL5C1RJ9X03EZUESK4LKS9TSHL1","","<img src=""img/set1/S3.jpg"" width=""540"" height = ""360"" style=""border:16px solid orange"">","null","","","","","","","","","",""
"null","","html-keyboard-response","297","284741","0.0-297.0","3VNXK88KKD493M6418B03WGSOEDV9J","A19CB2C4GY4C60","388CL5C1RJ9X03EZUESK4LKS9TSHL1","","","null","","","","","","","","","",""
"759.8999999985099","","image-keyboard-response","298","285502","0.0-298.0","3VNXK88KKD493M6418B03WGSOEDV9J","A19CB2C4GY4C60","388CL5C1RJ9X03EZUESK4LKS9TSHL1","","img/set1/S4.jpg","68","4","structured_incentive","74","structured_incentive,random,structured_normal,structured_load","3,4,2,1,2,3","1,4,3,2","false","","",""
"null","","html-keyboard-response","299","285855","0.0-299.0","3VNXK88KKD493M6418B03WGSOEDV9J","A19CB2C4GY4C60","388CL5C1RJ9X03EZUESK4LKS9TSHL1","","<img src=""img/set1/S4.jpg"" width=""540"" height = ""360"">","null","","","","","","","","","",""
"null","","html-keyboard-response","300","286056","0.0-300.0","3VNXK88KKD493M6418B03WGSOEDV9J","A19CB2C4GY4C60","388CL5C1RJ9X03EZUESK4LKS9TSHL1","","","null","","","","","","","","","",""
"695.5","","image-keyboard-response","301","286752","0.0-301.0","3VNXK88KKD493M6418B03WGSOEDV9J","A19CB2C4GY4C60","388CL5C1RJ9X03EZUESK4LKS9TSHL1","","img/set1/S1.jpg","83","1","structured_incentive","83","structured_incentive,random,structured_normal,structured_load","3,4,2,1,2,3","1,4,3,2","true","","",""
"null","","html-keyboard-response","302","287104","0.0-302.0","3VNXK88KKD493M6418B03WGSOEDV9J","A19CB2C4GY4C60","388CL5C1RJ9X03EZUESK4LKS9TSHL1","","<img src=""img/set1/S1.jpg"" width=""540"" height = ""360"" style=""border:16px solid orange"">","null","","","","","","","","","",""
"null","","html-keyboard-response","303","287306","0.0-303.0","3VNXK88KKD493M6418B03WGSOEDV9J","A19CB2C4GY4C60","388CL5C1RJ9X03EZUESK4LKS9TSHL1","","","null","","","","","","","","","",""
"584.8000000044703","","image-keyboard-response","304","287892","0.0-304.0","3VNXK88KKD493M6418B03WGSOEDV9J","A19CB2C4GY4C60","388CL5C1RJ9X03EZUESK4LKS9TSHL1","","img/set1/S3.jpg","72","3","structured_incentive","72","structured_incentive,random,structured_normal,structured_load","3,4,2,1,2,3","1,4,3,2","true","","",""
"null","","html-keyboard-response","305","288243","0.0-305.0","3VNXK88KKD493M6418B03WGSOEDV9J","A19CB2C4GY4C60","388CL5C1RJ9X03EZUESK4LKS9TSHL1","","<img src=""img/set1/S3.jpg"" width=""540"" height = ""360"" style=""border:16px solid orange"">","null","","","","","","","","","",""
"null","","html-keyboard-response","306","288459","0.0-306.0","3VNXK88KKD493M6418B03WGSOEDV9J","A19CB2C4GY4C60","388CL5C1RJ9X03EZUESK4LKS9TSHL1","","","null","","","","","","","","","",""
"556.1000000014901","","image-keyboard-response","307","289016","0.0-307.0","3VNXK88KKD493M6418B03WGSOEDV9J","A19CB2C4GY4C60","388CL5C1RJ9X03EZUESK4LKS9TSHL1","","img/set1/S4.jpg","74","4","structured_incentive","74","structured_incentive,random,structured_normal,structured_load","3,4,2,1,2,3","1,4,3,2","true","","",""
"null","","html-keyboard-response","308","289368","0.0-308.0","3VNXK88KKD493M6418B03WGSOEDV9J","A19CB2C4GY4C60","388CL5C1RJ9X03EZUESK4LKS9TSHL1","","<img src=""img/set1/S4.jpg"" width=""540"" height = ""360"" style=""border:16px solid Violet"">","null","","","","","","","","","",""
"null","","html-keyboard-response","309","289569","0.0-309.0","3VNXK88KKD493M6418B03WGSOEDV9J","A19CB2C4GY4C60","388CL5C1RJ9X03EZUESK4LKS9TSHL1","","","null","","","","","","","","","",""
"579.6000000014901","","image-keyboard-response","310","290150","0.0-310.0","3VNXK88KKD493M6418B03WGSOEDV9J","A19CB2C4GY4C60","388CL5C1RJ9X03EZUESK4LKS9TSHL1","","img/set1/S1.jpg","83","1","structured_incentive","83","structured_incentive,random,structured_normal,structured_load","3,4,2,1,2,3","1,4,3,2","true","","",""
"null","","html-keyboard-response","311","290503","0.0-311.0","3VNXK88KKD493M6418B03WGSOEDV9J","A19CB2C4GY4C60","388CL5C1RJ9X03EZUESK4LKS9TSHL1","","<img src=""img/set1/S1.jpg"" width=""540"" height = ""360"" style=""border:16px solid orange"">","null","","","","","","","","","",""
"null","","html-keyboard-response","312","290704","0.0-312.0","3VNXK88KKD493M6418B03WGSOEDV9J","A19CB2C4GY4C60","388CL5C1RJ9X03EZUESK4LKS9TSHL1","","","null","","","","","","","","","",""
"711.8999999985099","","image-keyboard-response","313","291417","0.0-313.0","3VNXK88KKD493M6418B03WGSOEDV9J","A19CB2C4GY4C60","388CL5C1RJ9X03EZUESK4LKS9TSHL1","","img/set1/S3.jpg","74","3","structured_incentive","72","structured_incentive,random,structured_normal,structured_load","3,4,2,1,2,3","1,4,3,2","false","","",""
"null","","html-keyboard-response","314","291768","0.0-314.0","3VNXK88KKD493M6418B03WGSOEDV9J","A19CB2C4GY4C60","388CL5C1RJ9X03EZUESK4LKS9TSHL1","","<img src=""img/set1/S3.jpg"" width=""540"" height = ""360"">","null","","","","","","","","","",""
"null","","html-keyboard-response","315","291969","0.0-315.0","3VNXK88KKD493M6418B03WGSOEDV9J","A19CB2C4GY4C60","388CL5C1RJ9X03EZUESK4LKS9TSHL1","","","null","","","","","","","","","",""
"786.6000000014901","","image-keyboard-response","316","292757","0.0-316.0","3VNXK88KKD493M6418B03WGSOEDV9J","A19CB2C4GY4C60","388CL5C1RJ9X03EZUESK4LKS9TSHL1","","img/set1/S4.jpg","74","4","structured_incentive","74","structured_incentive,random,structured_normal,structured_load","3,4,2,1,2,3","1,4,3,2","true","","",""
"null","","html-keyboard-response","317","293109","0.0-317.0","3VNXK88KKD493M6418B03WGSOEDV9J","A19CB2C4GY4C60","388CL5C1RJ9X03EZUESK4LKS9TSHL1","","<img src=""img/set1/S4.jpg"" width=""540"" height = ""360"" style=""border:16px solid Violet"">","null","","","","","","","","","",""
"null","","html-keyboard-response","318","293311","0.0-318.0","3VNXK88KKD493M6418B03WGSOEDV9J","A19CB2C4GY4C60","388CL5C1RJ9X03EZUESK4LKS9TSHL1","","","null","","","","","","","","","",""
"654.7999999970198","","image-keyboard-response","319","293966","0.0-319.0","3VNXK88KKD493M6418B03WGSOEDV9J","A19CB2C4GY4C60","388CL5C1RJ9X03EZUESK4LKS9TSHL1","","img/set1/S3.jpg","72","3","structured_incentive","72","structured_incentive,random,structured_normal,structured_load","3,4,2,1,2,3","1,4,3,2","true","","",""
"null","","html-keyboard-response","320","294319","0.0-320.0","3VNXK88KKD493M6418B03WGSOEDV9J","A19CB2C4GY4C60","388CL5C1RJ9X03EZUESK4LKS9TSHL1","","<img src=""img/set1/S3.jpg"" width=""540"" height = ""360"" style=""border:16px solid orange"">","null","","","","","","","","","",""
"null","","html-keyboard-response","321","294521","0.0-321.0","3VNXK88KKD493M6418B03WGSOEDV9J","A19CB2C4GY4C60","388CL5C1RJ9X03EZUESK4LKS9TSHL1","","","null","","","","","","","","","",""
"549.5","","image-keyboard-response","322","295072","0.0-322.0","3VNXK88KKD493M6418B03WGSOEDV9J","A19CB2C4GY4C60","388CL5C1RJ9X03EZUESK4LKS9TSHL1","","img/set1/S4.jpg","74","4","structured_incentive","74","structured_incentive,random,structured_normal,structured_load","3,4,2,1,2,3","1,4,3,2","true","","",""
"null","","html-keyboard-response","323","295425","0.0-323.0","3VNXK88KKD493M6418B03WGSOEDV9J","A19CB2C4GY4C60","388CL5C1RJ9X03EZUESK4LKS9TSHL1","","<img src=""img/set1/S4.jpg"" width=""540"" height = ""360"" style=""border:16px solid Violet"">","null","","","","","","","","","",""
"null","","html-keyboard-response","324","295626","0.0-324.0","3VNXK88KKD493M6418B03WGSOEDV9J","A19CB2C4GY4C60","388CL5C1RJ9X03EZUESK4LKS9TSHL1","","","null","","","","","","","","","",""
"610.1999999955297","","image-keyboard-response","325","296237","0.0-325.0","3VNXK88KKD493M6418B03WGSOEDV9J","A19CB2C4GY4C60","388CL5C1RJ9X03EZUESK4LKS9TSHL1","","img/set1/S1.jpg","83","1","structured_incentive","83","structured_incentive,random,structured_normal,structured_load","3,4,2,1,2,3","1,4,3,2","true","","",""
"null","","html-keyboard-response","326","296589","0.0-326.0","3VNXK88KKD493M6418B03WGSOEDV9J","A19CB2C4GY4C60","388CL5C1RJ9X03EZUESK4LKS9TSHL1","","<img src=""img/set1/S1.jpg"" width=""540"" height = ""360"" style=""border:16px solid orange"">","null","","","","","","","","","",""
"null","","html-keyboard-response","327","296790","0.0-327.0","3VNXK88KKD493M6418B03WGSOEDV9J","A19CB2C4GY4C60","388CL5C1RJ9X03EZUESK4LKS9TSHL1","","","null","","","","","","","","","",""
"760.5","","image-keyboard-response","328","297552","0.0-328.0","3VNXK88KKD493M6418B03WGSOEDV9J","A19CB2C4GY4C60","388CL5C1RJ9X03EZUESK4LKS9TSHL1","","img/set1/S2.jpg","68","2","structured_incentive","68","structured_incentive,random,structured_normal,structured_load","3,4,2,1,2,3","1,4,3,2","true","","",""
"null","","html-keyboard-response","329","297904","0.0-329.0","3VNXK88KKD493M6418B03WGSOEDV9J","A19CB2C4GY4C60","388CL5C1RJ9X03EZUESK4LKS9TSHL1","","<img src=""img/set1/S2.jpg"" width=""540"" height = ""360"" style=""border:16px solid orange"">","null","","","","","","","","","",""
"null","","html-keyboard-response","330","298106","0.0-330.0","3VNXK88KKD493M6418B03WGSOEDV9J","A19CB2C4GY4C60","388CL5C1RJ9X03EZUESK4LKS9TSHL1","","","null","","","","","","","","","",""
"439","","image-keyboard-response","331","298546","0.0-331.0","3VNXK88KKD493M6418B03WGSOEDV9J","A19CB2C4GY4C60","388CL5C1RJ9X03EZUESK4LKS9TSHL1","","img/set1/S2.jpg","68","2","structured_incentive","68","structured_incentive,random,structured_normal,structured_load","3,4,2,1,2,3","1,4,3,2","true","","",""
"null","","html-keyboard-response","332","298898","0.0-332.0","3VNXK88KKD493M6418B03WGSOEDV9J","A19CB2C4GY4C60","388CL5C1RJ9X03EZUESK4LKS9TSHL1","","<img src=""img/set1/S2.jpg"" width=""540"" height = ""360"" style=""border:16px solid orange"">","null","","","","","","","","","",""
"null","","html-keyboard-response","333","299100","0.0-333.0","3VNXK88KKD493M6418B03WGSOEDV9J","A19CB2C4GY4C60","388CL5C1RJ9X03EZUESK4LKS9TSHL1","","","null","","","","","","","","","",""
"672.2000000029802","","image-keyboard-response","334","299773","0.0-334.0","3VNXK88KKD493M6418B03WGSOEDV9J","A19CB2C4GY4C60","388CL5C1RJ9X03EZUESK4LKS9TSHL1","","img/set1/S1.jpg","83","1","structured_incentive","83","structured_incentive,random,structured_normal,structured_load","3,4,2,1,2,3","1,4,3,2","true","","",""
"null","","html-keyboard-response","335","300127","0.0-335.0","3VNXK88KKD493M6418B03WGSOEDV9J","A19CB2C4GY4C60","388CL5C1RJ9X03EZUESK4LKS9TSHL1","","<img src=""img/set1/S1.jpg"" width=""540"" height = ""360"" style=""border:16px solid orange"">","null","","","","","","","","","",""
"null","","html-keyboard-response","336","300328","0.0-336.0","3VNXK88KKD493M6418B03WGSOEDV9J","A19CB2C4GY4C60","388CL5C1RJ9X03EZUESK4LKS9TSHL1","","","null","","","","","","","","","",""
"426.79999999701977","","image-keyboard-response","337","300756","0.0-337.0","3VNXK88KKD493M6418B03WGSOEDV9J","A19CB2C4GY4C60","388CL5C1RJ9X03EZUESK4LKS9TSHL1","","img/set1/S2.jpg","68","2","structured_incentive","68","structured_incentive,random,structured_normal,structured_load","3,4,2,1,2,3","1,4,3,2","true","","",""
"null","","html-keyboard-response","338","301108","0.0-338.0","3VNXK88KKD493M6418B03WGSOEDV9J","A19CB2C4GY4C60","388CL5C1RJ9X03EZUESK4LKS9TSHL1","","<img src=""img/set1/S2.jpg"" width=""540"" height = ""360"" style=""border:16px solid orange"">","null","","","","","","","","","",""
"null","","html-keyboard-response","339","301309","0.0-339.0","3VNXK88KKD493M6418B03WGSOEDV9J","A19CB2C4GY4C60","388CL5C1RJ9X03EZUESK4LKS9TSHL1","","","null","","","","","","","","","",""
"624.7999999970198","","image-keyboard-response","340","301935","0.0-340.0","3VNXK88KKD493M6418B03WGSOEDV9J","A19CB2C4GY4C60","388CL5C1RJ9X03EZUESK4LKS9TSHL1","","img/set1/S3.jpg","72","3","structured_incentive","72","structured_incentive,random,structured_normal,structured_load","3,4,2,1,2,3","1,4,3,2","true","","",""
"null","","html-keyboard-response","341","302286","0.0-341.0","3VNXK88KKD493M6418B03WGSOEDV9J","A19CB2C4GY4C60","388CL5C1RJ9X03EZUESK4LKS9TSHL1","","<img src=""img/set1/S3.jpg"" width=""540"" height = ""360"" style=""border:16px solid orange"">","null","","","","","","","","","",""
"null","","html-keyboard-response","342","302488","0.0-342.0","3VNXK88KKD493M6418B03WGSOEDV9J","A19CB2C4GY4C60","388CL5C1RJ9X03EZUESK4LKS9TSHL1","","","null","","","","","","","","","",""
"530.7999999970198","","image-keyboard-response","343","303019","0.0-343.0","3VNXK88KKD493M6418B03WGSOEDV9J","A19CB2C4GY4C60","388CL5C1RJ9X03EZUESK4LKS9TSHL1","","img/set1/S4.jpg","74","4","structured_incentive","74","structured_incentive,random,structured_normal,structured_load","3,4,2,1,2,3","1,4,3,2","true","","",""
"null","","html-keyboard-response","344","303372","0.0-344.0","3VNXK88KKD493M6418B03WGSOEDV9J","A19CB2C4GY4C60","388CL5C1RJ9X03EZUESK4LKS9TSHL1","","<img src=""img/set1/S4.jpg"" width=""540"" height = ""360"" style=""border:16px solid Violet"">","null","","","","","","","","","",""
"null","","html-keyboard-response","345","303574","0.0-345.0","3VNXK88KKD493M6418B03WGSOEDV9J","A19CB2C4GY4C60","388CL5C1RJ9X03EZUESK4LKS9TSHL1","","","null","","","","","","","","","",""
"508.6000000014901","","image-keyboard-response","346","304084","0.0-346.0","3VNXK88KKD493M6418B03WGSOEDV9J","A19CB2C4GY4C60","388CL5C1RJ9X03EZUESK4LKS9TSHL1","","img/set1/S1.jpg","83","1","structured_incentive","83","structured_incentive,random,structured_normal,structured_load","3,4,2,1,2,3","1,4,3,2","true","","",""
"null","","html-keyboard-response","347","304436","0.0-347.0","3VNXK88KKD493M6418B03WGSOEDV9J","A19CB2C4GY4C60","388CL5C1RJ9X03EZUESK4LKS9TSHL1","","<img src=""img/set1/S1.jpg"" width=""540"" height = ""360"" style=""border:16px solid orange"">","null","","","","","","","","","",""
"null","","html-keyboard-response","348","304639","0.0-348.0","3VNXK88KKD493M6418B03WGSOEDV9J","A19CB2C4GY4C60","388CL5C1RJ9X03EZUESK4LKS9TSHL1","","","null","","","","","","","","","",""
"356.1000000014901","","image-keyboard-response","349","304996","0.0-349.0","3VNXK88KKD493M6418B03WGSOEDV9J","A19CB2C4GY4C60","388CL5C1RJ9X03EZUESK4LKS9TSHL1","","img/set1/S3.jpg","83","3","structured_incentive","72","structured_incentive,random,structured_normal,structured_load","3,4,2,1,2,3","1,4,3,2","false","","",""
"null","","html-keyboard-response","350","305349","0.0-350.0","3VNXK88KKD493M6418B03WGSOEDV9J","A19CB2C4GY4C60","388CL5C1RJ9X03EZUESK4LKS9TSHL1","","<img src=""img/set1/S3.jpg"" width=""540"" height = ""360"">","null","","","","","","","","","",""
"null","","html-keyboard-response","351","305550","0.0-351.0","3VNXK88KKD493M6418B03WGSOEDV9J","A19CB2C4GY4C60","388CL5C1RJ9X03EZUESK4LKS9TSHL1","","","null","","","","","","","","","",""
"973.7000000029802","","image-keyboard-response","352","306525","0.0-352.0","3VNXK88KKD493M6418B03WGSOEDV9J","A19CB2C4GY4C60","388CL5C1RJ9X03EZUESK4LKS9TSHL1","","img/set1/S4.jpg","68","4","structured_incentive","74","structured_incentive,random,structured_normal,structured_load","3,4,2,1,2,3","1,4,3,2","false","","",""
"null","","html-keyboard-response","353","306877","0.0-353.0","3VNXK88KKD493M6418B03WGSOEDV9J","A19CB2C4GY4C60","388CL5C1RJ9X03EZUESK4LKS9TSHL1","","<img src=""img/set1/S4.jpg"" width=""540"" height = ""360"">","null","","","","","","","","","",""
"null","","html-keyboard-response","354","307078","0.0-354.0","3VNXK88KKD493M6418B03WGSOEDV9J","A19CB2C4GY4C60","388CL5C1RJ9X03EZUESK4LKS9TSHL1","","","null","","","","","","","","","",""
"572.3999999985099","","image-keyboard-response","355","307652","0.0-355.0","3VNXK88KKD493M6418B03WGSOEDV9J","A19CB2C4GY4C60","388CL5C1RJ9X03EZUESK4LKS9TSHL1","","img/set1/S2.jpg","68","2","structured_incentive","68","structured_incentive,random,structured_normal,structured_load","3,4,2,1,2,3","1,4,3,2","true","","",""
"null","","html-keyboard-response","356","308005","0.0-356.0","3VNXK88KKD493M6418B03WGSOEDV9J","A19CB2C4GY4C60","388CL5C1RJ9X03EZUESK4LKS9TSHL1","","<img src=""img/set1/S2.jpg"" width=""540"" height = ""360"" style=""border:16px solid orange"">","null","","","","","","","","","",""
"null","","html-keyboard-response","357","308206","0.0-357.0","3VNXK88KKD493M6418B03WGSOEDV9J","A19CB2C4GY4C60","388CL5C1RJ9X03EZUESK4LKS9TSHL1","","","null","","","","","","","","","",""
"619.7999999970198","","image-keyboard-response","358","308827","0.0-358.0","3VNXK88KKD493M6418B03WGSOEDV9J","A19CB2C4GY4C60","388CL5C1RJ9X03EZUESK4LKS9TSHL1","","img/set1/S1.jpg","83","1","structured_incentive","83","structured_incentive,random,structured_normal,structured_load","3,4,2,1,2,3","1,4,3,2","true","","",""
"null","","html-keyboard-response","359","309179","0.0-359.0","3VNXK88KKD493M6418B03WGSOEDV9J","A19CB2C4GY4C60","388CL5C1RJ9X03EZUESK4LKS9TSHL1","","<img src=""img/set1/S1.jpg"" width=""540"" height = ""360"" style=""border:16px solid orange"">","null","","","","","","","","","",""
"null","","html-keyboard-response","360","309380","0.0-360.0","3VNXK88KKD493M6418B03WGSOEDV9J","A19CB2C4GY4C60","388CL5C1RJ9X03EZUESK4LKS9TSHL1","","","null","","","","","","","","","",""
"424.5","","image-keyboard-response","361","309806","0.0-361.0","3VNXK88KKD493M6418B03WGSOEDV9J","A19CB2C4GY4C60","388CL5C1RJ9X03EZUESK4LKS9TSHL1","","img/set1/S1.jpg","83","1","structured_incentive","83","structured_incentive,random,structured_normal,structured_load","3,4,2,1,2,3","1,4,3,2","true","","",""
"null","","html-keyboard-response","362","310158","0.0-362.0","3VNXK88KKD493M6418B03WGSOEDV9J","A19CB2C4GY4C60","388CL5C1RJ9X03EZUESK4LKS9TSHL1","","<img src=""img/set1/S1.jpg"" width=""540"" height = ""360"" style=""border:16px solid orange"">","null","","","","","","","","","",""
"null","","html-keyboard-response","363","310359","0.0-363.0","3VNXK88KKD493M6418B03WGSOEDV9J","A19CB2C4GY4C60","388CL5C1RJ9X03EZUESK4LKS9TSHL1","","","null","","","","","","","","","",""
"19060.70000000298","","html-keyboard-response","364","329420","0.0-364.0","3VNXK88KKD493M6418B03WGSOEDV9J","A19CB2C4GY4C60","388CL5C1RJ9X03EZUESK4LKS9TSHL1","","<p class=""center-content"">You have completed a block! </p><p class=""center-content"">Press any key on the keyboard to continue, </p><p class=""center-content"">or wait for the automatic progression to the next block after one minute.</p>","32","","","","","","","","","",""
"5381.79999999702","","instructions","365","334803","0.0-365.0","3VNXK88KKD493M6418B03WGSOEDV9J","A19CB2C4GY4C60","388CL5C1RJ9X03EZUESK4LKS9TSHL1","[{""page_index"":0,""viewing_time"":5381.5}]","","","","","","","","","","","",""
"4471.89999999851","","instructions","366","339276","0.0-366.0","3VNXK88KKD493M6418B03WGSOEDV9J","A19CB2C4GY4C60","388CL5C1RJ9X03EZUESK4LKS9TSHL1","[{""page_index"":0,""viewing_time"":4471.5}]","","","","","","","","","","","",""
"1130","","image-keyboard-response","367","340407","0.0-367.0","3VNXK88KKD493M6418B03WGSOEDV9J","A19CB2C4GY4C60","388CL5C1RJ9X03EZUESK4LKS9TSHL1","","img/set2/S3.jpg","74","3","random","72","structured_incentive,random,structured_normal,structured_load","3,4,2,1,2,3","1,4,3,2","false","","",""
"null","","html-keyboard-response","368","340759","0.0-368.0","3VNXK88KKD493M6418B03WGSOEDV9J","A19CB2C4GY4C60","388CL5C1RJ9X03EZUESK4LKS9TSHL1","","<img src=""img/set2/S3.jpg"" width=""540"" height = ""360"">","null","","","","","","","","","",""
"null","","html-keyboard-response","369","340961","0.0-369.0","3VNXK88KKD493M6418B03WGSOEDV9J","A19CB2C4GY4C60","388CL5C1RJ9X03EZUESK4LKS9TSHL1","","","null","","","","","","","","","",""
"716.8999999985099","","image-keyboard-response","370","341679","0.0-370.0","3VNXK88KKD493M6418B03WGSOEDV9J","A19CB2C4GY4C60","388CL5C1RJ9X03EZUESK4LKS9TSHL1","","img/set2/S3.jpg","68","3","random","72","structured_incentive,random,structured_normal,structured_load","3,4,2,1,2,3","1,4,3,2","false","","",""
"null","","html-keyboard-response","371","342030","0.0-371.0","3VNXK88KKD493M6418B03WGSOEDV9J","A19CB2C4GY4C60","388CL5C1RJ9X03EZUESK4LKS9TSHL1","","<img src=""img/set2/S3.jpg"" width=""540"" height = ""360"">","null","","","","","","","","","",""
"null","","html-keyboard-response","372","342232","0.0-372.0","3VNXK88KKD493M6418B03WGSOEDV9J","A19CB2C4GY4C60","388CL5C1RJ9X03EZUESK4LKS9TSHL1","","","null","","","","","","","","","",""
"563.3000000044703","","image-keyboard-response","373","342796","0.0-373.0","3VNXK88KKD493M6418B03WGSOEDV9J","A19CB2C4GY4C60","388CL5C1RJ9X03EZUESK4LKS9TSHL1","","img/set2/S3.jpg","72","3","random","72","structured_incentive,random,structured_normal,structured_load","3,4,2,1,2,3","1,4,3,2","true","","",""
"null","","html-keyboard-response","374","343149","0.0-374.0","3VNXK88KKD493M6418B03WGSOEDV9J","A19CB2C4GY4C60","388CL5C1RJ9X03EZUESK4LKS9TSHL1","","<img src=""img/set2/S3.jpg"" width=""540"" height = ""360"" style=""border:16px solid orange"">","null","","","","","","","","","",""
"null","","html-keyboard-response","375","343350","0.0-375.0","3VNXK88KKD493M6418B03WGSOEDV9J","A19CB2C4GY4C60","388CL5C1RJ9X03EZUESK4LKS9TSHL1","","","null","","","","","","","","","",""
"406.1000000014901","","image-keyboard-response","376","343757","0.0-376.0","3VNXK88KKD493M6418B03WGSOEDV9J","A19CB2C4GY4C60","388CL5C1RJ9X03EZUESK4LKS9TSHL1","","img/set2/S3.jpg","72","3","random","72","structured_incentive,random,structured_normal,structured_load","3,4,2,1,2,3","1,4,3,2","true","","",""
"null","","html-keyboard-response","377","344109","0.0-377.0","3VNXK88KKD493M6418B03WGSOEDV9J","A19CB2C4GY4C60","388CL5C1RJ9X03EZUESK4LKS9TSHL1","","<img src=""img/set2/S3.jpg"" width=""540"" height = ""360"" style=""border:16px solid orange"">","null","","","","","","","","","",""
"null","","html-keyboard-response","378","344311","0.0-378.0","3VNXK88KKD493M6418B03WGSOEDV9J","A19CB2C4GY4C60","388CL5C1RJ9X03EZUESK4LKS9TSHL1","","","null","","","","","","","","","",""
"1112","","image-keyboard-response","379","345424","0.0-379.0","3VNXK88KKD493M6418B03WGSOEDV9J","A19CB2C4GY4C60","388CL5C1RJ9X03EZUESK4LKS9TSHL1","","img/set2/S2.jpg","83","2","random","68","structured_incentive,random,structured_normal,structured_load","3,4,2,1,2,3","1,4,3,2","false","","",""
"null","","html-keyboard-response","380","345776","0.0-380.0","3VNXK88KKD493M6418B03WGSOEDV9J","A19CB2C4GY4C60","388CL5C1RJ9X03EZUESK4LKS9TSHL1","","<img src=""img/set2/S2.jpg"" width=""540"" height = ""360"">","null","","","","","","","","","",""
"null","","html-keyboard-response","381","345977","0.0-381.0","3VNXK88KKD493M6418B03WGSOEDV9J","A19CB2C4GY4C60","388CL5C1RJ9X03EZUESK4LKS9TSHL1","","","null","","","","","","","","","",""
"1049.3000000044703","","image-keyboard-response","382","347028","0.0-382.0","3VNXK88KKD493M6418B03WGSOEDV9J","A19CB2C4GY4C60","388CL5C1RJ9X03EZUESK4LKS9TSHL1","","img/set2/S4.jpg","83","4","random","74","structured_incentive,random,structured_normal,structured_load","3,4,2,1,2,3","1,4,3,2","false","","",""
