"rt","url","trial_type","trial_index","time_elapsed","internal_node_id","view_history","stimulus","key_press","state","test_part","correct_response","order_block","order_chunk","correct","responses","bonus"
"39526.80000001192","consent.html","external-html","0","39758","0.0-0.0","","","","","","","","","","",""
"199238.39999997616","","instructions","1","239003","0.0-1.0","[{""page_index"":0,""viewing_time"":10312},{""page_index"":1,""viewing_time"":29229.399999976158},{""page_index"":2,""viewing_time"":21415.600000023842},{""page_index"":3,""viewing_time"":47673.09999996424},{""page_index"":4,""viewing_time"":16308.699999988079},{""page_index"":5,""viewing_time"":23815.900000035763},{""page_index"":6,""viewing_time"":50481.5}]","","","","","","","","","",""
"27127.099999964237","","instructions","2","266133","0.0-2.0","[{""page_index"":0,""viewing_time"":27125.69999998808}]","","","","","","","","","",""
"14734.300000011921","","instructions","3","280872","0.0-3.0","[{""page_index"":0,""viewing_time"":14733.200000047684}]","","","","","","","","","",""
"null","","image-keyboard-response","4","283380","0.0-4.0","","img/set1/S1.jpg","null","1","random","83","random,structured_load,structured_normal,structured_incentive","2,1,3,4,2,3","false","",""
"null","","html-keyboard-response","5","283738","0.0-5.0","","<img src=""img/set1/S1.jpg"" width=""540"" height = ""360"">","null","","","","","","","",""
"null","","html-keyboard-response","6","283945","0.0-6.0","","","null","","","","","","","",""
"48.80000001192093","","image-keyboard-response","7","284001","0.0-7.0","","img/set1/S2.jpg","68","2","random","68","random,structured_load,structured_normal,structured_incentive","2,1,3,4,2,3","true","",""
"null","","html-keyboard-response","8","284359","0.0-8.0","","<img src=""img/set1/S2.jpg"" width=""540"" height = ""360"" style=""border:16px solid orange"">","null","","","","","","","",""
"null","","html-keyboard-response","9","284563","0.0-9.0","","","null","","","","","","","",""
"1458.4000000357628","","image-keyboard-response","10","286028","0.0-10.0","","img/set1/S2.jpg","72","2","random","68","random,structured_load,structured_normal,structured_incentive","2,1,3,4,2,3","false","",""
"null","","html-keyboard-response","11","286384","0.0-11.0","","<img src=""img/set1/S2.jpg"" width=""540"" height = ""360"">","null","","","","","","","",""
"null","","html-keyboard-response","12","286591","0.0-12.0","","","null","","","","","","","",""
"1633.5999999642372","","image-keyboard-response","13","288233","0.0-13.0","","img/set1/S1.jpg","74","1","random","83","random,structured_load,structured_normal,structured_incentive","2,1,3,4,2,3","false","",""
"null","","html-keyboard-response","14","288593","0.0-14.0","","<img src=""img/set1/S1.jpg"" width=""540"" height = ""360"">","null","","","","","","","",""
"null","","html-keyboard-response","15","288799","0.0-15.0","","","null","","","","","","","",""
"1457.699999988079","","image-keyboard-response","16","290266","0.0-16.0","","img/set1/S3.jpg","83","3","random","72","random,structured_load,structured_normal,structured_incentive","2,1,3,4,2,3","false","",""
"null","","html-keyboard-response","17","290623","0.0-17.0","","<img src=""img/set1/S3.jpg"" width=""540"" height = ""360"">","null","","","","","","","",""
"null","","html-keyboard-response","18","290830","0.0-18.0","","","null","","","","","","","",""
"1632.1000000238419","","image-keyboard-response","19","292469","0.0-19.0","","img/set1/S2.jpg","74","2","random","68","random,structured_load,structured_normal,structured_incentive","2,1,3,4,2,3","false","",""
"null","","html-keyboard-response","20","292823","0.0-20.0","","<img src=""img/set1/S2.jpg"" width=""540"" height = ""360"">","null","","","","","","","",""
"null","","html-keyboard-response","21","293027","0.0-21.0","","","null","","","","","","","",""
"2365.300000011921","","image-keyboard-response","22","295400","0.0-22.0","","img/set1/S2.jpg","72","2","random","68","random,structured_load,structured_normal,structured_incentive","2,1,3,4,2,3","false","",""
"null","","html-keyboard-response","23","295757","0.0-23.0","","<img src=""img/set1/S2.jpg"" width=""540"" height = ""360"">","null","","","","","","","",""
"null","","html-keyboard-response","24","295963","0.0-24.0","","","null","","","","","","","",""
"2119.300000011921","","image-keyboard-response","25","298092","0.0-25.0","","img/set1/S2.jpg","83","2","random","68","random,structured_load,structured_normal,structured_incentive","2,1,3,4,2,3","false","",""
"null","","html-keyboard-response","26","298448","0.0-26.0","","<img src=""img/set1/S2.jpg"" width=""540"" height = ""360"">","null","","","","","","","",""
"null","","html-keyboard-response","27","298655","0.0-27.0","","","null","","","","","","","",""
"null","","image-keyboard-response","28","301163","0.0-28.0","","img/set1/S1.jpg","null","1","random","83","random,structured_load,structured_normal,structured_incentive","2,1,3,4,2,3","false","",""
"null","","html-keyboard-response","29","301522","0.0-29.0","","<img src=""img/set1/S1.jpg"" width=""540"" height = ""360"">","null","","","","","","","",""
"null","","html-keyboard-response","30","301728","0.0-30.0","","","null","","","","","","","",""
"753.6999999880791","","image-keyboard-response","31","302487","0.0-31.0","","img/set1/S1.jpg","68","1","random","83","random,structured_load,structured_normal,structured_incentive","2,1,3,4,2,3","false","",""
"null","","html-keyboard-response","32","302845","0.0-32.0","","<img src=""img/set1/S1.jpg"" width=""540"" height = ""360"">","null","","","","","","","",""
"null","","html-keyboard-response","33","303050","0.0-33.0","","","null","","","","","","","",""
"465.2000000476837","","image-keyboard-response","34","303519","0.0-34.0","","img/set1/S1.jpg","72","1","random","83","random,structured_load,structured_normal,structured_incentive","2,1,3,4,2,3","false","",""
"null","","html-keyboard-response","35","303876","0.0-35.0","","<img src=""img/set1/S1.jpg"" width=""540"" height = ""360"">","null","","","","","","","",""
"null","","html-keyboard-response","36","304084","0.0-36.0","","","null","","","","","","","",""
"1712.5","","image-keyboard-response","37","305803","0.0-37.0","","img/set1/S4.jpg","74","4","random","74","random,structured_load,structured_normal,structured_incentive","2,1,3,4,2,3","true","",""
"null","","html-keyboard-response","38","306160","0.0-38.0","","<img src=""img/set1/S4.jpg"" width=""540"" height = ""360"" style=""border:16px solid orange"">","null","","","","","","","",""
"null","","html-keyboard-response","39","306365","0.0-39.0","","","null","","","","","","","",""
"1760.1000000238419","","image-keyboard-response","40","308130","0.0-40.0","","img/set1/S3.jpg","83","3","random","72","random,structured_load,structured_normal,structured_incentive","2,1,3,4,2,3","false","",""
"null","","html-keyboard-response","41","308487","0.0-41.0","","<img src=""img/set1/S3.jpg"" width=""540"" height = ""360"">","null","","","","","","","",""
"null","","html-keyboard-response","42","308693","0.0-42.0","","","null","","","","","","","",""
"1517.699999988079","","image-keyboard-response","43","310215","0.0-43.0","","img/set1/S1.jpg","68","1","random","83","random,structured_load,structured_normal,structured_incentive","2,1,3,4,2,3","false","",""
"null","","html-keyboard-response","44","310571","0.0-44.0","","<img src=""img/set1/S1.jpg"" width=""540"" height = ""360"">","null","","","","","","","",""
"null","","html-keyboard-response","45","310777","0.0-45.0","","","null","","","","","","","",""
"1165.3999999761581","","image-keyboard-response","46","311950","0.0-46.0","","img/set1/S4.jpg","74","4","random","74","random,structured_load,structured_normal,structured_incentive","2,1,3,4,2,3","true","",""
"null","","html-keyboard-response","47","312307","0.0-47.0","","<img src=""img/set1/S4.jpg"" width=""540"" height = ""360"" style=""border:16px solid orange"">","null","","","","","","","",""
"null","","html-keyboard-response","48","312515","0.0-48.0","","","null","","","","","","","",""
"1030.5999999642372","","image-keyboard-response","49","313553","0.0-49.0","","img/set1/S4.jpg","74","4","random","74","random,structured_load,structured_normal,structured_incentive","2,1,3,4,2,3","true","",""
"null","","html-keyboard-response","50","313911","0.0-50.0","","<img src=""img/set1/S4.jpg"" width=""540"" height = ""360"" style=""border:16px solid orange"">","null","","","","","","","",""
"null","","html-keyboard-response","51","314117","0.0-51.0","","","null","","","","","","","",""
"1019.8000000119209","","image-keyboard-response","52","315145","0.0-52.0","","img/set1/S3.jpg","72","3","random","72","random,structured_load,structured_normal,structured_incentive","2,1,3,4,2,3","true","",""
"null","","html-keyboard-response","53","315502","0.0-53.0","","<img src=""img/set1/S3.jpg"" width=""540"" height = ""360"" style=""border:16px solid orange"">","null","","","","","","","",""
"null","","html-keyboard-response","54","315708","0.0-54.0","","","null","","","","","","","",""
"1512.199999988079","","image-keyboard-response","55","317228","0.0-55.0","","img/set1/S1.jpg","83","1","random","83","random,structured_load,structured_normal,structured_incentive","2,1,3,4,2,3","true","",""
"null","","html-keyboard-response","56","317584","0.0-56.0","","<img src=""img/set1/S1.jpg"" width=""540"" height = ""360"" style=""border:16px solid orange"">","null","","","","","","","",""
"null","","html-keyboard-response","57","317790","0.0-57.0","","","null","","","","","","","",""
"853.6000000238419","","image-keyboard-response","58","318654","0.0-58.0","","img/set1/S1.jpg","83","1","random","83","random,structured_load,structured_normal,structured_incentive","2,1,3,4,2,3","true","",""
"null","","html-keyboard-response","59","319011","0.0-59.0","","<img src=""img/set1/S1.jpg"" width=""540"" height = ""360"" style=""border:16px solid orange"">","null","","","","","","","",""
"null","","html-keyboard-response","60","319218","0.0-60.0","","","null","","","","","","","",""
"1481.3999999761581","","image-keyboard-response","61","320705","0.0-61.0","","img/set1/S2.jpg","68","2","random","68","random,structured_load,structured_normal,structured_incentive","2,1,3,4,2,3","true","",""
"null","","html-keyboard-response","62","321064","0.0-62.0","","<img src=""img/set1/S2.jpg"" width=""540"" height = ""360"" style=""border:16px solid orange"">","null","","","","","","","",""
"null","","html-keyboard-response","63","321272","0.0-63.0","","","null","","","","","","","",""
"809.5","","image-keyboard-response","64","322087","0.0-64.0","","img/set1/S2.jpg","68","2","random","68","random,structured_load,structured_normal,structured_incentive","2,1,3,4,2,3","true","",""
"null","","html-keyboard-response","65","322446","0.0-65.0","","<img src=""img/set1/S2.jpg"" width=""540"" height = ""360"" style=""border:16px solid orange"">","null","","","","","","","",""
"null","","html-keyboard-response","66","322653","0.0-66.0","","","null","","","","","","","",""
"794.6999999880791","","image-keyboard-response","67","323454","0.0-67.0","","img/set1/S2.jpg","68","2","random","68","random,structured_load,structured_normal,structured_incentive","2,1,3,4,2,3","true","",""
"null","","html-keyboard-response","68","323810","0.0-68.0","","<img src=""img/set1/S2.jpg"" width=""540"" height = ""360"" style=""border:16px solid orange"">","null","","","","","","","",""
"null","","html-keyboard-response","69","324016","0.0-69.0","","","null","","","","","","","",""
"1164.7999999523163","","image-keyboard-response","70","325195","0.0-70.0","","img/set1/S4.jpg","74","4","random","74","random,structured_load,structured_normal,structured_incentive","2,1,3,4,2,3","true","",""
"null","","html-keyboard-response","71","325553","0.0-71.0","","<img src=""img/set1/S4.jpg"" width=""540"" height = ""360"" style=""border:16px solid orange"">","null","","","","","","","",""
"null","","html-keyboard-response","72","325758","0.0-72.0","","","null","","","","","","","",""
"649.5","","image-keyboard-response","73","326415","0.0-73.0","","img/set1/S4.jpg","74","4","random","74","random,structured_load,structured_normal,structured_incentive","2,1,3,4,2,3","true","",""
"null","","html-keyboard-response","74","326772","0.0-74.0","","<img src=""img/set1/S4.jpg"" width=""540"" height = ""360"" style=""border:16px solid orange"">","null","","","","","","","",""
"null","","html-keyboard-response","75","326977","0.0-75.0","","","null","","","","","","","",""
"1339","","image-keyboard-response","76","328322","0.0-76.0","","img/set1/S1.jpg","72","1","random","83","random,structured_load,structured_normal,structured_incentive","2,1,3,4,2,3","false","",""
"null","","html-keyboard-response","77","328680","0.0-77.0","","<img src=""img/set1/S1.jpg"" width=""540"" height = ""360"">","null","","","","","","","",""
"null","","html-keyboard-response","78","328886","0.0-78.0","","","null","","","","","","","",""
"949.2000000476837","","image-keyboard-response","79","329839","0.0-79.0","","img/set1/S2.jpg","72","2","random","68","random,structured_load,structured_normal,structured_incentive","2,1,3,4,2,3","false","",""
"null","","html-keyboard-response","80","330196","0.0-80.0","","<img src=""img/set1/S2.jpg"" width=""540"" height = ""360"">","null","","","","","","","",""
"null","","html-keyboard-response","81","330403","0.0-81.0","","","null","","","","","","","",""
"1623.2000000476837","","image-keyboard-response","82","332034","0.0-82.0","","img/set1/S3.jpg","83","3","random","72","random,structured_load,structured_normal,structured_incentive","2,1,3,4,2,3","false","",""
"null","","html-keyboard-response","83","332392","0.0-83.0","","<img src=""img/set1/S3.jpg"" width=""540"" height = ""360"">","null","","","","","","","",""
"null","","html-keyboard-response","84","332598","0.0-84.0","","","null","","","","","","","",""
"1393.699999988079","","image-keyboard-response","85","333998","0.0-85.0","","img/set1/S1.jpg","83","1","random","83","random,structured_load,structured_normal,structured_incentive","2,1,3,4,2,3","true","",""
"null","","html-keyboard-response","86","334354","0.0-86.0","","<img src=""img/set1/S1.jpg"" width=""540"" height = ""360"" style=""border:16px solid orange"">","null","","","","","","","",""
"null","","html-keyboard-response","87","334557","0.0-87.0","","","null","","","","","","","",""
"823.3999999761581","","image-keyboard-response","88","335384","0.0-88.0","","img/set1/S4.jpg","74","4","random","74","random,structured_load,structured_normal,structured_incentive","2,1,3,4,2,3","true","",""
"null","","html-keyboard-response","89","335740","0.0-89.0","","<img src=""img/set1/S4.jpg"" width=""540"" height = ""360"" style=""border:16px solid orange"">","null","","","","","","","",""
"null","","html-keyboard-response","90","335946","0.0-90.0","","","null","","","","","","","",""
"657.5","","image-keyboard-response","91","336609","0.0-91.0","","img/set1/S4.jpg","74","4","random","74","random,structured_load,structured_normal,structured_incentive","2,1,3,4,2,3","true","",""
"null","","html-keyboard-response","92","336966","0.0-92.0","","<img src=""img/set1/S4.jpg"" width=""540"" height = ""360"" style=""border:16px solid orange"">","null","","","","","","","",""
"null","","html-keyboard-response","93","337171","0.0-93.0","","","null","","","","","","","",""
"651.5","","image-keyboard-response","94","337832","0.0-94.0","","img/set1/S4.jpg","74","4","random","74","random,structured_load,structured_normal,structured_incentive","2,1,3,4,2,3","true","",""
"null","","html-keyboard-response","95","338188","0.0-95.0","","<img src=""img/set1/S4.jpg"" width=""540"" height = ""360"" style=""border:16px solid orange"">","null","","","","","","","",""
"null","","html-keyboard-response","96","338394","0.0-96.0","","","null","","","","","","","",""
"1184.300000011921","","image-keyboard-response","97","339587","0.0-97.0","","img/set1/S2.jpg","68","2","random","68","random,structured_load,structured_normal,structured_incentive","2,1,3,4,2,3","true","",""
"null","","html-keyboard-response","98","339945","0.0-98.0","","<img src=""img/set1/S2.jpg"" width=""540"" height = ""360"" style=""border:16px solid orange"">","null","","","","","","","",""
"null","","html-keyboard-response","99","340154","0.0-99.0","","","null","","","","","","","",""
"1056.699999988079","","image-keyboard-response","100","341216","0.0-100.0","","img/set1/S1.jpg","72","1","random","83","random,structured_load,structured_normal,structured_incentive","2,1,3,4,2,3","false","",""
"null","","html-keyboard-response","101","341573","0.0-101.0","","<img src=""img/set1/S1.jpg"" width=""540"" height = ""360"">","null","","","","","","","",""
"null","","html-keyboard-response","102","341779","0.0-102.0","","","null","","","","","","","",""
"1593.8999999761581","","image-keyboard-response","103","343380","0.0-103.0","","img/set1/S2.jpg","83","2","random","68","random,structured_load,structured_normal,structured_incentive","2,1,3,4,2,3","false","",""
"null","","html-keyboard-response","104","343735","0.0-104.0","","<img src=""img/set1/S2.jpg"" width=""540"" height = ""360"">","null","","","","","","","",""
"null","","html-keyboard-response","105","343941","0.0-105.0","","","null","","","","","","","",""
"645.3999999761581","","image-keyboard-response","106","344596","0.0-106.0","","img/set1/S4.jpg","74","4","random","74","random,structured_load,structured_normal,structured_incentive","2,1,3,4,2,3","true","",""
"null","","html-keyboard-response","107","344951","0.0-107.0","","<img src=""img/set1/S4.jpg"" width=""540"" height = ""360"" style=""border:16px solid orange"">","null","","","","","","","",""
"null","","html-keyboard-response","108","345157","0.0-108.0","","","null","","","","","","","",""
"1036.7000000476837","","image-keyboard-response","109","346202","0.0-109.0","","img/set1/S3.jpg","83","3","random","72","random,structured_load,structured_normal,structured_incentive","2,1,3,4,2,3","false","",""
"null","","html-keyboard-response","110","346560","0.0-110.0","","<img src=""img/set1/S3.jpg"" width=""540"" height = ""360"">","null","","","","","","","",""
"null","","html-keyboard-response","111","346766","0.0-111.0","","","null","","","","","","","",""
"620.6000000238419","","image-keyboard-response","112","347394","0.0-112.0","","img/set1/S3.jpg","68","3","random","72","random,structured_load,structured_normal,structured_incentive","2,1,3,4,2,3","false","",""
"null","","html-keyboard-response","113","347752","0.0-113.0","","<img src=""img/set1/S3.jpg"" width=""540"" height = ""360"">","null","","","","","","","",""
"null","","html-keyboard-response","114","347959","0.0-114.0","","","null","","","","","","","",""
"1675","","image-keyboard-response","115","349639","0.0-115.0","","img/set1/S2.jpg","68","2","random","68","random,structured_load,structured_normal,structured_incentive","2,1,3,4,2,3","true","",""
"null","","html-keyboard-response","116","349996","0.0-116.0","","<img src=""img/set1/S2.jpg"" width=""540"" height = ""360"" style=""border:16px solid orange"">","null","","","","","","","",""
"null","","html-keyboard-response","117","350201","0.0-117.0","","","null","","","","","","","",""
"1388.199999988079","","image-keyboard-response","118","351595","0.0-118.0","","img/set1/S3.jpg","72","3","random","72","random,structured_load,structured_normal,structured_incentive","2,1,3,4,2,3","true","",""
"null","","html-keyboard-response","119","351952","0.0-119.0","","<img src=""img/set1/S3.jpg"" width=""540"" height = ""360"" style=""border:16px solid orange"">","null","","","","","","","",""
"null","","html-keyboard-response","120","352158","0.0-120.0","","","null","","","","","","","",""
"941.1999999880791","","image-keyboard-response","121","353106","0.0-121.0","","img/set1/S3.jpg","72","3","random","72","random,structured_load,structured_normal,structured_incentive","2,1,3,4,2,3","true","",""
"null","","html-keyboard-response","122","353467","0.0-122.0","","<img src=""img/set1/S3.jpg"" width=""540"" height = ""360"" style=""border:16px solid orange"">","null","","","","","","","",""
"null","","html-keyboard-response","123","353674","0.0-123.0","","","null","","","","","","","",""
"1045","","image-keyboard-response","124","354725","0.0-124.0","","img/set1/S2.jpg","68","2","random","68","random,structured_load,structured_normal,structured_incentive","2,1,3,4,2,3","true","",""
"null","","html-keyboard-response","125","355082","0.0-125.0","","<img src=""img/set1/S2.jpg"" width=""540"" height = ""360"" style=""border:16px solid orange"">","null","","","","","","","",""
"null","","html-keyboard-response","126","355288","0.0-126.0","","","null","","","","","","","",""
"1351.300000011921","","image-keyboard-response","127","356645","0.0-127.0","","img/set1/S1.jpg","83","1","random","83","random,structured_load,structured_normal,structured_incentive","2,1,3,4,2,3","true","",""
"null","","html-keyboard-response","128","357002","0.0-128.0","","<img src=""img/set1/S1.jpg"" width=""540"" height = ""360"" style=""border:16px solid orange"">","null","","","","","","","",""
"null","","html-keyboard-response","129","357209","0.0-129.0","","","null","","","","","","","",""
"1100.3999999761581","","image-keyboard-response","130","358316","0.0-130.0","","img/set1/S1.jpg","83","1","random","83","random,structured_load,structured_normal,structured_incentive","2,1,3,4,2,3","true","",""
"null","","html-keyboard-response","131","358673","0.0-131.0","","<img src=""img/set1/S1.jpg"" width=""540"" height = ""360"" style=""border:16px solid orange"">","null","","","","","","","",""
"null","","html-keyboard-response","132","358883","0.0-132.0","","","null","","","","","","","",""
"1525.5","","image-keyboard-response","133","360417","0.0-133.0","","img/set1/S2.jpg","68","2","random","68","random,structured_load,structured_normal,structured_incentive","2,1,3,4,2,3","true","",""
"null","","html-keyboard-response","134","360776","0.0-134.0","","<img src=""img/set1/S2.jpg"" width=""540"" height = ""360"" style=""border:16px solid orange"">","null","","","","","","","",""
"null","","html-keyboard-response","135","360981","0.0-135.0","","","null","","","","","","","",""
"752","","image-keyboard-response","136","361742","0.0-136.0","","img/set1/S1.jpg","83","1","random","83","random,structured_load,structured_normal,structured_incentive","2,1,3,4,2,3","true","",""
"null","","html-keyboard-response","137","362099","0.0-137.0","","<img src=""img/set1/S1.jpg"" width=""540"" height = ""360"" style=""border:16px solid orange"">","null","","","","","","","",""
"null","","html-keyboard-response","138","362306","0.0-138.0","","","null","","","","","","","",""
"1447.0999999642372","","image-keyboard-response","139","363761","0.0-139.0","","img/set1/S3.jpg","74","3","random","72","random,structured_load,structured_normal,structured_incentive","2,1,3,4,2,3","false","",""
"null","","html-keyboard-response","140","364117","0.0-140.0","","<img src=""img/set1/S3.jpg"" width=""540"" height = ""360"">","null","","","","","","","",""
"null","","html-keyboard-response","141","364325","0.0-141.0","","","null","","","","","","","",""
"435.80000001192093","","image-keyboard-response","142","364768","0.0-142.0","","img/set1/S3.jpg","72","3","random","72","random,structured_load,structured_normal,structured_incentive","2,1,3,4,2,3","true","",""
"null","","html-keyboard-response","143","365127","0.0-143.0","","<img src=""img/set1/S3.jpg"" width=""540"" height = ""360"" style=""border:16px solid orange"">","null","","","","","","","",""
"null","","html-keyboard-response","144","365332","0.0-144.0","","","null","","","","","","","",""
"760.5","","image-keyboard-response","145","366101","0.0-145.0","","img/set1/S4.jpg","74","4","random","74","random,structured_load,structured_normal,structured_incentive","2,1,3,4,2,3","true","",""
"null","","html-keyboard-response","146","366461","0.0-146.0","","<img src=""img/set1/S4.jpg"" width=""540"" height = ""360"" style=""border:16px solid orange"">","null","","","","","","","",""
"null","","html-keyboard-response","147","366669","0.0-147.0","","","null","","","","","","","",""
"967","","image-keyboard-response","148","367644","0.0-148.0","","img/set1/S1.jpg","83","1","random","83","random,structured_load,structured_normal,structured_incentive","2,1,3,4,2,3","true","",""
"null","","html-keyboard-response","149","368003","0.0-149.0","","<img src=""img/set1/S1.jpg"" width=""540"" height = ""360"" style=""border:16px solid orange"">","null","","","","","","","",""
"null","","html-keyboard-response","150","368211","0.0-150.0","","","null","","","","","","","",""
"910.8000000119209","","image-keyboard-response","151","369131","0.0-151.0","","img/set1/S4.jpg","74","4","random","74","random,structured_load,structured_normal,structured_incentive","2,1,3,4,2,3","true","",""
"null","","html-keyboard-response","152","369489","0.0-152.0","","<img src=""img/set1/S4.jpg"" width=""540"" height = ""360"" style=""border:16px solid orange"">","null","","","","","","","",""
"null","","html-keyboard-response","153","369695","0.0-153.0","","","null","","","","","","","",""
"825.1000000238419","","image-keyboard-response","154","370526","0.0-154.0","","img/set1/S4.jpg","74","4","random","74","random,structured_load,structured_normal,structured_incentive","2,1,3,4,2,3","true","",""
"null","","html-keyboard-response","155","370889","0.0-155.0","","<img src=""img/set1/S4.jpg"" width=""540"" height = ""360"" style=""border:16px solid orange"">","null","","","","","","","",""
"null","","html-keyboard-response","156","371095","0.0-156.0","","","null","","","","","","","",""
"956.0999999642372","","image-keyboard-response","157","372060","0.0-157.0","","img/set1/S1.jpg","83","1","random","83","random,structured_load,structured_normal,structured_incentive","2,1,3,4,2,3","true","",""
"null","","html-keyboard-response","158","372421","0.0-158.0","","<img src=""img/set1/S1.jpg"" width=""540"" height = ""360"" style=""border:16px solid orange"">","null","","","","","","","",""
"null","","html-keyboard-response","159","372629","0.0-159.0","","","null","","","","","","","",""
"1117.1000000238419","","image-keyboard-response","160","373755","0.0-160.0","","img/set1/S2.jpg","68","2","random","68","random,structured_load,structured_normal,structured_incentive","2,1,3,4,2,3","true","",""
"null","","html-keyboard-response","161","374113","0.0-161.0","","<img src=""img/set1/S2.jpg"" width=""540"" height = ""360"" style=""border:16px solid orange"">","null","","","","","","","",""
"null","","html-keyboard-response","162","374320","0.0-162.0","","","null","","","","","","","",""
"898.6000000238419","","image-keyboard-response","163","375223","0.0-163.0","","img/set1/S4.jpg","74","4","random","74","random,structured_load,structured_normal,structured_incentive","2,1,3,4,2,3","true","",""
"null","","html-keyboard-response","164","375579","0.0-164.0","","<img src=""img/set1/S4.jpg"" width=""540"" height = ""360"" style=""border:16px solid orange"">","null","","","","","","","",""
"null","","html-keyboard-response","165","375784","0.0-165.0","","","null","","","","","","","",""
"936.3000000119209","","image-keyboard-response","166","376725","0.0-166.0","","img/set1/S3.jpg","72","3","random","72","random,structured_load,structured_normal,structured_incentive","2,1,3,4,2,3","true","",""
"null","","html-keyboard-response","167","377084","0.0-167.0","","<img src=""img/set1/S3.jpg"" width=""540"" height = ""360"" style=""border:16px solid orange"">","null","","","","","","","",""
"null","","html-keyboard-response","168","377294","0.0-168.0","","","null","","","","","","","",""
"809.6000000238419","","image-keyboard-response","169","378111","0.0-169.0","","img/set1/S1.jpg","83","1","random","83","random,structured_load,structured_normal,structured_incentive","2,1,3,4,2,3","true","",""
"null","","html-keyboard-response","170","378469","0.0-170.0","","<img src=""img/set1/S1.jpg"" width=""540"" height = ""360"" style=""border:16px solid orange"">","null","","","","","","","",""
"null","","html-keyboard-response","171","378676","0.0-171.0","","","null","","","","","","","",""
"913.3000000119209","","image-keyboard-response","172","379599","0.0-172.0","","img/set1/S3.jpg","72","3","random","72","random,structured_load,structured_normal,structured_incentive","2,1,3,4,2,3","true","",""
"null","","html-keyboard-response","173","379957","0.0-173.0","","<img src=""img/set1/S3.jpg"" width=""540"" height = ""360"" style=""border:16px solid orange"">","null","","","","","","","",""
"null","","html-keyboard-response","174","380165","0.0-174.0","","","null","","","","","","","",""
"845.4000000357628","","image-keyboard-response","175","381018","0.0-175.0","","img/set1/S3.jpg","72","3","random","72","random,structured_load,structured_normal,structured_incentive","2,1,3,4,2,3","true","",""
"null","","html-keyboard-response","176","381379","0.0-176.0","","<img src=""img/set1/S3.jpg"" width=""540"" height = ""360"" style=""border:16px solid orange"">","null","","","","","","","",""
"null","","html-keyboard-response","177","381585","0.0-177.0","","","null","","","","","","","",""
"1204.199999988079","","image-keyboard-response","178","382797","0.0-178.0","","img/set1/S2.jpg","68","2","random","68","random,structured_load,structured_normal,structured_incentive","2,1,3,4,2,3","true","",""
"null","","html-keyboard-response","179","383153","0.0-179.0","","<img src=""img/set1/S2.jpg"" width=""540"" height = ""360"" style=""border:16px solid orange"">","null","","","","","","","",""
"null","","html-keyboard-response","180","383361","0.0-180.0","","","null","","","","","","","",""
"1043.3999999761581","","image-keyboard-response","181","384413","0.0-181.0","","img/set1/S3.jpg","72","3","random","72","random,structured_load,structured_normal,structured_incentive","2,1,3,4,2,3","true","",""
"null","","html-keyboard-response","182","384769","0.0-182.0","","<img src=""img/set1/S3.jpg"" width=""540"" height = ""360"" style=""border:16px solid orange"">","null","","","","","","","",""
"null","","html-keyboard-response","183","384977","0.0-183.0","","","null","","","","","","","",""
"861.8000000119209","","image-keyboard-response","184","385847","0.0-184.0","","img/set1/S2.jpg","68","2","random","68","random,structured_load,structured_normal,structured_incentive","2,1,3,4,2,3","true","",""
"null","","html-keyboard-response","185","386203","0.0-185.0","","<img src=""img/set1/S2.jpg"" width=""540"" height = ""360"" style=""border:16px solid orange"">","null","","","","","","","",""
"null","","html-keyboard-response","186","386410","0.0-186.0","","","null","","","","","","","",""
"898.8999999761581","","image-keyboard-response","187","387317","0.0-187.0","","img/set1/S1.jpg","83","1","random","83","random,structured_load,structured_normal,structured_incentive","2,1,3,4,2,3","true","",""
"null","","html-keyboard-response","188","387674","0.0-188.0","","<img src=""img/set1/S1.jpg"" width=""540"" height = ""360"" style=""border:16px solid orange"">","null","","","","","","","",""
"null","","html-keyboard-response","189","387881","0.0-189.0","","","null","","","","","","","",""
"960.9000000357628","","image-keyboard-response","190","388851","0.0-190.0","","img/set1/S1.jpg","83","1","random","83","random,structured_load,structured_normal,structured_incentive","2,1,3,4,2,3","true","",""
"null","","html-keyboard-response","191","389208","0.0-191.0","","<img src=""img/set1/S1.jpg"" width=""540"" height = ""360"" style=""border:16px solid orange"">","null","","","","","","","",""
"null","","html-keyboard-response","192","389416","0.0-192.0","","","null","","","","","","","",""
"1901.6000000238419","","image-keyboard-response","193","391325","0.0-193.0","","img/set1/S3.jpg","72","3","random","72","random,structured_load,structured_normal,structured_incentive","2,1,3,4,2,3","true","",""
"null","","html-keyboard-response","194","391683","0.0-194.0","","<img src=""img/set1/S3.jpg"" width=""540"" height = ""360"" style=""border:16px solid orange"">","null","","","","","","","",""
"null","","html-keyboard-response","195","391888","0.0-195.0","","","null","","","","","","","",""
"906.7999999523163","","image-keyboard-response","196","392801","0.0-196.0","","img/set1/S1.jpg","83","1","random","83","random,structured_load,structured_normal,structured_incentive","2,1,3,4,2,3","true","",""
"null","","html-keyboard-response","197","393159","0.0-197.0","","<img src=""img/set1/S1.jpg"" width=""540"" height = ""360"" style=""border:16px solid orange"">","null","","","","","","","",""
"null","","html-keyboard-response","198","393366","0.0-198.0","","","null","","","","","","","",""
"806.1999999880791","","image-keyboard-response","199","394179","0.0-199.0","","img/set1/S4.jpg","74","4","random","74","random,structured_load,structured_normal,structured_incentive","2,1,3,4,2,3","true","",""
"null","","html-keyboard-response","200","394535","0.0-200.0","","<img src=""img/set1/S4.jpg"" width=""540"" height = ""360"" style=""border:16px solid orange"">","null","","","","","","","",""
"null","","html-keyboard-response","201","394739","0.0-201.0","","","null","","","","","","","",""
"819.7000000476837","","image-keyboard-response","202","395566","0.0-202.0","","img/set1/S1.jpg","83","1","random","83","random,structured_load,structured_normal,structured_incentive","2,1,3,4,2,3","true","",""
"null","","html-keyboard-response","203","395923","0.0-203.0","","<img src=""img/set1/S1.jpg"" width=""540"" height = ""360"" style=""border:16px solid orange"">","null","","","","","","","",""
"null","","html-keyboard-response","204","396130","0.0-204.0","","","null","","","","","","","",""
"924.3999999761581","","image-keyboard-response","205","397061","0.0-205.0","","img/set1/S4.jpg","74","4","random","74","random,structured_load,structured_normal,structured_incentive","2,1,3,4,2,3","true","",""
"null","","html-keyboard-response","206","397417","0.0-206.0","","<img src=""img/set1/S4.jpg"" width=""540"" height = ""360"" style=""border:16px solid orange"">","null","","","","","","","",""
"null","","html-keyboard-response","207","397622","0.0-207.0","","","null","","","","","","","",""
"992.6999999880791","","image-keyboard-response","208","398622","0.0-208.0","","img/set1/S3.jpg","72","3","random","72","random,structured_load,structured_normal,structured_incentive","2,1,3,4,2,3","true","",""
"null","","html-keyboard-response","209","398981","0.0-209.0","","<img src=""img/set1/S3.jpg"" width=""540"" height = ""360"" style=""border:16px solid orange"">","null","","","","","","","",""
"null","","html-keyboard-response","210","399187","0.0-210.0","","","null","","","","","","","",""
"852.2999999523163","","image-keyboard-response","211","400046","0.0-211.0","","img/set1/S2.jpg","68","2","random","68","random,structured_load,structured_normal,structured_incentive","2,1,3,4,2,3","true","",""
"null","","html-keyboard-response","212","400405","0.0-212.0","","<img src=""img/set1/S2.jpg"" width=""540"" height = ""360"" style=""border:16px solid orange"">","null","","","","","","","",""
"null","","html-keyboard-response","213","400612","0.0-213.0","","","null","","","","","","","",""
"892.5","","image-keyboard-response","214","401513","0.0-214.0","","img/set1/S4.jpg","74","4","random","74","random,structured_load,structured_normal,structured_incentive","2,1,3,4,2,3","true","",""
"null","","html-keyboard-response","215","401877","0.0-215.0","","<img src=""img/set1/S4.jpg"" width=""540"" height = ""360"" style=""border:16px solid orange"">","null","","","","","","","",""
"null","","html-keyboard-response","216","402084","0.0-216.0","","","null","","","","","","","",""
"852.6000000238419","","image-keyboard-response","217","402944","0.0-217.0","","img/set1/S1.jpg","83","1","random","83","random,structured_load,structured_normal,structured_incentive","2,1,3,4,2,3","true","",""
"null","","html-keyboard-response","218","403303","0.0-218.0","","<img src=""img/set1/S1.jpg"" width=""540"" height = ""360"" style=""border:16px solid orange"">","null","","","","","","","",""
"null","","html-keyboard-response","219","403510","0.0-219.0","","","null","","","","","","","",""
"1154.300000011921","","image-keyboard-response","220","404671","0.0-220.0","","img/set1/S3.jpg","72","3","random","72","random,structured_load,structured_normal,structured_incentive","2,1,3,4,2,3","true","",""
"null","","html-keyboard-response","221","405030","0.0-221.0","","<img src=""img/set1/S3.jpg"" width=""540"" height = ""360"" style=""border:16px solid orange"">","null","","","","","","","",""
"null","","html-keyboard-response","222","405235","0.0-222.0","","","null","","","","","","","",""
"935.5","","image-keyboard-response","223","406179","0.0-223.0","","img/set1/S2.jpg","68","2","random","68","random,structured_load,structured_normal,structured_incentive","2,1,3,4,2,3","true","",""
"null","","html-keyboard-response","224","406536","0.0-224.0","","<img src=""img/set1/S2.jpg"" width=""540"" height = ""360"" style=""border:16px solid orange"">","null","","","","","","","",""
"null","","html-keyboard-response","225","406743","0.0-225.0","","","null","","","","","","","",""
"890.6000000238419","","image-keyboard-response","226","407640","0.0-226.0","","img/set1/S3.jpg","72","3","random","72","random,structured_load,structured_normal,structured_incentive","2,1,3,4,2,3","true","",""
"null","","html-keyboard-response","227","408000","0.0-227.0","","<img src=""img/set1/S3.jpg"" width=""540"" height = ""360"" style=""border:16px solid orange"">","null","","","","","","","",""
"null","","html-keyboard-response","228","408209","0.0-228.0","","","null","","","","","","","",""
"778.1000000238419","","image-keyboard-response","229","408995","0.0-229.0","","img/set1/S3.jpg","72","3","random","72","random,structured_load,structured_normal,structured_incentive","2,1,3,4,2,3","true","",""
"null","","html-keyboard-response","230","409353","0.0-230.0","","<img src=""img/set1/S3.jpg"" width=""540"" height = ""360"" style=""border:16px solid orange"">","null","","","","","","","",""
"null","","html-keyboard-response","231","409560","0.0-231.0","","","null","","","","","","","",""
"1074","","image-keyboard-response","232","410641","0.0-232.0","","img/set1/S1.jpg","83","1","random","83","random,structured_load,structured_normal,structured_incentive","2,1,3,4,2,3","true","",""
"null","","html-keyboard-response","233","410997","0.0-233.0","","<img src=""img/set1/S1.jpg"" width=""540"" height = ""360"" style=""border:16px solid orange"">","null","","","","","","","",""
"null","","html-keyboard-response","234","411204","0.0-234.0","","","null","","","","","","","",""
"1257","","image-keyboard-response","235","412469","0.0-235.0","","img/set1/S2.jpg","68","2","random","68","random,structured_load,structured_normal,structured_incentive","2,1,3,4,2,3","true","",""
"null","","html-keyboard-response","236","412826","0.0-236.0","","<img src=""img/set1/S2.jpg"" width=""540"" height = ""360"" style=""border:16px solid orange"">","null","","","","","","","",""
"null","","html-keyboard-response","237","413032","0.0-237.0","","","null","","","","","","","",""
"847.3999999761581","","image-keyboard-response","238","413890","0.0-238.0","","img/set1/S3.jpg","72","3","random","72","random,structured_load,structured_normal,structured_incentive","2,1,3,4,2,3","true","",""
"null","","html-keyboard-response","239","414246","0.0-239.0","","<img src=""img/set1/S3.jpg"" width=""540"" height = ""360"" style=""border:16px solid orange"">","null","","","","","","","",""
"null","","html-keyboard-response","240","414453","0.0-240.0","","","null","","","","","","","",""
"846.5","","image-keyboard-response","241","415309","0.0-241.0","","img/set1/S4.jpg","74","4","random","74","random,structured_load,structured_normal,structured_incentive","2,1,3,4,2,3","true","",""
"null","","html-keyboard-response","242","415668","0.0-242.0","","<img src=""img/set1/S4.jpg"" width=""540"" height = ""360"" style=""border:16px solid orange"">","null","","","","","","","",""
"null","","html-keyboard-response","243","415876","0.0-243.0","","","null","","","","","","","",""
"1960.6000000238419","","image-keyboard-response","244","417842","0.0-244.0","","img/set1/S2.jpg","72","2","random","68","random,structured_load,structured_normal,structured_incentive","2,1,3,4,2,3","false","",""
"null","","html-keyboard-response","245","418202","0.0-245.0","","<img src=""img/set1/S2.jpg"" width=""540"" height = ""360"">","null","","","","","","","",""
"null","","html-keyboard-response","246","418409","0.0-246.0","","","null","","","","","","","",""
"690.0999999642372","","image-keyboard-response","247","419109","0.0-247.0","","img/set1/S4.jpg","74","4","random","74","random,structured_load,structured_normal,structured_incentive","2,1,3,4,2,3","true","",""
"null","","html-keyboard-response","248","419466","0.0-248.0","","<img src=""img/set1/S4.jpg"" width=""540"" height = ""360"" style=""border:16px solid orange"">","null","","","","","","","",""
"null","","html-keyboard-response","249","419672","0.0-249.0","","","null","","","","","","","",""
"773.8000000119209","","image-keyboard-response","250","420452","0.0-250.0","","img/set1/S4.jpg","74","4","random","74","random,structured_load,structured_normal,structured_incentive","2,1,3,4,2,3","true","",""
"null","","html-keyboard-response","251","420811","0.0-251.0","","<img src=""img/set1/S4.jpg"" width=""540"" height = ""360"" style=""border:16px solid orange"">","null","","","","","","","",""
"null","","html-keyboard-response","252","421017","0.0-252.0","","","null","","","","","","","",""
"985.3000000119209","","image-keyboard-response","253","422010","0.0-253.0","","img/set1/S3.jpg","72","3","random","72","random,structured_load,structured_normal,structured_incentive","2,1,3,4,2,3","true","",""
"null","","html-keyboard-response","254","422368","0.0-254.0","","<img src=""img/set1/S3.jpg"" width=""540"" height = ""360"" style=""border:16px solid orange"">","null","","","","","","","",""
"null","","html-keyboard-response","255","422575","0.0-255.0","","","null","","","","","","","",""
"831.2999999523163","","image-keyboard-response","256","423414","0.0-256.0","","img/set1/S3.jpg","72","3","random","72","random,structured_load,structured_normal,structured_incentive","2,1,3,4,2,3","true","",""
"null","","html-keyboard-response","257","423771","0.0-257.0","","<img src=""img/set1/S3.jpg"" width=""540"" height = ""360"" style=""border:16px solid orange"">","null","","","","","","","",""
"null","","html-keyboard-response","258","423981","0.0-258.0","","","null","","","","","","","",""
"771.5","","image-keyboard-response","259","424760","0.0-259.0","","img/set1/S4.jpg","74","4","random","74","random,structured_load,structured_normal,structured_incentive","2,1,3,4,2,3","true","",""
"null","","html-keyboard-response","260","425120","0.0-260.0","","<img src=""img/set1/S4.jpg"" width=""540"" height = ""360"" style=""border:16px solid orange"">","null","","","","","","","",""
"null","","html-keyboard-response","261","425328","0.0-261.0","","","null","","","","","","","",""
"870.3999999761581","","image-keyboard-response","262","426209","0.0-262.0","","img/set1/S1.jpg","83","1","random","83","random,structured_load,structured_normal,structured_incentive","2,1,3,4,2,3","true","",""
"null","","html-keyboard-response","263","426567","0.0-263.0","","<img src=""img/set1/S1.jpg"" width=""540"" height = ""360"" style=""border:16px solid orange"">","null","","","","","","","",""
"null","","html-keyboard-response","264","426774","0.0-264.0","","","null","","","","","","","",""
"881.8000000119209","","image-keyboard-response","265","427662","0.0-265.0","","img/set1/S2.jpg","68","2","random","68","random,structured_load,structured_normal,structured_incentive","2,1,3,4,2,3","true","",""
"null","","html-keyboard-response","266","428023","0.0-266.0","","<img src=""img/set1/S2.jpg"" width=""540"" height = ""360"" style=""border:16px solid orange"">","null","","","","","","","",""
"null","","html-keyboard-response","267","428233","0.0-267.0","","","null","","","","","","","",""
"961.9000000357628","","image-keyboard-response","268","429200","0.0-268.0","","img/set1/S1.jpg","83","1","random","83","random,structured_load,structured_normal,structured_incentive","2,1,3,4,2,3","true","",""
"null","","html-keyboard-response","269","429557","0.0-269.0","","<img src=""img/set1/S1.jpg"" width=""540"" height = ""360"" style=""border:16px solid orange"">","null","","","","","","","",""
"null","","html-keyboard-response","270","429764","0.0-270.0","","","null","","","","","","","",""
"768","","image-keyboard-response","271","430538","0.0-271.0","","img/set1/S1.jpg","83","1","random","83","random,structured_load,structured_normal,structured_incentive","2,1,3,4,2,3","true","",""
"null","","html-keyboard-response","272","430896","0.0-272.0","","<img src=""img/set1/S1.jpg"" width=""540"" height = ""360"" style=""border:16px solid orange"">","null","","","","","","","",""
"null","","html-keyboard-response","273","431102","0.0-273.0","","","null","","","","","","","",""
"1222.0999999642372","","image-keyboard-response","274","432333","0.0-274.0","","img/set1/S3.jpg","72","3","random","72","random,structured_load,structured_normal,structured_incentive","2,1,3,4,2,3","true","",""
"null","","html-keyboard-response","275","432691","0.0-275.0","","<img src=""img/set1/S3.jpg"" width=""540"" height = ""360"" style=""border:16px solid orange"">","null","","","","","","","",""
"null","","html-keyboard-response","276","432897","0.0-276.0","","","null","","","","","","","",""
"832.7999999523163","","image-keyboard-response","277","433739","0.0-277.0","","img/set1/S4.jpg","74","4","random","74","random,structured_load,structured_normal,structured_incentive","2,1,3,4,2,3","true","",""
"null","","html-keyboard-response","278","434098","0.0-278.0","","<img src=""img/set1/S4.jpg"" width=""540"" height = ""360"" style=""border:16px solid orange"">","null","","","","","","","",""
"null","","html-keyboard-response","279","434307","0.0-279.0","","","null","","","","","","","",""
"810.5","","image-keyboard-response","280","435123","0.0-280.0","","img/set1/S2.jpg","68","2","random","68","random,structured_load,structured_normal,structured_incentive","2,1,3,4,2,3","true","",""
"null","","html-keyboard-response","281","435482","0.0-281.0","","<img src=""img/set1/S2.jpg"" width=""540"" height = ""360"" style=""border:16px solid orange"">","null","","","","","","","",""
"null","","html-keyboard-response","282","435688","0.0-282.0","","","null","","","","","","","",""
"900.6000000238419","","image-keyboard-response","283","436598","0.0-283.0","","img/set1/S1.jpg","83","1","random","83","random,structured_load,structured_normal,structured_incentive","2,1,3,4,2,3","true","",""
"null","","html-keyboard-response","284","436954","0.0-284.0","","<img src=""img/set1/S1.jpg"" width=""540"" height = ""360"" style=""border:16px solid orange"">","null","","","","","","","",""
"null","","html-keyboard-response","285","437160","0.0-285.0","","","null","","","","","","","",""
"1029.2999999523163","","image-keyboard-response","286","438199","0.0-286.0","","img/set1/S3.jpg","72","3","random","72","random,structured_load,structured_normal,structured_incentive","2,1,3,4,2,3","true","",""
"null","","html-keyboard-response","287","438557","0.0-287.0","","<img src=""img/set1/S3.jpg"" width=""540"" height = ""360"" style=""border:16px solid orange"">","null","","","","","","","",""
"null","","html-keyboard-response","288","438764","0.0-288.0","","","null","","","","","","","",""
"822.8999999761581","","image-keyboard-response","289","439593","0.0-289.0","","img/set1/S4.jpg","74","4","random","74","random,structured_load,structured_normal,structured_incentive","2,1,3,4,2,3","true","",""
"null","","html-keyboard-response","290","439950","0.0-290.0","","<img src=""img/set1/S4.jpg"" width=""540"" height = ""360"" style=""border:16px solid orange"">","null","","","","","","","",""
"null","","html-keyboard-response","291","440160","0.0-291.0","","","null","","","","","","","",""
"739.6000000238419","","image-keyboard-response","292","440909","0.0-292.0","","img/set1/S4.jpg","74","4","random","74","random,structured_load,structured_normal,structured_incentive","2,1,3,4,2,3","true","",""
"null","","html-keyboard-response","293","441267","0.0-293.0","","<img src=""img/set1/S4.jpg"" width=""540"" height = ""360"" style=""border:16px solid orange"">","null","","","","","","","",""
"null","","html-keyboard-response","294","441474","0.0-294.0","","","null","","","","","","","",""
"1315.6000000238419","","image-keyboard-response","295","442794","0.0-295.0","","img/set1/S2.jpg","68","2","random","68","random,structured_load,structured_normal,structured_incentive","2,1,3,4,2,3","true","",""
"null","","html-keyboard-response","296","443152","0.0-296.0","","<img src=""img/set1/S2.jpg"" width=""540"" height = ""360"" style=""border:16px solid orange"">","null","","","","","","","",""
"null","","html-keyboard-response","297","443360","0.0-297.0","","","null","","","","","","","",""
"908.3000000119209","","image-keyboard-response","298","444276","0.0-298.0","","img/set1/S2.jpg","68","2","random","68","random,structured_load,structured_normal,structured_incentive","2,1,3,4,2,3","true","",""
"null","","html-keyboard-response","299","444635","0.0-299.0","","<img src=""img/set1/S2.jpg"" width=""540"" height = ""360"" style=""border:16px solid orange"">","null","","","","","","","",""
"null","","html-keyboard-response","300","444840","0.0-300.0","","","null","","","","","","","",""
"835.1999999880791","","image-keyboard-response","301","445686","0.0-301.0","","img/set1/S4.jpg","74","4","random","74","random,structured_load,structured_normal,structured_incentive","2,1,3,4,2,3","true","",""
"null","","html-keyboard-response","302","446044","0.0-302.0","","<img src=""img/set1/S4.jpg"" width=""540"" height = ""360"" style=""border:16px solid orange"">","null","","","","","","","",""
"null","","html-keyboard-response","303","446253","0.0-303.0","","","null","","","","","","","",""
"952.5","","image-keyboard-response","304","447211","0.0-304.0","","img/set1/S4.jpg","74","4","random","74","random,structured_load,structured_normal,structured_incentive","2,1,3,4,2,3","true","",""
"null","","html-keyboard-response","305","447569","0.0-305.0","","<img src=""img/set1/S4.jpg"" width=""540"" height = ""360"" style=""border:16px solid orange"">","null","","","","","","","",""
"null","","html-keyboard-response","306","447776","0.0-306.0","","","null","","","","","","","",""
"1734.699999988079","","image-keyboard-response","307","449519","0.0-307.0","","img/set1/S3.jpg","72","3","random","72","random,structured_load,structured_normal,structured_incentive","2,1,3,4,2,3","true","",""
"null","","html-keyboard-response","308","449875","0.0-308.0","","<img src=""img/set1/S3.jpg"" width=""540"" height = ""360"" style=""border:16px solid orange"">","null","","","","","","","",""
"null","","html-keyboard-response","309","450084","0.0-309.0","","","null","","","","","","","",""
"900","","image-keyboard-response","310","450992","0.0-310.0","","img/set1/S2.jpg","68","2","random","68","random,structured_load,structured_normal,structured_incentive","2,1,3,4,2,3","true","",""
"null","","html-keyboard-response","311","451351","0.0-311.0","","<img src=""img/set1/S2.jpg"" width=""540"" height = ""360"" style=""border:16px solid orange"">","null","","","","","","","",""
"null","","html-keyboard-response","312","451558","0.0-312.0","","","null","","","","","","","",""
"847.8999999761581","","image-keyboard-response","313","452415","0.0-313.0","","img/set1/S3.jpg","72","3","random","72","random,structured_load,structured_normal,structured_incentive","2,1,3,4,2,3","true","",""
"null","","html-keyboard-response","314","452772","0.0-314.0","","<img src=""img/set1/S3.jpg"" width=""540"" height = ""360"" style=""border:16px solid orange"">","null","","","","","","","",""
"null","","html-keyboard-response","315","452980","0.0-315.0","","","null","","","","","","","",""
"991.6999999880791","","image-keyboard-response","316","453978","0.0-316.0","","img/set1/S4.jpg","74","4","random","74","random,structured_load,structured_normal,structured_incentive","2,1,3,4,2,3","true","",""
"null","","html-keyboard-response","317","454337","0.0-317.0","","<img src=""img/set1/S4.jpg"" width=""540"" height = ""360"" style=""border:16px solid orange"">","null","","","","","","","",""
"null","","html-keyboard-response","318","454544","0.0-318.0","","","null","","","","","","","",""
"1105.4000000357628","","image-keyboard-response","319","455655","0.0-319.0","","img/set1/S2.jpg","68","2","random","68","random,structured_load,structured_normal,structured_incentive","2,1,3,4,2,3","true","",""
"null","","html-keyboard-response","320","456017","0.0-320.0","","<img src=""img/set1/S2.jpg"" width=""540"" height = ""360"" style=""border:16px solid orange"">","null","","","","","","","",""
"null","","html-keyboard-response","321","456224","0.0-321.0","","","null","","","","","","","",""
"810.9000000357628","","image-keyboard-response","322","457044","0.0-322.0","","img/set1/S4.jpg","74","4","random","74","random,structured_load,structured_normal,structured_incentive","2,1,3,4,2,3","true","",""
"null","","html-keyboard-response","323","457401","0.0-323.0","","<img src=""img/set1/S4.jpg"" width=""540"" height = ""360"" style=""border:16px solid orange"">","null","","","","","","","",""
"null","","html-keyboard-response","324","457607","0.0-324.0","","","null","","","","","","","",""
"753.6000000238419","","image-keyboard-response","325","458367","0.0-325.0","","img/set1/S4.jpg","74","4","random","74","random,structured_load,structured_normal,structured_incentive","2,1,3,4,2,3","true","",""
"null","","html-keyboard-response","326","458724","0.0-326.0","","<img src=""img/set1/S4.jpg"" width=""540"" height = ""360"" style=""border:16px solid orange"">","null","","","","","","","",""
"null","","html-keyboard-response","327","458931","0.0-327.0","","","null","","","","","","","",""
"830.8999999761581","","image-keyboard-response","328","459768","0.0-328.0","","img/set1/S4.jpg","74","4","random","74","random,structured_load,structured_normal,structured_incentive","2,1,3,4,2,3","true","",""
"null","","html-keyboard-response","329","460126","0.0-329.0","","<img src=""img/set1/S4.jpg"" width=""540"" height = ""360"" style=""border:16px solid orange"">","null","","","","","","","",""
"null","","html-keyboard-response","330","460336","0.0-330.0","","","null","","","","","","","",""
"1246.9000000357628","","image-keyboard-response","331","461593","0.0-331.0","","img/set1/S3.jpg","72","3","random","72","random,structured_load,structured_normal,structured_incentive","2,1,3,4,2,3","true","",""
"null","","html-keyboard-response","332","461950","0.0-332.0","","<img src=""img/set1/S3.jpg"" width=""540"" height = ""360"" style=""border:16px solid orange"">","null","","","","","","","",""
"null","","html-keyboard-response","333","462159","0.0-333.0","","","null","","","","","","","",""
"848","","image-keyboard-response","334","463012","0.0-334.0","","img/set1/S3.jpg","72","3","random","72","random,structured_load,structured_normal,structured_incentive","2,1,3,4,2,3","true","",""
"null","","html-keyboard-response","335","463372","0.0-335.0","","<img src=""img/set1/S3.jpg"" width=""540"" height = ""360"" style=""border:16px solid orange"">","null","","","","","","","",""
"null","","html-keyboard-response","336","463578","0.0-336.0","","","null","","","","","","","",""
"930.3000000119209","","image-keyboard-response","337","464515","0.0-337.0","","img/set1/S2.jpg","68","2","random","68","random,structured_load,structured_normal,structured_incentive","2,1,3,4,2,3","true","",""
"null","","html-keyboard-response","338","464870","0.0-338.0","","<img src=""img/set1/S2.jpg"" width=""540"" height = ""360"" style=""border:16px solid orange"">","null","","","","","","","",""
"null","","html-keyboard-response","339","465076","0.0-339.0","","","null","","","","","","","",""
"801.3999999761581","","image-keyboard-response","340","465885","0.0-340.0","","img/set1/S4.jpg","74","4","random","74","random,structured_load,structured_normal,structured_incentive","2,1,3,4,2,3","true","",""
"null","","html-keyboard-response","341","466243","0.0-341.0","","<img src=""img/set1/S4.jpg"" width=""540"" height = ""360"" style=""border:16px solid orange"">","null","","","","","","","",""
"null","","html-keyboard-response","342","466450","0.0-342.0","","","null","","","","","","","",""
"842.1999999880791","","image-keyboard-response","343","467299","0.0-343.0","","img/set1/S1.jpg","83","1","random","83","random,structured_load,structured_normal,structured_incentive","2,1,3,4,2,3","true","",""
"null","","html-keyboard-response","344","467659","0.0-344.0","","<img src=""img/set1/S1.jpg"" width=""540"" height = ""360"" style=""border:16px solid orange"">","null","","","","","","","",""
"null","","html-keyboard-response","345","467866","0.0-345.0","","","null","","","","","","","",""
"985.8999999761581","","image-keyboard-response","346","468858","0.0-346.0","","img/set1/S2.jpg","68","2","random","68","random,structured_load,structured_normal,structured_incentive","2,1,3,4,2,3","true","",""
"null","","html-keyboard-response","347","469215","0.0-347.0","","<img src=""img/set1/S2.jpg"" width=""540"" height = ""360"" style=""border:16px solid orange"">","null","","","","","","","",""
"null","","html-keyboard-response","348","469422","0.0-348.0","","","null","","","","","","","",""
"951.6000000238419","","image-keyboard-response","349","470381","0.0-349.0","","img/set1/S2.jpg","68","2","random","68","random,structured_load,structured_normal,structured_incentive","2,1,3,4,2,3","true","",""
"null","","html-keyboard-response","350","470741","0.0-350.0","","<img src=""img/set1/S2.jpg"" width=""540"" height = ""360"" style=""border:16px solid orange"">","null","","","","","","","",""
"null","","html-keyboard-response","351","470948","0.0-351.0","","","null","","","","","","","",""
"826.8999999761581","","image-keyboard-response","352","471782","0.0-352.0","","img/set1/S1.jpg","83","1","random","83","random,structured_load,structured_normal,structured_incentive","2,1,3,4,2,3","true","",""
"null","","html-keyboard-response","353","472141","0.0-353.0","","<img src=""img/set1/S1.jpg"" width=""540"" height = ""360"" style=""border:16px solid orange"">","null","","","","","","","",""
"null","","html-keyboard-response","354","472349","0.0-354.0","","","null","","","","","","","",""
"951.6000000238419","","image-keyboard-response","355","473306","0.0-355.0","","img/set1/S3.jpg","72","3","random","72","random,structured_load,structured_normal,structured_incentive","2,1,3,4,2,3","true","",""
"null","","html-keyboard-response","356","473663","0.0-356.0","","<img src=""img/set1/S3.jpg"" width=""540"" height = ""360"" style=""border:16px solid orange"">","null","","","","","","","",""
"null","","html-keyboard-response","357","473871","0.0-357.0","","","null","","","","","","","",""
"808.4000000357628","","image-keyboard-response","358","474686","0.0-358.0","","img/set1/S3.jpg","72","3","random","72","random,structured_load,structured_normal,structured_incentive","2,1,3,4,2,3","true","",""
"null","","html-keyboard-response","359","475045","0.0-359.0","","<img src=""img/set1/S3.jpg"" width=""540"" height = ""360"" style=""border:16px solid orange"">","null","","","","","","","",""
"null","","html-keyboard-response","360","475250","0.0-360.0","","","null","","","","","","","",""
"924","","image-keyboard-response","361","476179","0.0-361.0","","img/set1/S1.jpg","83","1","random","83","random,structured_load,structured_normal,structured_incentive","2,1,3,4,2,3","true","",""
"null","","html-keyboard-response","362","476537","0.0-362.0","","<img src=""img/set1/S1.jpg"" width=""540"" height = ""360"" style=""border:16px solid orange"">","null","","","","","","","",""
"null","","html-keyboard-response","363","476745","0.0-363.0","","","null","","","","","","","",""
"3557.5","","html-keyboard-response","364","480310","0.0-364.0","","<p class=""center-content"">You have completed a block! </p><p class=""center-content"">Press any key on the keyboard to continue, </p><p class=""center-content"">or wait for the automatic progression to the next block after one minute.</p>","32","","","","","","","",""
"14510.099999964237","","instructions","365","494822","0.0-365.0","[{""page_index"":0,""viewing_time"":14508.800000011921}]","","","","","","","","","",""
"46299.10000002384","","instructions","366","541124","0.0-366.0","[{""page_index"":0,""viewing_time"":38636.10000002384},{""page_index"":1,""viewing_time"":7661.300000011921}]","","","","","","","","","",""
"2059.900000035763","","image-keyboard-response","367","543189","0.0-367.0","","img/set2/S2.jpg","74","2","structured_load","68","random,structured_load,structured_normal,structured_incentive","2,1,3,4,2,3","false","",""
"null","","html-keyboard-response","368","543549","0.0-368.0","","<img src=""img/set2/S2.jpg"" width=""540"" height = ""360"">","null","","","","","","","",""
"null","","html-keyboard-response","369","543755","0.0-369.0","","","null","","","","","","","",""
"1626.800000011921","","image-keyboard-response","370","545394","0.0-370.0","","img/set2/S1.jpg","74","1","structured_load","83","random,structured_load,structured_normal,structured_incentive","2,1,3,4,2,3","false","",""
"null","","html-keyboard-response","371","545751","0.0-371.0","","<img src=""img/set2/S1.jpg"" width=""540"" height = ""360"">","null","","","","","","","",""
"null","","html-keyboard-response","372","545957","0.0-372.0","","","null","","","","","","","",""
"1648.1000000238419","","image-keyboard-response","373","547613","0.0-373.0","","img/set2/S4.jpg","74","4","structured_load","74","random,structured_load,structured_normal,structured_incentive","2,1,3,4,2,3","true","",""
"null","","html-keyboard-response","374","547971","0.0-374.0","","<img src=""img/set2/S4.jpg"" width=""540"" height = ""360"" style=""border:16px solid orange"">","null","","","","","","","",""
"null","","html-keyboard-response","375","548179","0.0-375.0","","","null","","","","","","","",""
"2199.5","","image-keyboard-response","376","550387","0.0-376.0","","img/set2/S3.jpg","72","3","structured_load","72","random,structured_load,structured_normal,structured_incentive","2,1,3,4,2,3","true","",""
"null","","html-keyboard-response","377","550746","0.0-377.0","","<img src=""img/set2/S3.jpg"" width=""540"" height = ""360"" style=""border:16px solid orange"">","null","","","","","","","",""
"null","","html-keyboard-response","378","550957","0.0-378.0","","","null","","","","","","","",""
"1782.8999999761581","","image-keyboard-response","379","552746","0.0-379.0","","img/set2/S2.jpg","68","2","structured_load","68","random,structured_load,structured_normal,structured_incentive","2,1,3,4,2,3","true","",""
"null","","html-keyboard-response","380","553107","0.0-380.0","","<img src=""img/set2/S2.jpg"" width=""540"" height = ""360"" style=""border:16px solid orange"">","null","","","","","","","",""
"null","","html-keyboard-response","381","553313","0.0-381.0","","","null","","","","","","","",""
"1284.4000000357628","","image-keyboard-response","382","554609","0.0-382.0","","img/set2/S1.jpg","74","1","structured_load","83","random,structured_load,structured_normal,structured_incentive","2,1,3,4,2,3","false","",""
"null","","html-keyboard-response","383","554966","0.0-383.0","","<img src=""img/set2/S1.jpg"" width=""540"" height = ""360"">","null","","","","","","","",""
"null","","html-keyboard-response","384","555174","0.0-384.0","","","null","","","","","","","",""
"1790.699999988079","","image-keyboard-response","385","556976","0.0-385.0","","img/set2/S3.jpg","74","3","structured_load","72","random,structured_load,structured_normal,structured_incentive","2,1,3,4,2,3","false","",""
"null","","html-keyboard-response","386","557334","0.0-386.0","","<img src=""img/set2/S3.jpg"" width=""540"" height = ""360"">","null","","","","","","","",""
"null","","html-keyboard-response","387","557543","0.0-387.0","","","null","","","","","","","",""
"2396.100000023842","","image-keyboard-response","388","559945","0.0-388.0","","img/set2/S3.jpg","68","3","structured_load","72","random,structured_load,structured_normal,structured_incentive","2,1,3,4,2,3","false","",""
"null","","html-keyboard-response","389","560306","0.0-389.0","","<img src=""img/set2/S3.jpg"" width=""540"" height = ""360"">","null","","","","","","","",""
"null","","html-keyboard-response","390","560513","0.0-390.0","","","null","","","","","","","",""
"1736","","image-keyboard-response","391","562259","0.0-391.0","","img/set2/S2.jpg","68","2","structured_load","68","random,structured_load,structured_normal,structured_incentive","2,1,3,4,2,3","true","",""
"null","","html-keyboard-response","392","562620","0.0-392.0","","<img src=""img/set2/S2.jpg"" width=""540"" height = ""360"" style=""border:16px solid orange"">","null","","","","","","","",""
"null","","html-keyboard-response","393","562830","0.0-393.0","","","null","","","","","","","",""
"1368.5","","image-keyboard-response","394","564205","0.0-394.0","","img/set2/S1.jpg","72","1","structured_load","83","random,structured_load,structured_normal,structured_incentive","2,1,3,4,2,3","false","",""
"null","","html-keyboard-response","395","564566","0.0-395.0","","<img src=""img/set2/S1.jpg"" width=""540"" height = ""360"">","null","","","","","","","",""
"null","","html-keyboard-response","396","564772","0.0-396.0","","","null","","","","","","","",""
"1410.199999988079","","image-keyboard-response","397","566188","0.0-397.0","","img/set2/S3.jpg","72","3","structured_load","72","random,structured_load,structured_normal,structured_incentive","2,1,3,4,2,3","true","",""
"null","","html-keyboard-response","398","566549","0.0-398.0","","<img src=""img/set2/S3.jpg"" width=""540"" height = ""360"" style=""border:16px solid orange"">","null","","","","","","","",""
"null","","html-keyboard-response","399","566758","0.0-399.0","","","null","","","","","","","",""
"1511.1000000238419","","image-keyboard-response","400","568277","0.0-400.0","","img/set2/S4.jpg","74","4","structured_load","74","random,structured_load,structured_normal,structured_incentive","2,1,3,4,2,3","true","",""
"null","","html-keyboard-response","401","568637","0.0-401.0","","<img src=""img/set2/S4.jpg"" width=""540"" height = ""360"" style=""border:16px solid orange"">","null","","","","","","","",""
"null","","html-keyboard-response","402","568844","0.0-402.0","","","null","","","","","","","",""
"1019.5","","image-keyboard-response","403","569870","0.0-403.0","","img/set2/S4.jpg","74","4","structured_load","74","random,structured_load,structured_normal,structured_incentive","2,1,3,4,2,3","true","",""
"null","","html-keyboard-response","404","570229","0.0-404.0","","<img src=""img/set2/S4.jpg"" width=""540"" height = ""360"" style=""border:16px solid orange"">","null","","","","","","","",""
"null","","html-keyboard-response","405","570435","0.0-405.0","","","null","","","","","","","",""
"870.4000000357628","","image-keyboard-response","406","571314","0.0-406.0","","img/set2/S3.jpg","72","3","structured_load","72","random,structured_load,structured_normal,structured_incentive","2,1,3,4,2,3","true","",""
"null","","html-keyboard-response","407","571674","0.0-407.0","","<img src=""img/set2/S3.jpg"" width=""540"" height = ""360"" style=""border:16px solid orange"">","null","","","","","","","",""
"null","","html-keyboard-response","408","571882","0.0-408.0","","","null","","","","","","","",""
"1044.300000011921","","image-keyboard-response","409","572937","0.0-409.0","","img/set2/S3.jpg","72","3","structured_load","72","random,structured_load,structured_normal,structured_incentive","2,1,3,4,2,3","true","",""
"null","","html-keyboard-response","410","573294","0.0-410.0","","<img src=""img/set2/S3.jpg"" width=""540"" height = ""360"" style=""border:16px solid orange"">","null","","","","","","","",""
"null","","html-keyboard-response","411","573505","0.0-411.0","","","null","","","","","","","",""
"1208.1000000238419","","image-keyboard-response","412","574720","0.0-412.0","","img/set2/S4.jpg","74","4","structured_load","74","random,structured_load,structured_normal,structured_incentive","2,1,3,4,2,3","true","",""
"null","","html-keyboard-response","413","575078","0.0-413.0","","<img src=""img/set2/S4.jpg"" width=""540"" height = ""360"" style=""border:16px solid orange"">","null","","","","","","","",""
"null","","html-keyboard-response","414","575287","0.0-414.0","","","null","","","","","","","",""
"1038","","image-keyboard-response","415","576333","0.0-415.0","","img/set2/S3.jpg","72","3","structured_load","72","random,structured_load,structured_normal,structured_incentive","2,1,3,4,2,3","true","",""
"null","","html-keyboard-response","416","576694","0.0-416.0","","<img src=""img/set2/S3.jpg"" width=""540"" height = ""360"" style=""border:16px solid orange"">","null","","","","","","","",""
"null","","html-keyboard-response","417","576903","0.0-417.0","","","null","","","","","","","",""
"1192.699999988079","","image-keyboard-response","418","578104","0.0-418.0","","img/set2/S4.jpg","74","4","structured_load","74","random,structured_load,structured_normal,structured_incentive","2,1,3,4,2,3","true","",""
"null","","html-keyboard-response","419","578463","0.0-419.0","","<img src=""img/set2/S4.jpg"" width=""540"" height = ""360"" style=""border:16px solid orange"">","null","","","","","","","",""
"null","","html-keyboard-response","420","578671","0.0-420.0","","","null","","","","","","","",""
"1131.3999999761581","","image-keyboard-response","421","579814","0.0-421.0","","img/set2/S4.jpg","74","4","structured_load","74","random,structured_load,structured_normal,structured_incentive","2,1,3,4,2,3","true","",""
"null","","html-keyboard-response","422","580176","0.0-422.0","","<img src=""img/set2/S4.jpg"" width=""540"" height = ""360"" style=""border:16px solid orange"">","null","","","","","","","",""
"null","","html-keyboard-response","423","580385","0.0-423.0","","","null","","","","","","","",""
"1662.5999999642372","","image-keyboard-response","424","582053","0.0-424.0","","img/set2/S2.jpg","83","2","structured_load","68","random,structured_load,structured_normal,structured_incentive","2,1,3,4,2,3","false","",""
"null","","html-keyboard-response","425","582413","0.0-425.0","","<img src=""img/set2/S2.jpg"" width=""540"" height = ""360"">","null","","","","","","","",""
"null","","html-keyboard-response","426","582621","0.0-426.0","","","null","","","","","","","",""
"1092","","image-keyboard-response","427","583720","0.0-427.0","","img/set2/S1.jpg","83","1","structured_load","83","random,structured_load,structured_normal,structured_incentive","2,1,3,4,2,3","true","",""
"null","","html-keyboard-response","428","584080","0.0-428.0","","<img src=""img/set2/S1.jpg"" width=""540"" height = ""360"" style=""border:16px solid orange"">","null","","","","","","","",""
"null","","html-keyboard-response","429","584286","0.0-429.0","","","null","","","","","","","",""
"null","","image-keyboard-response","430","586796","0.0-430.0","","img/set2/S3.jpg","null","3","structured_load","72","random,structured_load,structured_normal,structured_incentive","2,1,3,4,2,3","false","",""
"null","","html-keyboard-response","431","587161","0.0-431.0","","<img src=""img/set2/S3.jpg"" width=""540"" height = ""360"">","null","","","","","","","",""
"null","","html-keyboard-response","432","587367","0.0-432.0","","","null","","","","","","","",""
"19.400000035762787","","image-keyboard-response","433","587395","0.0-433.0","","img/set2/S3.jpg","72","3","structured_load","72","random,structured_load,structured_normal,structured_incentive","2,1,3,4,2,3","true","",""
"null","","html-keyboard-response","434","587757","0.0-434.0","","<img src=""img/set2/S3.jpg"" width=""540"" height = ""360"" style=""border:16px solid orange"">","null","","","","","","","",""
"null","","html-keyboard-response","435","587964","0.0-435.0","","","null","","","","","","","",""
"1177.3999999761581","","image-keyboard-response","436","589150","0.0-436.0","","img/set2/S2.jpg","68","2","structured_load","68","random,structured_load,structured_normal,structured_incentive","2,1,3,4,2,3","true","",""
"null","","html-keyboard-response","437","589507","0.0-437.0","","<img src=""img/set2/S2.jpg"" width=""540"" height = ""360"" style=""border:16px solid orange"">","null","","","","","","","",""
"null","","html-keyboard-response","438","589716","0.0-438.0","","","null","","","","","","","",""
"1693.199999988079","","image-keyboard-response","439","591415","0.0-439.0","","img/set2/S1.jpg","83","1","structured_load","83","random,structured_load,structured_normal,structured_incentive","2,1,3,4,2,3","true","",""
"null","","html-keyboard-response","440","591777","0.0-440.0","","<img src=""img/set2/S1.jpg"" width=""540"" height = ""360"" style=""border:16px solid orange"">","null","","","","","","","",""
"null","","html-keyboard-response","441","591983","0.0-441.0","","","null","","","","","","","",""
"2212.699999988079","","image-keyboard-response","442","594202","0.0-442.0","","img/set2/S2.jpg","68","2","structured_load","68","random,structured_load,structured_normal,structured_incentive","2,1,3,4,2,3","true","",""
"null","","html-keyboard-response","443","594560","0.0-443.0","","<img src=""img/set2/S2.jpg"" width=""540"" height = ""360"" style=""border:16px solid orange"">","null","","","","","","","",""
"null","","html-keyboard-response","444","594767","0.0-444.0","","","null","","","","","","","",""
"894.8000000119209","","image-keyboard-response","445","595666","0.0-445.0","","img/set2/S1.jpg","83","1","structured_load","83","random,structured_load,structured_normal,structured_incentive","2,1,3,4,2,3","true","",""
"null","","html-keyboard-response","446","596023","0.0-446.0","","<img src=""img/set2/S1.jpg"" width=""540"" height = ""360"" style=""border:16px solid orange"">","null","","","","","","","",""
"null","","html-keyboard-response","447","596230","0.0-447.0","","","null","","","","","","","",""
"1384.800000011921","","image-keyboard-response","448","597625","0.0-448.0","","img/set2/S4.jpg","74","4","structured_load","74","random,structured_load,structured_normal,structured_incentive","2,1,3,4,2,3","true","",""
"null","","html-keyboard-response","449","597983","0.0-449.0","","<img src=""img/set2/S4.jpg"" width=""540"" height = ""360"" style=""border:16px solid orange"">","null","","","","","","","",""
"null","","html-keyboard-response","450","598192","0.0-450.0","","","null","","","","","","","",""
"971.3000000119209","","image-keyboard-response","451","599173","0.0-451.0","","img/set2/S4.jpg","74","4","structured_load","74","random,structured_load,structured_normal,structured_incentive","2,1,3,4,2,3","true","",""
"null","","html-keyboard-response","452","599533","0.0-452.0","","<img src=""img/set2/S4.jpg"" width=""540"" height = ""360"" style=""border:16px solid orange"">","null","","","","","","","",""
"null","","html-keyboard-response","453","599741","0.0-453.0","","","null","","","","","","","",""
"1390.6000000238419","","image-keyboard-response","454","601140","0.0-454.0","","img/set2/S2.jpg","83","2","structured_load","68","random,structured_load,structured_normal,structured_incentive","2,1,3,4,2,3","false","",""
"null","","html-keyboard-response","455","601498","0.0-455.0","","<img src=""img/set2/S2.jpg"" width=""540"" height = ""360"">","null","","","","","","","",""
"null","","html-keyboard-response","456","601704","0.0-456.0","","","null","","","","","","","",""
"676.5999999642372","","image-keyboard-response","457","602392","0.0-457.0","","img/set2/S1.jpg","83","1","structured_load","83","random,structured_load,structured_normal,structured_incentive","2,1,3,4,2,3","true","",""
"null","","html-keyboard-response","458","602752","0.0-458.0","","<img src=""img/set2/S1.jpg"" width=""540"" height = ""360"" style=""border:16px solid orange"">","null","","","","","","","",""
"null","","html-keyboard-response","459","602961","0.0-459.0","","","null","","","","","","","",""
"1177.6000000238419","","image-keyboard-response","460","604153","0.0-460.0","","img/set2/S3.jpg","72","3","structured_load","72","random,structured_load,structured_normal,structured_incentive","2,1,3,4,2,3","true","",""
"null","","html-keyboard-response","461","604511","0.0-461.0","","<img src=""img/set2/S3.jpg"" width=""540"" height = ""360"" style=""border:16px solid orange"">","null","","","","","","","",""
"null","","html-keyboard-response","462","604721","0.0-462.0","","","null","","","","","","","",""
"962.5","","image-keyboard-response","463","605692","0.0-463.0","","img/set2/S2.jpg","68","2","structured_load","68","random,structured_load,structured_normal,structured_incentive","2,1,3,4,2,3","true","",""
"null","","html-keyboard-response","464","606051","0.0-464.0","","<img src=""img/set2/S2.jpg"" width=""540"" height = ""360"" style=""border:16px solid orange"">","null","","","","","","","",""
"null","","html-keyboard-response","465","606257","0.0-465.0","","","null","","","","","","","",""
"1016.7999999523163","","image-keyboard-response","466","607284","0.0-466.0","","img/set2/S1.jpg","83","1","structured_load","83","random,structured_load,structured_normal,structured_incentive","2,1,3,4,2,3","true","",""
"null","","html-keyboard-response","467","607644","0.0-467.0","","<img src=""img/set2/S1.jpg"" width=""540"" height = ""360"" style=""border:16px solid orange"">","null","","","","","","","",""
"null","","html-keyboard-response","468","607851","0.0-468.0","","","null","","","","","","","",""
"1782.1000000238419","","image-keyboard-response","469","609642","0.0-469.0","","img/set2/S4.jpg","74","4","structured_load","74","random,structured_load,structured_normal,structured_incentive","2,1,3,4,2,3","true","",""
"null","","html-keyboard-response","470","610001","0.0-470.0","","<img src=""img/set2/S4.jpg"" width=""540"" height = ""360"" style=""border:16px solid orange"">","null","","","","","","","",""
"null","","html-keyboard-response","471","610207","0.0-471.0","","","null","","","","","","","",""
"1471.0999999642372","","image-keyboard-response","472","611687","0.0-472.0","","img/set2/S2.jpg","68","2","structured_load","68","random,structured_load,structured_normal,structured_incentive","2,1,3,4,2,3","true","",""
"null","","html-keyboard-response","473","612045","0.0-473.0","","<img src=""img/set2/S2.jpg"" width=""540"" height = ""360"" style=""border:16px solid orange"">","null","","","","","","","",""
"null","","html-keyboard-response","474","612252","0.0-474.0","","","null","","","","","","","",""
"1088.2000000476837","","image-keyboard-response","475","613350","0.0-475.0","","img/set2/S1.jpg","83","1","structured_load","83","random,structured_load,structured_normal,structured_incentive","2,1,3,4,2,3","true","",""
"null","","html-keyboard-response","476","613710","0.0-476.0","","<img src=""img/set2/S1.jpg"" width=""540"" height = ""360"" style=""border:16px solid orange"">","null","","","","","","","",""
"null","","html-keyboard-response","477","613916","0.0-477.0","","","null","","","","","","","",""
"1711.6000000238419","","image-keyboard-response","478","615640","0.0-478.0","","img/set2/S3.jpg","72","3","structured_load","72","random,structured_load,structured_normal,structured_incentive","2,1,3,4,2,3","true","",""
"null","","html-keyboard-response","479","616000","0.0-479.0","","<img src=""img/set2/S3.jpg"" width=""540"" height = ""360"" style=""border:16px solid orange"">","null","","","","","","","",""
"null","","html-keyboard-response","480","616207","0.0-480.0","","","null","","","","","","","",""
"1355.2000000476837","","image-keyboard-response","481","617570","0.0-481.0","","img/set2/S2.jpg","68","2","structured_load","68","random,structured_load,structured_normal,structured_incentive","2,1,3,4,2,3","true","",""
"null","","html-keyboard-response","482","617930","0.0-482.0","","<img src=""img/set2/S2.jpg"" width=""540"" height = ""360"" style=""border:16px solid orange"">","null","","","","","","","",""
"null","","html-keyboard-response","483","618139","0.0-483.0","","","null","","","","","","","",""
"982.1999999880791","","image-keyboard-response","484","619127","0.0-484.0","","img/set2/S1.jpg","83","1","structured_load","83","random,structured_load,structured_normal,structured_incentive","2,1,3,4,2,3","true","",""
"null","","html-keyboard-response","485","619485","0.0-485.0","","<img src=""img/set2/S1.jpg"" width=""540"" height = ""360"" style=""border:16px solid orange"">","null","","","","","","","",""
"null","","html-keyboard-response","486","619692","0.0-486.0","","","null","","","","","","","",""
"2240.100000023842","","image-keyboard-response","487","621942","0.0-487.0","","img/set2/S2.jpg","74","2","structured_load","68","random,structured_load,structured_normal,structured_incentive","2,1,3,4,2,3","false","",""
"null","","html-keyboard-response","488","622302","0.0-488.0","","<img src=""img/set2/S2.jpg"" width=""540"" height = ""360"">","null","","","","","","","",""
"null","","html-keyboard-response","489","622509","0.0-489.0","","","null","","","","","","","",""
"1202.4000000357628","","image-keyboard-response","490","623721","0.0-490.0","","img/set2/S1.jpg","83","1","structured_load","83","random,structured_load,structured_normal,structured_incentive","2,1,3,4,2,3","true","",""
"null","","html-keyboard-response","491","624080","0.0-491.0","","<img src=""img/set2/S1.jpg"" width=""540"" height = ""360"" style=""border:16px solid orange"">","null","","","","","","","",""
"null","","html-keyboard-response","492","624290","0.0-492.0","","","null","","","","","","","",""
"827.0999999642372","","image-keyboard-response","493","625125","0.0-493.0","","img/set2/S2.jpg","68","2","structured_load","68","random,structured_load,structured_normal,structured_incentive","2,1,3,4,2,3","true","",""
"null","","html-keyboard-response","494","625486","0.0-494.0","","<img src=""img/set2/S2.jpg"" width=""540"" height = ""360"" style=""border:16px solid orange"">","null","","","","","","","",""
"null","","html-keyboard-response","495","625695","0.0-495.0","","","null","","","","","","","",""
"984.7000000476837","","image-keyboard-response","496","626688","0.0-496.0","","img/set2/S1.jpg","83","1","structured_load","83","random,structured_load,structured_normal,structured_incentive","2,1,3,4,2,3","true","",""
"null","","html-keyboard-response","497","627048","0.0-497.0","","<img src=""img/set2/S1.jpg"" width=""540"" height = ""360"" style=""border:16px solid orange"">","null","","","","","","","",""
"null","","html-keyboard-response","498","627255","0.0-498.0","","","null","","","","","","","",""
"1753.8999999761581","","image-keyboard-response","499","629017","0.0-499.0","","img/set2/S4.jpg","74","4","structured_load","74","random,structured_load,structured_normal,structured_incentive","2,1,3,4,2,3","true","",""
"null","","html-keyboard-response","500","629376","0.0-500.0","","<img src=""img/set2/S4.jpg"" width=""540"" height = ""360"" style=""border:16px solid orange"">","null","","","","","","","",""
"null","","html-keyboard-response","501","629586","0.0-501.0","","","null","","","","","","","",""
"1632.8999999761581","","image-keyboard-response","502","631227","0.0-502.0","","img/set2/S2.jpg","68","2","structured_load","68","random,structured_load,structured_normal,structured_incentive","2,1,3,4,2,3","true","",""
"null","","html-keyboard-response","503","631587","0.0-503.0","","<img src=""img/set2/S2.jpg"" width=""540"" height = ""360"" style=""border:16px solid orange"">","null","","","","","","","",""
"null","","html-keyboard-response","504","631795","0.0-504.0","","","null","","","","","","","",""
"1348.5","","image-keyboard-response","505","633154","0.0-505.0","","img/set2/S1.jpg","83","1","structured_load","83","random,structured_load,structured_normal,structured_incentive","2,1,3,4,2,3","true","",""
"null","","html-keyboard-response","506","633514","0.0-506.0","","<img src=""img/set2/S1.jpg"" width=""540"" height = ""360"" style=""border:16px solid orange"">","null","","","","","","","",""
"null","","html-keyboard-response","507","633722","0.0-507.0","","","null","","","","","","","",""
"1378","","image-keyboard-response","508","635106","0.0-508.0","","img/set2/S2.jpg","68","2","structured_load","68","random,structured_load,structured_normal,structured_incentive","2,1,3,4,2,3","true","",""
"null","","html-keyboard-response","509","635465","0.0-509.0","","<img src=""img/set2/S2.jpg"" width=""540"" height = ""360"" style=""border:16px solid orange"">","null","","","","","","","",""
"null","","html-keyboard-response","510","635673","0.0-510.0","","","null","","","","","","","",""
"1708.6000000238419","","image-keyboard-response","511","637393","0.0-511.0","","img/set2/S1.jpg","83","1","structured_load","83","random,structured_load,structured_normal,structured_incentive","2,1,3,4,2,3","true","",""
"null","","html-keyboard-response","512","637755","0.0-512.0","","<img src=""img/set2/S1.jpg"" width=""540"" height = ""360"" style=""border:16px solid orange"">","null","","","","","","","",""
"null","","html-keyboard-response","513","637966","0.0-513.0","","","null","","","","","","","",""
"1484.1000000238419","","image-keyboard-response","514","639460","0.0-514.0","","img/set2/S4.jpg","74","4","structured_load","74","random,structured_load,structured_normal,structured_incentive","2,1,3,4,2,3","true","",""
"null","","html-keyboard-response","515","639818","0.0-515.0","","<img src=""img/set2/S4.jpg"" width=""540"" height = ""360"" style=""border:16px solid orange"">","null","","","","","","","",""
"null","","html-keyboard-response","516","640026","0.0-516.0","","","null","","","","","","","",""
"947.2000000476837","","image-keyboard-response","517","640982","0.0-517.0","","img/set2/S4.jpg","74","4","structured_load","74","random,structured_load,structured_normal,structured_incentive","2,1,3,4,2,3","true","",""
"null","","html-keyboard-response","518","641345","0.0-518.0","","<img src=""img/set2/S4.jpg"" width=""540"" height = ""360"" style=""border:16px solid orange"">","null","","","","","","","",""
"null","","html-keyboard-response","519","641553","0.0-519.0","","","null","","","","","","","",""
"1310.8999999761581","","image-keyboard-response","520","642873","0.0-520.0","","img/set2/S2.jpg","68","2","structured_load","68","random,structured_load,structured_normal,structured_incentive","2,1,3,4,2,3","true","",""
"null","","html-keyboard-response","521","643233","0.0-521.0","","<img src=""img/set2/S2.jpg"" width=""540"" height = ""360"" style=""border:16px solid orange"">","null","","","","","","","",""
"null","","html-keyboard-response","522","643442","0.0-522.0","","","null","","","","","","","",""
"982.2999999523163","","image-keyboard-response","523","644433","0.0-523.0","","img/set2/S1.jpg","83","1","structured_load","83","random,structured_load,structured_normal,structured_incentive","2,1,3,4,2,3","true","",""
"null","","html-keyboard-response","524","644789","0.0-524.0","","<img src=""img/set2/S1.jpg"" width=""540"" height = ""360"" style=""border:16px solid orange"">","null","","","","","","","",""
"null","","html-keyboard-response","525","644994","0.0-525.0","","","null","","","","","","","",""
"1536.6000000238419","","image-keyboard-response","526","646537","0.0-526.0","","img/set2/S3.jpg","72","3","structured_load","72","random,structured_load,structured_normal,structured_incentive","2,1,3,4,2,3","true","",""
"null","","html-keyboard-response","527","646897","0.0-527.0","","<img src=""img/set2/S3.jpg"" width=""540"" height = ""360"" style=""border:16px solid orange"">","null","","","","","","","",""
"null","","html-keyboard-response","528","647106","0.0-528.0","","","null","","","","","","","",""
"1213","","image-keyboard-response","529","648329","0.0-529.0","","img/set2/S4.jpg","74","4","structured_load","74","random,structured_load,structured_normal,structured_incentive","2,1,3,4,2,3","true","",""
"null","","html-keyboard-response","530","648690","0.0-530.0","","<img src=""img/set2/S4.jpg"" width=""540"" height = ""360"" style=""border:16px solid orange"">","null","","","","","","","",""
"null","","html-keyboard-response","531","648898","0.0-531.0","","","null","","","","","","","",""
"1899.5","","image-keyboard-response","532","650805","0.0-532.0","","img/set2/S2.jpg","68","2","structured_load","68","random,structured_load,structured_normal,structured_incentive","2,1,3,4,2,3","true","",""
"null","","html-keyboard-response","533","651166","0.0-533.0","","<img src=""img/set2/S2.jpg"" width=""540"" height = ""360"" style=""border:16px solid orange"">","null","","","","","","","",""
"null","","html-keyboard-response","534","651373","0.0-534.0","","","null","","","","","","","",""
"1530","","image-keyboard-response","535","652910","0.0-535.0","","img/set2/S1.jpg","83","1","structured_load","83","random,structured_load,structured_normal,structured_incentive","2,1,3,4,2,3","true","",""
"null","","html-keyboard-response","536","653271","0.0-536.0","","<img src=""img/set2/S1.jpg"" width=""540"" height = ""360"" style=""border:16px solid orange"">","null","","","","","","","",""
"null","","html-keyboard-response","537","653482","0.0-537.0","","","null","","","","","","","",""
"1743.0999999642372","","image-keyboard-response","538","655230","0.0-538.0","","img/set2/S3.jpg","72","3","structured_load","72","random,structured_load,structured_normal,structured_incentive","2,1,3,4,2,3","true","",""
"null","","html-keyboard-response","539","655590","0.0-539.0","","<img src=""img/set2/S3.jpg"" width=""540"" height = ""360"" style=""border:16px solid orange"">","null","","","","","","","",""
"null","","html-keyboard-response","540","655801","0.0-540.0","","","null","","","","","","","",""
"925.9000000357628","","image-keyboard-response","541","656733","0.0-541.0","","img/set2/S3.jpg","72","3","structured_load","72","random,structured_load,structured_normal,structured_incentive","2,1,3,4,2,3","true","",""
"null","","html-keyboard-response","542","657092","0.0-542.0","","<img src=""img/set2/S3.jpg"" width=""540"" height = ""360"" style=""border:16px solid orange"">","null","","","","","","","",""
"null","","html-keyboard-response","543","657301","0.0-543.0","","","null","","","","","","","",""
"2226.300000011921","","image-keyboard-response","544","659535","0.0-544.0","","img/set2/S3.jpg","72","3","structured_load","72","random,structured_load,structured_normal,structured_incentive","2,1,3,4,2,3","true","",""
"null","","html-keyboard-response","545","659892","0.0-545.0","","<img src=""img/set2/S3.jpg"" width=""540"" height = ""360"" style=""border:16px solid orange"">","null","","","","","","","",""
"null","","html-keyboard-response","546","660098","0.0-546.0","","","null","","","","","","","",""
"2220.899999976158","","image-keyboard-response","547","662326","0.0-547.0","","img/set2/S3.jpg","72","3","structured_load","72","random,structured_load,structured_normal,structured_incentive","2,1,3,4,2,3","true","",""
"null","","html-keyboard-response","548","662683","0.0-548.0","","<img src=""img/set2/S3.jpg"" width=""540"" height = ""360"" style=""border:16px solid orange"">","null","","","","","","","",""
"null","","html-keyboard-response","549","662890","0.0-549.0","","","null","","","","","","","",""
"1995","","image-keyboard-response","550","664892","0.0-550.0","","img/set2/S2.jpg","68","2","structured_load","68","random,structured_load,structured_normal,structured_incentive","2,1,3,4,2,3","true","",""
"null","","html-keyboard-response","551","665250","0.0-551.0","","<img src=""img/set2/S2.jpg"" width=""540"" height = ""360"" style=""border:16px solid orange"">","null","","","","","","","",""
"null","","html-keyboard-response","552","665455","0.0-552.0","","","null","","","","","","","",""
"1382.699999988079","","image-keyboard-response","553","666845","0.0-553.0","","img/set2/S1.jpg","83","1","structured_load","83","random,structured_load,structured_normal,structured_incentive","2,1,3,4,2,3","true","",""
"null","","html-keyboard-response","554","667208","0.0-554.0","","<img src=""img/set2/S1.jpg"" width=""540"" height = ""360"" style=""border:16px solid orange"">","null","","","","","","","",""
"null","","html-keyboard-response","555","667419","0.0-555.0","","","null","","","","","","","",""
"1822.699999988079","","image-keyboard-response","556","669249","0.0-556.0","","img/set2/S4.jpg","74","4","structured_load","74","random,structured_load,structured_normal,structured_incentive","2,1,3,4,2,3","true","",""
"null","","html-keyboard-response","557","669609","0.0-557.0","","<img src=""img/set2/S4.jpg"" width=""540"" height = ""360"" style=""border:16px solid orange"">","null","","","","","","","",""
"null","","html-keyboard-response","558","669817","0.0-558.0","","","null","","","","","","","",""
"1280.5","","image-keyboard-response","559","671107","0.0-559.0","","img/set2/S3.jpg","72","3","structured_load","72","random,structured_load,structured_normal,structured_incentive","2,1,3,4,2,3","true","",""
"null","","html-keyboard-response","560","671469","0.0-560.0","","<img src=""img/set2/S3.jpg"" width=""540"" height = ""360"" style=""border:16px solid orange"">","null","","","","","","","",""
"null","","html-keyboard-response","561","671679","0.0-561.0","","","null","","","","","","","",""
"null","","image-keyboard-response","562","674192","0.0-562.0","","img/set2/S4.jpg","null","4","structured_load","74","random,structured_load,structured_normal,structured_incentive","2,1,3,4,2,3","false","",""
"null","","html-keyboard-response","563","674556","0.0-563.0","","<img src=""img/set2/S4.jpg"" width=""540"" height = ""360"">","null","","","","","","","",""
"null","","html-keyboard-response","564","674764","0.0-564.0","","","null","","","","","","","",""
"1260.6000000238419","","image-keyboard-response","565","676035","0.0-565.0","","img/set2/S4.jpg","72","4","structured_load","74","random,structured_load,structured_normal,structured_incentive","2,1,3,4,2,3","false","",""
"null","","html-keyboard-response","566","676394","0.0-566.0","","<img src=""img/set2/S4.jpg"" width=""540"" height = ""360"">","null","","","","","","","",""
"null","","html-keyboard-response","567","676601","0.0-567.0","","","null","","","","","","","",""
"780.8999999761581","","image-keyboard-response","568","677393","0.0-568.0","","img/set2/S4.jpg","74","4","structured_load","74","random,structured_load,structured_normal,structured_incentive","2,1,3,4,2,3","true","",""
"null","","html-keyboard-response","569","677752","0.0-569.0","","<img src=""img/set2/S4.jpg"" width=""540"" height = ""360"" style=""border:16px solid orange"">","null","","","","","","","",""
"null","","html-keyboard-response","570","677960","0.0-570.0","","","null","","","","","","","",""
"926.1999999880791","","image-keyboard-response","571","678893","0.0-571.0","","img/set2/S4.jpg","74","4","structured_load","74","random,structured_load,structured_normal,structured_incentive","2,1,3,4,2,3","true","",""
"null","","html-keyboard-response","572","679254","0.0-572.0","","<img src=""img/set2/S4.jpg"" width=""540"" height = ""360"" style=""border:16px solid orange"">","null","","","","","","","",""
"null","","html-keyboard-response","573","679461","0.0-573.0","","","null","","","","","","","",""
"null","","image-keyboard-response","574","681969","0.0-574.0","","img/set2/S4.jpg","null","4","structured_load","74","random,structured_load,structured_normal,structured_incentive","2,1,3,4,2,3","false","",""
"null","","html-keyboard-response","575","682327","0.0-575.0","","<img src=""img/set2/S4.jpg"" width=""540"" height = ""360"">","null","","","","","","","",""
"null","","html-keyboard-response","576","682536","0.0-576.0","","","null","","","","","","","",""
"878.4000000357628","","image-keyboard-response","577","683424","0.0-577.0","","img/set2/S3.jpg","72","3","structured_load","72","random,structured_load,structured_normal,structured_incentive","2,1,3,4,2,3","true","",""
"null","","html-keyboard-response","578","683784","0.0-578.0","","<img src=""img/set2/S3.jpg"" width=""540"" height = ""360"" style=""border:16px solid orange"">","null","","","","","","","",""
"null","","html-keyboard-response","579","683993","0.0-579.0","","","null","","","","","","","",""
"1250.199999988079","","image-keyboard-response","580","685249","0.0-580.0","","img/set2/S3.jpg","72","3","structured_load","72","random,structured_load,structured_normal,structured_incentive","2,1,3,4,2,3","true","",""
"null","","html-keyboard-response","581","685608","0.0-581.0","","<img src=""img/set2/S3.jpg"" width=""540"" height = ""360"" style=""border:16px solid orange"">","null","","","","","","","",""
"null","","html-keyboard-response","582","685816","0.0-582.0","","","null","","","","","","","",""
"1669.5","","image-keyboard-response","583","687496","0.0-583.0","","img/set2/S2.jpg","68","2","structured_load","68","random,structured_load,structured_normal,structured_incentive","2,1,3,4,2,3","true","",""
"null","","html-keyboard-response","584","687856","0.0-584.0","","<img src=""img/set2/S2.jpg"" width=""540"" height = ""360"" style=""border:16px solid orange"">","null","","","","","","","",""
"null","","html-keyboard-response","585","688064","0.0-585.0","","","null","","","","","","","",""
"null","","image-keyboard-response","586","690575","0.0-586.0","","img/set2/S1.jpg","null","1","structured_load","83","random,structured_load,structured_normal,structured_incentive","2,1,3,4,2,3","false","",""
"null","","html-keyboard-response","587","690936","0.0-587.0","","<img src=""img/set2/S1.jpg"" width=""540"" height = ""360"">","null","","","","","","","",""
"null","","html-keyboard-response","588","691142","0.0-588.0","","","null","","","","","","","",""
"1811","","image-keyboard-response","589","692963","0.0-589.0","","img/set2/S3.jpg","72","3","structured_load","72","random,structured_load,structured_normal,structured_incentive","2,1,3,4,2,3","true","",""
"null","","html-keyboard-response","590","693322","0.0-590.0","","<img src=""img/set2/S3.jpg"" width=""540"" height = ""360"" style=""border:16px solid orange"">","null","","","","","","","",""
"null","","html-keyboard-response","591","693530","0.0-591.0","","","null","","","","","","","",""
"1199.1000000238419","","image-keyboard-response","592","694735","0.0-592.0","","img/set2/S3.jpg","72","3","structured_load","72","random,structured_load,structured_normal,structured_incentive","2,1,3,4,2,3","true","",""
"null","","html-keyboard-response","593","695092","0.0-593.0","","<img src=""img/set2/S3.jpg"" width=""540"" height = ""360"" style=""border:16px solid orange"">","null","","","","","","","",""
"null","","html-keyboard-response","594","695298","0.0-594.0","","","null","","","","","","","",""
