"rt","url","trial_type","trial_index","time_elapsed","internal_node_id","view_history","stimulus","key_press","state","test_part","correct_response","order_block","order_chunk","order_freq","correct","responses","question_order","bonus"
"9620.5","consent.html","external-html","0","9870","0.0-0.0","","","","","","","","","","","","",""
"182700","","instructions","1","192573","0.0-1.0","[{""page_index"":0,""viewing_time"":22632.600000023842},{""page_index"":1,""viewing_time"":100234.10000002384},{""page_index"":2,""viewing_time"":14303.5},{""page_index"":3,""viewing_time"":15084},{""page_index"":4,""viewing_time"":6890.100000023842},{""page_index"":5,""viewing_time"":13810},{""page_index"":6,""viewing_time"":9744.299999952316}]","","","","","","","","","","","",""
"10952.699999928474","","instructions","2","203527","0.0-2.0","[{""page_index"":0,""viewing_time"":10952.399999976158}]","","","","","","","","","","","",""
"6259.200000047684","","instructions","3","209787","0.0-3.0","[{""page_index"":0,""viewing_time"":6258.700000047684}]","","","","","","","","","","","",""
"886","","image-keyboard-response","4","210677","0.0-4.0","","img/set1/S4.jpg","68","4","random","74","random,structured_incentive,structured_load,structured_normal","2,1,3,4,2,3","4,2,3,1","false","","",""
"null","","html-keyboard-response","5","211035","0.0-5.0","","<img src=""img/set1/S4.jpg"" width=""540"" height = ""360"">","null","","","","","","","","","",""
"null","","html-keyboard-response","6","211238","0.0-6.0","","","null","","","","","","","","","",""
"1076.8000000715256","","image-keyboard-response","7","212318","0.0-7.0","","img/set1/S2.jpg","72","2","random","68","random,structured_incentive,structured_load,structured_normal","2,1,3,4,2,3","4,2,3,1","false","","",""
"null","","html-keyboard-response","8","212673","0.0-8.0","","<img src=""img/set1/S2.jpg"" width=""540"" height = ""360"">","null","","","","","","","","","",""
"null","","html-keyboard-response","9","212875","0.0-9.0","","","null","","","","","","","","","",""
"570.9000000953674","","image-keyboard-response","10","213448","0.0-10.0","","img/set1/S1.jpg","83","1","random","83","random,structured_incentive,structured_load,structured_normal","2,1,3,4,2,3","4,2,3,1","true","","",""
"null","","html-keyboard-response","11","213803","0.0-11.0","","<img src=""img/set1/S1.jpg"" width=""540"" height = ""360"" style=""border:16px solid orange"">","null","","","","","","","","","",""
"null","","html-keyboard-response","12","214005","0.0-12.0","","","null","","","","","","","","","",""
"434.39999997615814","","image-keyboard-response","13","214440","0.0-13.0","","img/set1/S2.jpg","68","2","random","68","random,structured_incentive,structured_load,structured_normal","2,1,3,4,2,3","4,2,3,1","true","","",""
"null","","html-keyboard-response","14","214793","0.0-14.0","","<img src=""img/set1/S2.jpg"" width=""540"" height = ""360"" style=""border:16px solid orange"">","null","","","","","","","","","",""
"null","","html-keyboard-response","15","214996","0.0-15.0","","","null","","","","","","","","","",""
"693.7999999523163","","image-keyboard-response","16","215691","0.0-16.0","","img/set1/S1.jpg","72","1","random","83","random,structured_incentive,structured_load,structured_normal","2,1,3,4,2,3","4,2,3,1","false","","",""
"null","","html-keyboard-response","17","216045","0.0-17.0","","<img src=""img/set1/S1.jpg"" width=""540"" height = ""360"">","null","","","","","","","","","",""
"null","","html-keyboard-response","18","216246","0.0-18.0","","","null","","","","","","","","","",""
"795.5","","image-keyboard-response","19","217043","0.0-19.0","","img/set1/S3.jpg","83","3","random","72","random,structured_incentive,structured_load,structured_normal","2,1,3,4,2,3","4,2,3,1","false","","",""
"null","","html-keyboard-response","20","217394","0.0-20.0","","<img src=""img/set1/S3.jpg"" width=""540"" height = ""360"">","null","","","","","","","","","",""
"null","","html-keyboard-response","21","217596","0.0-21.0","","","null","","","","","","","","","",""
"1022.6000000238419","","image-keyboard-response","22","218620","0.0-22.0","","img/set1/S4.jpg","83","4","random","74","random,structured_incentive,structured_load,structured_normal","2,1,3,4,2,3","4,2,3,1","false","","",""
"null","","html-keyboard-response","23","218985","0.0-23.0","","<img src=""img/set1/S4.jpg"" width=""540"" height = ""360"">","null","","","","","","","","","",""
"null","","html-keyboard-response","24","219188","0.0-24.0","","","null","","","","","","","","","",""
"893.1000000238419","","image-keyboard-response","25","220083","0.0-25.0","","img/set1/S2.jpg","68","2","random","68","random,structured_incentive,structured_load,structured_normal","2,1,3,4,2,3","4,2,3,1","true","","",""
"null","","html-keyboard-response","26","220438","0.0-26.0","","<img src=""img/set1/S2.jpg"" width=""540"" height = ""360"" style=""border:16px solid orange"">","null","","","","","","","","","",""
"null","","html-keyboard-response","27","220641","0.0-27.0","","","null","","","","","","","","","",""
"536.5999999046326","","image-keyboard-response","28","221179","0.0-28.0","","img/set1/S2.jpg","68","2","random","68","random,structured_incentive,structured_load,structured_normal","2,1,3,4,2,3","4,2,3,1","true","","",""
"null","","html-keyboard-response","29","221533","0.0-29.0","","<img src=""img/set1/S2.jpg"" width=""540"" height = ""360"" style=""border:16px solid orange"">","null","","","","","","","","","",""
"null","","html-keyboard-response","30","221736","0.0-30.0","","","null","","","","","","","","","",""
"536.1000000238419","","image-keyboard-response","31","222273","0.0-31.0","","img/set1/S1.jpg","72","1","random","83","random,structured_incentive,structured_load,structured_normal","2,1,3,4,2,3","4,2,3,1","false","","",""
"null","","html-keyboard-response","32","222625","0.0-32.0","","<img src=""img/set1/S1.jpg"" width=""540"" height = ""360"">","null","","","","","","","","","",""
"null","","html-keyboard-response","33","222828","0.0-33.0","","","null","","","","","","","","","",""
"811.8000000715256","","image-keyboard-response","34","223641","0.0-34.0","","img/set1/S3.jpg","72","3","random","72","random,structured_incentive,structured_load,structured_normal","2,1,3,4,2,3","4,2,3,1","true","","",""
"null","","html-keyboard-response","35","223994","0.0-35.0","","<img src=""img/set1/S3.jpg"" width=""540"" height = ""360"" style=""border:16px solid orange"">","null","","","","","","","","","",""
"null","","html-keyboard-response","36","224197","0.0-36.0","","","null","","","","","","","","","",""
"439.8000000715256","","image-keyboard-response","37","224640","0.0-37.0","","img/set1/S4.jpg","74","4","random","74","random,structured_incentive,structured_load,structured_normal","2,1,3,4,2,3","4,2,3,1","true","","",""
"null","","html-keyboard-response","38","224992","0.0-38.0","","<img src=""img/set1/S4.jpg"" width=""540"" height = ""360"" style=""border:16px solid orange"">","null","","","","","","","","","",""
"null","","html-keyboard-response","39","225195","0.0-39.0","","","null","","","","","","","","","",""
"651","","image-keyboard-response","40","225848","0.0-40.0","","img/set1/S4.jpg","74","4","random","74","random,structured_incentive,structured_load,structured_normal","2,1,3,4,2,3","4,2,3,1","true","","",""
"null","","html-keyboard-response","41","226201","0.0-41.0","","<img src=""img/set1/S4.jpg"" width=""540"" height = ""360"" style=""border:16px solid orange"">","null","","","","","","","","","",""
"null","","html-keyboard-response","42","226403","0.0-42.0","","","null","","","","","","","","","",""
"814.3000000715256","","image-keyboard-response","43","227218","0.0-43.0","","img/set1/S1.jpg","83","1","random","83","random,structured_incentive,structured_load,structured_normal","2,1,3,4,2,3","4,2,3,1","true","","",""
"null","","html-keyboard-response","44","227571","0.0-44.0","","<img src=""img/set1/S1.jpg"" width=""540"" height = ""360"" style=""border:16px solid orange"">","null","","","","","","","","","",""
"null","","html-keyboard-response","45","227784","0.0-45.0","","","null","","","","","","","","","",""
"442.10000002384186","","image-keyboard-response","46","228228","0.0-46.0","","img/set1/S2.jpg","68","2","random","68","random,structured_incentive,structured_load,structured_normal","2,1,3,4,2,3","4,2,3,1","true","","",""
"null","","html-keyboard-response","47","228583","0.0-47.0","","<img src=""img/set1/S2.jpg"" width=""540"" height = ""360"" style=""border:16px solid orange"">","null","","","","","","","","","",""
"null","","html-keyboard-response","48","228786","0.0-48.0","","","null","","","","","","","","","",""
"613.9000000953674","","image-keyboard-response","49","229401","0.0-49.0","","img/set1/S4.jpg","74","4","random","74","random,structured_incentive,structured_load,structured_normal","2,1,3,4,2,3","4,2,3,1","true","","",""
"null","","html-keyboard-response","50","229754","0.0-50.0","","<img src=""img/set1/S4.jpg"" width=""540"" height = ""360"" style=""border:16px solid orange"">","null","","","","","","","","","",""
"null","","html-keyboard-response","51","229955","0.0-51.0","","","null","","","","","","","","","",""
"613.7000000476837","","image-keyboard-response","52","230570","0.0-52.0","","img/set1/S3.jpg","83","3","random","72","random,structured_incentive,structured_load,structured_normal","2,1,3,4,2,3","4,2,3,1","false","","",""
"null","","html-keyboard-response","53","230923","0.0-53.0","","<img src=""img/set1/S3.jpg"" width=""540"" height = ""360"">","null","","","","","","","","","",""
"null","","html-keyboard-response","54","231125","0.0-54.0","","","null","","","","","","","","","",""
"741.6999999284744","","image-keyboard-response","55","231868","0.0-55.0","","img/set1/S4.jpg","74","4","random","74","random,structured_incentive,structured_load,structured_normal","2,1,3,4,2,3","4,2,3,1","true","","",""
"null","","html-keyboard-response","56","232220","0.0-56.0","","<img src=""img/set1/S4.jpg"" width=""540"" height = ""360"" style=""border:16px solid orange"">","null","","","","","","","","","",""
"null","","html-keyboard-response","57","232433","0.0-57.0","","","null","","","","","","","","","",""
"662.3000000715256","","image-keyboard-response","58","233099","0.0-58.0","","img/set1/S1.jpg","83","1","random","83","random,structured_incentive,structured_load,structured_normal","2,1,3,4,2,3","4,2,3,1","true","","",""
"null","","html-keyboard-response","59","233452","0.0-59.0","","<img src=""img/set1/S1.jpg"" width=""540"" height = ""360"" style=""border:16px solid orange"">","null","","","","","","","","","",""
"null","","html-keyboard-response","60","233654","0.0-60.0","","","null","","","","","","","","","",""
"512.7000000476837","","image-keyboard-response","61","234168","0.0-61.0","","img/set1/S2.jpg","68","2","random","68","random,structured_incentive,structured_load,structured_normal","2,1,3,4,2,3","4,2,3,1","true","","",""
"null","","html-keyboard-response","62","234520","0.0-62.0","","<img src=""img/set1/S2.jpg"" width=""540"" height = ""360"" style=""border:16px solid orange"">","null","","","","","","","","","",""
"null","","html-keyboard-response","63","234734","0.0-63.0","","","null","","","","","","","","","",""
"824.3000000715256","","image-keyboard-response","64","235560","0.0-64.0","","img/set1/S2.jpg","83","2","random","68","random,structured_incentive,structured_load,structured_normal","2,1,3,4,2,3","4,2,3,1","false","","",""
"null","","html-keyboard-response","65","235915","0.0-65.0","","<img src=""img/set1/S2.jpg"" width=""540"" height = ""360"">","null","","","","","","","","","",""
"null","","html-keyboard-response","66","236120","0.0-66.0","","","null","","","","","","","","","",""
"703.4000000953674","","image-keyboard-response","67","236826","0.0-67.0","","img/set1/S4.jpg","74","4","random","74","random,structured_incentive,structured_load,structured_normal","2,1,3,4,2,3","4,2,3,1","true","","",""
"null","","html-keyboard-response","68","237179","0.0-68.0","","<img src=""img/set1/S4.jpg"" width=""540"" height = ""360"" style=""border:16px solid orange"">","null","","","","","","","","","",""
"null","","html-keyboard-response","69","237384","0.0-69.0","","","null","","","","","","","","","",""
"703.2000000476837","","image-keyboard-response","70","238091","0.0-70.0","","img/set1/S3.jpg","72","3","random","72","random,structured_incentive,structured_load,structured_normal","2,1,3,4,2,3","4,2,3,1","true","","",""
"null","","html-keyboard-response","71","238443","0.0-71.0","","<img src=""img/set1/S3.jpg"" width=""540"" height = ""360"" style=""border:16px solid orange"">","null","","","","","","","","","",""
"null","","html-keyboard-response","72","238646","0.0-72.0","","","null","","","","","","","","","",""
"863.3999999761581","","image-keyboard-response","73","239511","0.0-73.0","","img/set1/S1.jpg","83","1","random","83","random,structured_incentive,structured_load,structured_normal","2,1,3,4,2,3","4,2,3,1","true","","",""
"null","","html-keyboard-response","74","239872","0.0-74.0","","<img src=""img/set1/S1.jpg"" width=""540"" height = ""360"" style=""border:16px solid orange"">","null","","","","","","","","","",""
"null","","html-keyboard-response","75","240075","0.0-75.0","","","null","","","","","","","","","",""
"990.6000000238419","","image-keyboard-response","76","241068","0.0-76.0","","img/set1/S3.jpg","72","3","random","72","random,structured_incentive,structured_load,structured_normal","2,1,3,4,2,3","4,2,3,1","true","","",""
"null","","html-keyboard-response","77","241421","0.0-77.0","","<img src=""img/set1/S3.jpg"" width=""540"" height = ""360"" style=""border:16px solid orange"">","null","","","","","","","","","",""
"null","","html-keyboard-response","78","241633","0.0-78.0","","","null","","","","","","","","","",""
"653","","image-keyboard-response","79","242288","0.0-79.0","","img/set1/S2.jpg","68","2","random","68","random,structured_incentive,structured_load,structured_normal","2,1,3,4,2,3","4,2,3,1","true","","",""
"null","","html-keyboard-response","80","242640","0.0-80.0","","<img src=""img/set1/S2.jpg"" width=""540"" height = ""360"" style=""border:16px solid orange"">","null","","","","","","","","","",""
"null","","html-keyboard-response","81","242849","0.0-81.0","","","null","","","","","","","","","",""
"568.1000000238419","","image-keyboard-response","82","243420","0.0-82.0","","img/set1/S4.jpg","74","4","random","74","random,structured_incentive,structured_load,structured_normal","2,1,3,4,2,3","4,2,3,1","true","","",""
"null","","html-keyboard-response","83","243773","0.0-83.0","","<img src=""img/set1/S4.jpg"" width=""540"" height = ""360"" style=""border:16px solid orange"">","null","","","","","","","","","",""
"null","","html-keyboard-response","84","243976","0.0-84.0","","","null","","","","","","","","","",""
"699.3999999761581","","image-keyboard-response","85","244676","0.0-85.0","","img/set1/S3.jpg","68","3","random","72","random,structured_incentive,structured_load,structured_normal","2,1,3,4,2,3","4,2,3,1","false","","",""
"null","","html-keyboard-response","86","245029","0.0-86.0","","<img src=""img/set1/S3.jpg"" width=""540"" height = ""360"">","null","","","","","","","","","",""
"null","","html-keyboard-response","87","245233","0.0-87.0","","","null","","","","","","","","","",""
"557.6000000238419","","image-keyboard-response","88","245793","0.0-88.0","","img/set1/S3.jpg","72","3","random","72","random,structured_incentive,structured_load,structured_normal","2,1,3,4,2,3","4,2,3,1","true","","",""
"null","","html-keyboard-response","89","246145","0.0-89.0","","<img src=""img/set1/S3.jpg"" width=""540"" height = ""360"" style=""border:16px solid orange"">","null","","","","","","","","","",""
"null","","html-keyboard-response","90","246351","0.0-90.0","","","null","","","","","","","","","",""
"639.5","","image-keyboard-response","91","246992","0.0-91.0","","img/set1/S2.jpg","68","2","random","68","random,structured_incentive,structured_load,structured_normal","2,1,3,4,2,3","4,2,3,1","true","","",""
"null","","html-keyboard-response","92","247344","0.0-92.0","","<img src=""img/set1/S2.jpg"" width=""540"" height = ""360"" style=""border:16px solid orange"">","null","","","","","","","","","",""
"null","","html-keyboard-response","93","247547","0.0-93.0","","","null","","","","","","","","","",""
"616.3999999761581","","image-keyboard-response","94","248168","0.0-94.0","","img/set1/S3.jpg","72","3","random","72","random,structured_incentive,structured_load,structured_normal","2,1,3,4,2,3","4,2,3,1","true","","",""
"null","","html-keyboard-response","95","248520","0.0-95.0","","<img src=""img/set1/S3.jpg"" width=""540"" height = ""360"" style=""border:16px solid orange"">","null","","","","","","","","","",""
"null","","html-keyboard-response","96","248732","0.0-96.0","","","null","","","","","","","","","",""
"691.6999999284744","","image-keyboard-response","97","249426","0.0-97.0","","img/set1/S1.jpg","83","1","random","83","random,structured_incentive,structured_load,structured_normal","2,1,3,4,2,3","4,2,3,1","true","","",""
"null","","html-keyboard-response","98","249780","0.0-98.0","","<img src=""img/set1/S1.jpg"" width=""540"" height = ""360"" style=""border:16px solid orange"">","null","","","","","","","","","",""
"null","","html-keyboard-response","99","249983","0.0-99.0","","","null","","","","","","","","","",""
"595.7999999523163","","image-keyboard-response","100","250581","0.0-100.0","","img/set1/S2.jpg","68","2","random","68","random,structured_incentive,structured_load,structured_normal","2,1,3,4,2,3","4,2,3,1","true","","",""
"null","","html-keyboard-response","101","250940","0.0-101.0","","<img src=""img/set1/S2.jpg"" width=""540"" height = ""360"" style=""border:16px solid orange"">","null","","","","","","","","","",""
"null","","html-keyboard-response","102","251142","0.0-102.0","","","null","","","","","","","","","",""
"595.1999999284744","","image-keyboard-response","103","251738","0.0-103.0","","img/set1/S1.jpg","83","1","random","83","random,structured_incentive,structured_load,structured_normal","2,1,3,4,2,3","4,2,3,1","true","","",""
"null","","html-keyboard-response","104","252091","0.0-104.0","","<img src=""img/set1/S1.jpg"" width=""540"" height = ""360"" style=""border:16px solid orange"">","null","","","","","","","","","",""
"null","","html-keyboard-response","105","252307","0.0-105.0","","","null","","","","","","","","","",""
"532.1999999284744","","image-keyboard-response","106","252841","0.0-106.0","","img/set1/S1.jpg","83","1","random","83","random,structured_incentive,structured_load,structured_normal","2,1,3,4,2,3","4,2,3,1","true","","",""
"null","","html-keyboard-response","107","253193","0.0-107.0","","<img src=""img/set1/S1.jpg"" width=""540"" height = ""360"" style=""border:16px solid orange"">","null","","","","","","","","","",""
"null","","html-keyboard-response","108","253395","0.0-108.0","","","null","","","","","","","","","",""
"478.3000000715256","","image-keyboard-response","109","253875","0.0-109.0","","img/set1/S2.jpg","68","2","random","68","random,structured_incentive,structured_load,structured_normal","2,1,3,4,2,3","4,2,3,1","true","","",""
"null","","html-keyboard-response","110","254227","0.0-110.0","","<img src=""img/set1/S2.jpg"" width=""540"" height = ""360"" style=""border:16px solid orange"">","null","","","","","","","","","",""
"null","","html-keyboard-response","111","254433","0.0-111.0","","","null","","","","","","","","","",""
"590.0999999046326","","image-keyboard-response","112","255025","0.0-112.0","","img/set1/S4.jpg","74","4","random","74","random,structured_incentive,structured_load,structured_normal","2,1,3,4,2,3","4,2,3,1","true","","",""
"null","","html-keyboard-response","113","255378","0.0-113.0","","<img src=""img/set1/S4.jpg"" width=""540"" height = ""360"" style=""border:16px solid orange"">","null","","","","","","","","","",""
"null","","html-keyboard-response","114","255579","0.0-114.0","","","null","","","","","","","","","",""
"449.10000002384186","","image-keyboard-response","115","256030","0.0-115.0","","img/set1/S4.jpg","74","4","random","74","random,structured_incentive,structured_load,structured_normal","2,1,3,4,2,3","4,2,3,1","true","","",""
"null","","html-keyboard-response","116","256384","0.0-116.0","","<img src=""img/set1/S4.jpg"" width=""540"" height = ""360"" style=""border:16px solid orange"">","null","","","","","","","","","",""
"null","","html-keyboard-response","117","256585","0.0-117.0","","","null","","","","","","","","","",""
"797.7000000476837","","image-keyboard-response","118","257384","0.0-118.0","","img/set1/S1.jpg","83","1","random","83","random,structured_incentive,structured_load,structured_normal","2,1,3,4,2,3","4,2,3,1","true","","",""
"null","","html-keyboard-response","119","257739","0.0-119.0","","<img src=""img/set1/S1.jpg"" width=""540"" height = ""360"" style=""border:16px solid orange"">","null","","","","","","","","","",""
"null","","html-keyboard-response","120","257941","0.0-120.0","","","null","","","","","","","","","",""
"519.7000000476837","","image-keyboard-response","121","258462","0.0-121.0","","img/set1/S1.jpg","83","1","random","83","random,structured_incentive,structured_load,structured_normal","2,1,3,4,2,3","4,2,3,1","true","","",""
"null","","html-keyboard-response","122","258815","0.0-122.0","","<img src=""img/set1/S1.jpg"" width=""540"" height = ""360"" style=""border:16px solid orange"">","null","","","","","","","","","",""
"null","","html-keyboard-response","123","259018","0.0-123.0","","","null","","","","","","","","","",""
"623.2999999523163","","image-keyboard-response","124","259643","0.0-124.0","","img/set1/S4.jpg","74","4","random","74","random,structured_incentive,structured_load,structured_normal","2,1,3,4,2,3","4,2,3,1","true","","",""
"null","","html-keyboard-response","125","259995","0.0-125.0","","<img src=""img/set1/S4.jpg"" width=""540"" height = ""360"" style=""border:16px solid orange"">","null","","","","","","","","","",""
"null","","html-keyboard-response","126","260199","0.0-126.0","","","null","","","","","","","","","",""
"548.8000000715256","","image-keyboard-response","127","260750","0.0-127.0","","img/set1/S2.jpg","68","2","random","68","random,structured_incentive,structured_load,structured_normal","2,1,3,4,2,3","4,2,3,1","true","","",""
"null","","html-keyboard-response","128","261103","0.0-128.0","","<img src=""img/set1/S2.jpg"" width=""540"" height = ""360"" style=""border:16px solid orange"">","null","","","","","","","","","",""
"null","","html-keyboard-response","129","261305","0.0-129.0","","","null","","","","","","","","","",""
"444.2000000476837","","image-keyboard-response","130","261750","0.0-130.0","","img/set1/S2.jpg","68","2","random","68","random,structured_incentive,structured_load,structured_normal","2,1,3,4,2,3","4,2,3,1","true","","",""
"null","","html-keyboard-response","131","262103","0.0-131.0","","<img src=""img/set1/S2.jpg"" width=""540"" height = ""360"" style=""border:16px solid orange"">","null","","","","","","","","","",""
"null","","html-keyboard-response","132","262306","0.0-132.0","","","null","","","","","","","","","",""
"487.3000000715256","","image-keyboard-response","133","262794","0.0-133.0","","img/set1/S4.jpg","74","4","random","74","random,structured_incentive,structured_load,structured_normal","2,1,3,4,2,3","4,2,3,1","true","","",""
"null","","html-keyboard-response","134","263149","0.0-134.0","","<img src=""img/set1/S4.jpg"" width=""540"" height = ""360"" style=""border:16px solid orange"">","null","","","","","","","","","",""
"null","","html-keyboard-response","135","263352","0.0-135.0","","","null","","","","","","","","","",""
"531.3999999761581","","image-keyboard-response","136","263885","0.0-136.0","","img/set1/S2.jpg","68","2","random","68","random,structured_incentive,structured_load,structured_normal","2,1,3,4,2,3","4,2,3,1","true","","",""
"null","","html-keyboard-response","137","264239","0.0-137.0","","<img src=""img/set1/S2.jpg"" width=""540"" height = ""360"" style=""border:16px solid orange"">","null","","","","","","","","","",""
"null","","html-keyboard-response","138","264440","0.0-138.0","","","null","","","","","","","","","",""
"445.10000002384186","","image-keyboard-response","139","264887","0.0-139.0","","img/set1/S3.jpg","83","3","random","72","random,structured_incentive,structured_load,structured_normal","2,1,3,4,2,3","4,2,3,1","false","","",""
"null","","html-keyboard-response","140","265239","0.0-140.0","","<img src=""img/set1/S3.jpg"" width=""540"" height = ""360"">","null","","","","","","","","","",""
"null","","html-keyboard-response","141","265440","0.0-141.0","","","null","","","","","","","","","",""
"646.0999999046326","","image-keyboard-response","142","266087","0.0-142.0","","img/set1/S1.jpg","83","1","random","83","random,structured_incentive,structured_load,structured_normal","2,1,3,4,2,3","4,2,3,1","true","","",""
"null","","html-keyboard-response","143","266441","0.0-143.0","","<img src=""img/set1/S1.jpg"" width=""540"" height = ""360"" style=""border:16px solid orange"">","null","","","","","","","","","",""
"null","","html-keyboard-response","144","266649","0.0-144.0","","","null","","","","","","","","","",""
"526.5999999046326","","image-keyboard-response","145","267178","0.0-145.0","","img/set1/S1.jpg","83","1","random","83","random,structured_incentive,structured_load,structured_normal","2,1,3,4,2,3","4,2,3,1","true","","",""
"null","","html-keyboard-response","146","267533","0.0-146.0","","<img src=""img/set1/S1.jpg"" width=""540"" height = ""360"" style=""border:16px solid orange"">","null","","","","","","","","","",""
"null","","html-keyboard-response","147","267738","0.0-147.0","","","null","","","","","","","","","",""
"643.0999999046326","","image-keyboard-response","148","268382","0.0-148.0","","img/set1/S4.jpg","74","4","random","74","random,structured_incentive,structured_load,structured_normal","2,1,3,4,2,3","4,2,3,1","true","","",""
"null","","html-keyboard-response","149","268736","0.0-149.0","","<img src=""img/set1/S4.jpg"" width=""540"" height = ""360"" style=""border:16px solid orange"">","null","","","","","","","","","",""
"null","","html-keyboard-response","150","268939","0.0-150.0","","","null","","","","","","","","","",""
"550.3000000715256","","image-keyboard-response","151","269490","0.0-151.0","","img/set1/S4.jpg","74","4","random","74","random,structured_incentive,structured_load,structured_normal","2,1,3,4,2,3","4,2,3,1","true","","",""
"null","","html-keyboard-response","152","269844","0.0-152.0","","<img src=""img/set1/S4.jpg"" width=""540"" height = ""360"" style=""border:16px solid orange"">","null","","","","","","","","","",""
"null","","html-keyboard-response","153","270049","0.0-153.0","","","null","","","","","","","","","",""
"417","","image-keyboard-response","154","270467","0.0-154.0","","img/set1/S3.jpg","72","3","random","72","random,structured_incentive,structured_load,structured_normal","2,1,3,4,2,3","4,2,3,1","true","","",""
"null","","html-keyboard-response","155","270822","0.0-155.0","","<img src=""img/set1/S3.jpg"" width=""540"" height = ""360"" style=""border:16px solid orange"">","null","","","","","","","","","",""
"null","","html-keyboard-response","156","271039","0.0-156.0","","","null","","","","","","","","","",""
"542.3999999761581","","image-keyboard-response","157","271583","0.0-157.0","","img/set1/S2.jpg","68","2","random","68","random,structured_incentive,structured_load,structured_normal","2,1,3,4,2,3","4,2,3,1","true","","",""
"null","","html-keyboard-response","158","271935","0.0-158.0","","<img src=""img/set1/S2.jpg"" width=""540"" height = ""360"" style=""border:16px solid orange"">","null","","","","","","","","","",""
"null","","html-keyboard-response","159","272138","0.0-159.0","","","null","","","","","","","","","",""
"454.2999999523163","","image-keyboard-response","160","272594","0.0-160.0","","img/set1/S2.jpg","68","2","random","68","random,structured_incentive,structured_load,structured_normal","2,1,3,4,2,3","4,2,3,1","true","","",""
"null","","html-keyboard-response","161","272950","0.0-161.0","","<img src=""img/set1/S2.jpg"" width=""540"" height = ""360"" style=""border:16px solid orange"">","null","","","","","","","","","",""
"null","","html-keyboard-response","162","273152","0.0-162.0","","","null","","","","","","","","","",""
"537.6000000238419","","image-keyboard-response","163","273692","0.0-163.0","","img/set1/S4.jpg","74","4","random","74","random,structured_incentive,structured_load,structured_normal","2,1,3,4,2,3","4,2,3,1","true","","",""
"null","","html-keyboard-response","164","274045","0.0-164.0","","<img src=""img/set1/S4.jpg"" width=""540"" height = ""360"" style=""border:16px solid orange"">","null","","","","","","","","","",""
"null","","html-keyboard-response","165","274250","0.0-165.0","","","null","","","","","","","","","",""
"660.2999999523163","","image-keyboard-response","166","274911","0.0-166.0","","img/set1/S2.jpg","68","2","random","68","random,structured_incentive,structured_load,structured_normal","2,1,3,4,2,3","4,2,3,1","true","","",""
"null","","html-keyboard-response","167","275265","0.0-167.0","","<img src=""img/set1/S2.jpg"" width=""540"" height = ""360"" style=""border:16px solid orange"">","null","","","","","","","","","",""
"null","","html-keyboard-response","168","275468","0.0-168.0","","","null","","","","","","","","","",""
"671.7999999523163","","image-keyboard-response","169","276142","0.0-169.0","","img/set1/S1.jpg","83","1","random","83","random,structured_incentive,structured_load,structured_normal","2,1,3,4,2,3","4,2,3,1","true","","",""
"null","","html-keyboard-response","170","276494","0.0-170.0","","<img src=""img/set1/S1.jpg"" width=""540"" height = ""360"" style=""border:16px solid orange"">","null","","","","","","","","","",""
"null","","html-keyboard-response","171","276699","0.0-171.0","","","null","","","","","","","","","",""
"575.2999999523163","","image-keyboard-response","172","277276","0.0-172.0","","img/set1/S2.jpg","68","2","random","68","random,structured_incentive,structured_load,structured_normal","2,1,3,4,2,3","4,2,3,1","true","","",""
"null","","html-keyboard-response","173","277629","0.0-173.0","","<img src=""img/set1/S2.jpg"" width=""540"" height = ""360"" style=""border:16px solid orange"">","null","","","","","","","","","",""
"null","","html-keyboard-response","174","277832","0.0-174.0","","","null","","","","","","","","","",""
"565.3999999761581","","image-keyboard-response","175","278399","0.0-175.0","","img/set1/S4.jpg","74","4","random","74","random,structured_incentive,structured_load,structured_normal","2,1,3,4,2,3","4,2,3,1","true","","",""
"null","","html-keyboard-response","176","278752","0.0-176.0","","<img src=""img/set1/S4.jpg"" width=""540"" height = ""360"" style=""border:16px solid orange"">","null","","","","","","","","","",""
"null","","html-keyboard-response","177","278955","0.0-177.0","","","null","","","","","","","","","",""
"634.3999999761581","","image-keyboard-response","178","279591","0.0-178.0","","img/set1/S1.jpg","83","1","random","83","random,structured_incentive,structured_load,structured_normal","2,1,3,4,2,3","4,2,3,1","true","","",""
"null","","html-keyboard-response","179","279943","0.0-179.0","","<img src=""img/set1/S1.jpg"" width=""540"" height = ""360"" style=""border:16px solid orange"">","null","","","","","","","","","",""
"null","","html-keyboard-response","180","280145","0.0-180.0","","","null","","","","","","","","","",""
"566.1000000238419","","image-keyboard-response","181","280716","0.0-181.0","","img/set1/S2.jpg","68","2","random","68","random,structured_incentive,structured_load,structured_normal","2,1,3,4,2,3","4,2,3,1","true","","",""
"null","","html-keyboard-response","182","281069","0.0-182.0","","<img src=""img/set1/S2.jpg"" width=""540"" height = ""360"" style=""border:16px solid orange"">","null","","","","","","","","","",""
"null","","html-keyboard-response","183","281271","0.0-183.0","","","null","","","","","","","","","",""
"668.5","","image-keyboard-response","184","281942","0.0-184.0","","img/set1/S1.jpg","83","1","random","83","random,structured_incentive,structured_load,structured_normal","2,1,3,4,2,3","4,2,3,1","true","","",""
"null","","html-keyboard-response","185","282298","0.0-185.0","","<img src=""img/set1/S1.jpg"" width=""540"" height = ""360"" style=""border:16px solid orange"">","null","","","","","","","","","",""
"null","","html-keyboard-response","186","282501","0.0-186.0","","","null","","","","","","","","","",""
"671.8999999761581","","image-keyboard-response","187","283174","0.0-187.0","","img/set1/S4.jpg","74","4","random","74","random,structured_incentive,structured_load,structured_normal","2,1,3,4,2,3","4,2,3,1","true","","",""
"null","","html-keyboard-response","188","283526","0.0-188.0","","<img src=""img/set1/S4.jpg"" width=""540"" height = ""360"" style=""border:16px solid orange"">","null","","","","","","","","","",""
"null","","html-keyboard-response","189","283728","0.0-189.0","","","null","","","","","","","","","",""
"690.3000000715256","","image-keyboard-response","190","284420","0.0-190.0","","img/set1/S1.jpg","83","1","random","83","random,structured_incentive,structured_load,structured_normal","2,1,3,4,2,3","4,2,3,1","true","","",""
"null","","html-keyboard-response","191","284772","0.0-191.0","","<img src=""img/set1/S1.jpg"" width=""540"" height = ""360"" style=""border:16px solid orange"">","null","","","","","","","","","",""
"null","","html-keyboard-response","192","284975","0.0-192.0","","","null","","","","","","","","","",""
"510.60000002384186","","image-keyboard-response","193","285487","0.0-193.0","","img/set1/S1.jpg","83","1","random","83","random,structured_incentive,structured_load,structured_normal","2,1,3,4,2,3","4,2,3,1","true","","",""
"null","","html-keyboard-response","194","285840","0.0-194.0","","<img src=""img/set1/S1.jpg"" width=""540"" height = ""360"" style=""border:16px solid orange"">","null","","","","","","","","","",""
"null","","html-keyboard-response","195","286041","0.0-195.0","","","null","","","","","","","","","",""
"556.7000000476837","","image-keyboard-response","196","286599","0.0-196.0","","img/set1/S3.jpg","72","3","random","72","random,structured_incentive,structured_load,structured_normal","2,1,3,4,2,3","4,2,3,1","true","","",""
"null","","html-keyboard-response","197","286952","0.0-197.0","","<img src=""img/set1/S3.jpg"" width=""540"" height = ""360"" style=""border:16px solid orange"">","null","","","","","","","","","",""
"null","","html-keyboard-response","198","287154","0.0-198.0","","","null","","","","","","","","","",""
"649.1999999284744","","image-keyboard-response","199","287805","0.0-199.0","","img/set1/S1.jpg","83","1","random","83","random,structured_incentive,structured_load,structured_normal","2,1,3,4,2,3","4,2,3,1","true","","",""
"null","","html-keyboard-response","200","288158","0.0-200.0","","<img src=""img/set1/S1.jpg"" width=""540"" height = ""360"" style=""border:16px solid orange"">","null","","","","","","","","","",""
"null","","html-keyboard-response","201","288360","0.0-201.0","","","null","","","","","","","","","",""
"587.2000000476837","","image-keyboard-response","202","288949","0.0-202.0","","img/set1/S4.jpg","74","4","random","74","random,structured_incentive,structured_load,structured_normal","2,1,3,4,2,3","4,2,3,1","true","","",""
"null","","html-keyboard-response","203","289303","0.0-203.0","","<img src=""img/set1/S4.jpg"" width=""540"" height = ""360"" style=""border:16px solid orange"">","null","","","","","","","","","",""
"null","","html-keyboard-response","204","289506","0.0-204.0","","","null","","","","","","","","","",""
"585.6999999284744","","image-keyboard-response","205","290093","0.0-205.0","","img/set1/S1.jpg","83","1","random","83","random,structured_incentive,structured_load,structured_normal","2,1,3,4,2,3","4,2,3,1","true","","",""
"null","","html-keyboard-response","206","290447","0.0-206.0","","<img src=""img/set1/S1.jpg"" width=""540"" height = ""360"" style=""border:16px solid orange"">","null","","","","","","","","","",""
"null","","html-keyboard-response","207","290649","0.0-207.0","","","null","","","","","","","","","",""
"519.6999999284744","","image-keyboard-response","208","291170","0.0-208.0","","img/set1/S1.jpg","83","1","random","83","random,structured_incentive,structured_load,structured_normal","2,1,3,4,2,3","4,2,3,1","true","","",""
"null","","html-keyboard-response","209","291523","0.0-209.0","","<img src=""img/set1/S1.jpg"" width=""540"" height = ""360"" style=""border:16px solid orange"">","null","","","","","","","","","",""
"null","","html-keyboard-response","210","291725","0.0-210.0","","","null","","","","","","","","","",""
"456.39999997615814","","image-keyboard-response","211","292183","0.0-211.0","","img/set1/S2.jpg","68","2","random","68","random,structured_incentive,structured_load,structured_normal","2,1,3,4,2,3","4,2,3,1","true","","",""
"null","","html-keyboard-response","212","292536","0.0-212.0","","<img src=""img/set1/S2.jpg"" width=""540"" height = ""360"" style=""border:16px solid orange"">","null","","","","","","","","","",""
"null","","html-keyboard-response","213","292739","0.0-213.0","","","null","","","","","","","","","",""
"482","","image-keyboard-response","214","293222","0.0-214.0","","img/set1/S2.jpg","68","2","random","68","random,structured_incentive,structured_load,structured_normal","2,1,3,4,2,3","4,2,3,1","true","","",""
"null","","html-keyboard-response","215","293575","0.0-215.0","","<img src=""img/set1/S2.jpg"" width=""540"" height = ""360"" style=""border:16px solid orange"">","null","","","","","","","","","",""
"null","","html-keyboard-response","216","293777","0.0-216.0","","","null","","","","","","","","","",""
"633","","image-keyboard-response","217","294414","0.0-217.0","","img/set1/S3.jpg","74","3","random","72","random,structured_incentive,structured_load,structured_normal","2,1,3,4,2,3","4,2,3,1","false","","",""
"null","","html-keyboard-response","218","294767","0.0-218.0","","<img src=""img/set1/S3.jpg"" width=""540"" height = ""360"">","null","","","","","","","","","",""
"null","","html-keyboard-response","219","294969","0.0-219.0","","","null","","","","","","","","","",""
"596.6999999284744","","image-keyboard-response","220","295568","0.0-220.0","","img/set1/S2.jpg","68","2","random","68","random,structured_incentive,structured_load,structured_normal","2,1,3,4,2,3","4,2,3,1","true","","",""
"null","","html-keyboard-response","221","295921","0.0-221.0","","<img src=""img/set1/S2.jpg"" width=""540"" height = ""360"" style=""border:16px solid orange"">","null","","","","","","","","","",""
"null","","html-keyboard-response","222","296124","0.0-222.0","","","null","","","","","","","","","",""
"575.7000000476837","","image-keyboard-response","223","296701","0.0-223.0","","img/set1/S1.jpg","83","1","random","83","random,structured_incentive,structured_load,structured_normal","2,1,3,4,2,3","4,2,3,1","true","","",""
"null","","html-keyboard-response","224","297054","0.0-224.0","","<img src=""img/set1/S1.jpg"" width=""540"" height = ""360"" style=""border:16px solid orange"">","null","","","","","","","","","",""
"null","","html-keyboard-response","225","297257","0.0-225.0","","","null","","","","","","","","","",""
"483.5","","image-keyboard-response","226","297741","0.0-226.0","","img/set1/S3.jpg","72","3","random","72","random,structured_incentive,structured_load,structured_normal","2,1,3,4,2,3","4,2,3,1","true","","",""
"null","","html-keyboard-response","227","298094","0.0-227.0","","<img src=""img/set1/S3.jpg"" width=""540"" height = ""360"" style=""border:16px solid orange"">","null","","","","","","","","","",""
"null","","html-keyboard-response","228","298298","0.0-228.0","","","null","","","","","","","","","",""
"558.8999999761581","","image-keyboard-response","229","298858","0.0-229.0","","img/set1/S4.jpg","74","4","random","74","random,structured_incentive,structured_load,structured_normal","2,1,3,4,2,3","4,2,3,1","true","","",""
"null","","html-keyboard-response","230","299211","0.0-230.0","","<img src=""img/set1/S4.jpg"" width=""540"" height = ""360"" style=""border:16px solid orange"">","null","","","","","","","","","",""
"null","","html-keyboard-response","231","299416","0.0-231.0","","","null","","","","","","","","","",""
"471.10000002384186","","image-keyboard-response","232","299889","0.0-232.0","","img/set1/S4.jpg","74","4","random","74","random,structured_incentive,structured_load,structured_normal","2,1,3,4,2,3","4,2,3,1","true","","",""
"null","","html-keyboard-response","233","300242","0.0-233.0","","<img src=""img/set1/S4.jpg"" width=""540"" height = ""360"" style=""border:16px solid orange"">","null","","","","","","","","","",""
"null","","html-keyboard-response","234","300444","0.0-234.0","","","null","","","","","","","","","",""
"531.7000000476837","","image-keyboard-response","235","300980","0.0-235.0","","img/set1/S2.jpg","68","2","random","68","random,structured_incentive,structured_load,structured_normal","2,1,3,4,2,3","4,2,3,1","true","","",""
"null","","html-keyboard-response","236","301334","0.0-236.0","","<img src=""img/set1/S2.jpg"" width=""540"" height = ""360"" style=""border:16px solid orange"">","null","","","","","","","","","",""
"null","","html-keyboard-response","237","301536","0.0-237.0","","","null","","","","","","","","","",""
"578.1000000238419","","image-keyboard-response","238","302115","0.0-238.0","","img/set1/S4.jpg","74","4","random","74","random,structured_incentive,structured_load,structured_normal","2,1,3,4,2,3","4,2,3,1","true","","",""
"null","","html-keyboard-response","239","302468","0.0-239.0","","<img src=""img/set1/S4.jpg"" width=""540"" height = ""360"" style=""border:16px solid orange"">","null","","","","","","","","","",""
"null","","html-keyboard-response","240","302669","0.0-240.0","","","null","","","","","","","","","",""
"499.2000000476837","","image-keyboard-response","241","303169","0.0-241.0","","img/set1/S2.jpg","68","2","random","68","random,structured_incentive,structured_load,structured_normal","2,1,3,4,2,3","4,2,3,1","true","","",""
"null","","html-keyboard-response","242","303522","0.0-242.0","","<img src=""img/set1/S2.jpg"" width=""540"" height = ""360"" style=""border:16px solid orange"">","null","","","","","","","","","",""
"null","","html-keyboard-response","243","303725","0.0-243.0","","","null","","","","","","","","","",""
"482","","image-keyboard-response","244","304209","0.0-244.0","","img/set1/S1.jpg","83","1","random","83","random,structured_incentive,structured_load,structured_normal","2,1,3,4,2,3","4,2,3,1","true","","",""
"null","","html-keyboard-response","245","304564","0.0-245.0","","<img src=""img/set1/S1.jpg"" width=""540"" height = ""360"" style=""border:16px solid orange"">","null","","","","","","","","","",""
"null","","html-keyboard-response","246","304766","0.0-246.0","","","null","","","","","","","","","",""
"525.6000000238419","","image-keyboard-response","247","305293","0.0-247.0","","img/set1/S4.jpg","74","4","random","74","random,structured_incentive,structured_load,structured_normal","2,1,3,4,2,3","4,2,3,1","true","","",""
"null","","html-keyboard-response","248","305649","0.0-248.0","","<img src=""img/set1/S4.jpg"" width=""540"" height = ""360"" style=""border:16px solid orange"">","null","","","","","","","","","",""
"null","","html-keyboard-response","249","305851","0.0-249.0","","","null","","","","","","","","","",""
"406.3000000715256","","image-keyboard-response","250","306259","0.0-250.0","","img/set1/S4.jpg","74","4","random","74","random,structured_incentive,structured_load,structured_normal","2,1,3,4,2,3","4,2,3,1","true","","",""
"null","","html-keyboard-response","251","306613","0.0-251.0","","<img src=""img/set1/S4.jpg"" width=""540"" height = ""360"" style=""border:16px solid orange"">","null","","","","","","","","","",""
"null","","html-keyboard-response","252","306816","0.0-252.0","","","null","","","","","","","","","",""
"489","","image-keyboard-response","253","307306","0.0-253.0","","img/set1/S2.jpg","68","2","random","68","random,structured_incentive,structured_load,structured_normal","2,1,3,4,2,3","4,2,3,1","true","","",""
"null","","html-keyboard-response","254","307659","0.0-254.0","","<img src=""img/set1/S2.jpg"" width=""540"" height = ""360"" style=""border:16px solid orange"">","null","","","","","","","","","",""
"null","","html-keyboard-response","255","307864","0.0-255.0","","","null","","","","","","","","","",""
"500.7999999523163","","image-keyboard-response","256","308367","0.0-256.0","","img/set1/S2.jpg","68","2","random","68","random,structured_incentive,structured_load,structured_normal","2,1,3,4,2,3","4,2,3,1","true","","",""
"null","","html-keyboard-response","257","308721","0.0-257.0","","<img src=""img/set1/S2.jpg"" width=""540"" height = ""360"" style=""border:16px solid orange"">","null","","","","","","","","","",""
"null","","html-keyboard-response","258","308923","0.0-258.0","","","null","","","","","","","","","",""
"573.8999999761581","","image-keyboard-response","259","309499","0.0-259.0","","img/set1/S3.jpg","74","3","random","72","random,structured_incentive,structured_load,structured_normal","2,1,3,4,2,3","4,2,3,1","false","","",""
"null","","html-keyboard-response","260","309858","0.0-260.0","","<img src=""img/set1/S3.jpg"" width=""540"" height = ""360"">","null","","","","","","","","","",""
"null","","html-keyboard-response","261","310064","0.0-261.0","","","null","","","","","","","","","",""
"647.5999999046326","","image-keyboard-response","262","310713","0.0-262.0","","img/set1/S1.jpg","83","1","random","83","random,structured_incentive,structured_load,structured_normal","2,1,3,4,2,3","4,2,3,1","true","","",""
"null","","html-keyboard-response","263","311067","0.0-263.0","","<img src=""img/set1/S1.jpg"" width=""540"" height = ""360"" style=""border:16px solid orange"">","null","","","","","","","","","",""
"null","","html-keyboard-response","264","311269","0.0-264.0","","","null","","","","","","","","","",""
"545","","image-keyboard-response","265","311815","0.0-265.0","","img/set1/S4.jpg","74","4","random","74","random,structured_incentive,structured_load,structured_normal","2,1,3,4,2,3","4,2,3,1","true","","",""
"null","","html-keyboard-response","266","312169","0.0-266.0","","<img src=""img/set1/S4.jpg"" width=""540"" height = ""360"" style=""border:16px solid orange"">","null","","","","","","","","","",""
"null","","html-keyboard-response","267","312371","0.0-267.0","","","null","","","","","","","","","",""
"691.1000000238419","","image-keyboard-response","268","313063","0.0-268.0","","img/set1/S1.jpg","83","1","random","83","random,structured_incentive,structured_load,structured_normal","2,1,3,4,2,3","4,2,3,1","true","","",""
"null","","html-keyboard-response","269","313415","0.0-269.0","","<img src=""img/set1/S1.jpg"" width=""540"" height = ""360"" style=""border:16px solid orange"">","null","","","","","","","","","",""
"null","","html-keyboard-response","270","313618","0.0-270.0","","","null","","","","","","","","","",""
"417.5","","image-keyboard-response","271","314037","0.0-271.0","","img/set1/S1.jpg","83","1","random","83","random,structured_incentive,structured_load,structured_normal","2,1,3,4,2,3","4,2,3,1","true","","",""
"null","","html-keyboard-response","272","314390","0.0-272.0","","<img src=""img/set1/S1.jpg"" width=""540"" height = ""360"" style=""border:16px solid orange"">","null","","","","","","","","","",""
"null","","html-keyboard-response","273","314593","0.0-273.0","","","null","","","","","","","","","",""
"643.3999999761581","","image-keyboard-response","274","315237","0.0-274.0","","img/set1/S2.jpg","68","2","random","68","random,structured_incentive,structured_load,structured_normal","2,1,3,4,2,3","4,2,3,1","true","","",""
"null","","html-keyboard-response","275","315589","0.0-275.0","","<img src=""img/set1/S2.jpg"" width=""540"" height = ""360"" style=""border:16px solid orange"">","null","","","","","","","","","",""
"null","","html-keyboard-response","276","315791","0.0-276.0","","","null","","","","","","","","","",""
"610.2999999523163","","image-keyboard-response","277","316403","0.0-277.0","","img/set1/S1.jpg","83","1","random","83","random,structured_incentive,structured_load,structured_normal","2,1,3,4,2,3","4,2,3,1","true","","",""
"null","","html-keyboard-response","278","316756","0.0-278.0","","<img src=""img/set1/S1.jpg"" width=""540"" height = ""360"" style=""border:16px solid orange"">","null","","","","","","","","","",""
"null","","html-keyboard-response","279","316959","0.0-279.0","","","null","","","","","","","","","",""
"557.5","","image-keyboard-response","280","317518","0.0-280.0","","img/set1/S1.jpg","83","1","random","83","random,structured_incentive,structured_load,structured_normal","2,1,3,4,2,3","4,2,3,1","true","","",""
"null","","html-keyboard-response","281","317870","0.0-281.0","","<img src=""img/set1/S1.jpg"" width=""540"" height = ""360"" style=""border:16px solid orange"">","null","","","","","","","","","",""
"null","","html-keyboard-response","282","318072","0.0-282.0","","","null","","","","","","","","","",""
"559.1000000238419","","image-keyboard-response","283","318633","0.0-283.0","","img/set1/S1.jpg","83","1","random","83","random,structured_incentive,structured_load,structured_normal","2,1,3,4,2,3","4,2,3,1","true","","",""
"null","","html-keyboard-response","284","318998","0.0-284.0","","<img src=""img/set1/S1.jpg"" width=""540"" height = ""360"" style=""border:16px solid orange"">","null","","","","","","","","","",""
"null","","html-keyboard-response","285","319201","0.0-285.0","","","null","","","","","","","","","",""
"645.1000000238419","","image-keyboard-response","286","319848","0.0-286.0","","img/set1/S1.jpg","83","1","random","83","random,structured_incentive,structured_load,structured_normal","2,1,3,4,2,3","4,2,3,1","true","","",""
"null","","html-keyboard-response","287","320200","0.0-287.0","","<img src=""img/set1/S1.jpg"" width=""540"" height = ""360"" style=""border:16px solid orange"">","null","","","","","","","","","",""
"null","","html-keyboard-response","288","320401","0.0-288.0","","","null","","","","","","","","","",""
"396.7000000476837","","image-keyboard-response","289","320800","0.0-289.0","","img/set1/S3.jpg","72","3","random","72","random,structured_incentive,structured_load,structured_normal","2,1,3,4,2,3","4,2,3,1","true","","",""
"null","","html-keyboard-response","290","321153","0.0-290.0","","<img src=""img/set1/S3.jpg"" width=""540"" height = ""360"" style=""border:16px solid orange"">","null","","","","","","","","","",""
"null","","html-keyboard-response","291","321355","0.0-291.0","","","null","","","","","","","","","",""
"515.3999999761581","","image-keyboard-response","292","321872","0.0-292.0","","img/set1/S2.jpg","68","2","random","68","random,structured_incentive,structured_load,structured_normal","2,1,3,4,2,3","4,2,3,1","true","","",""
"null","","html-keyboard-response","293","322225","0.0-293.0","","<img src=""img/set1/S2.jpg"" width=""540"" height = ""360"" style=""border:16px solid orange"">","null","","","","","","","","","",""
"null","","html-keyboard-response","294","322430","0.0-294.0","","","null","","","","","","","","","",""
"632.1000000238419","","image-keyboard-response","295","323063","0.0-295.0","","img/set1/S1.jpg","83","1","random","83","random,structured_incentive,structured_load,structured_normal","2,1,3,4,2,3","4,2,3,1","true","","",""
"null","","html-keyboard-response","296","323416","0.0-296.0","","<img src=""img/set1/S1.jpg"" width=""540"" height = ""360"" style=""border:16px solid orange"">","null","","","","","","","","","",""
"null","","html-keyboard-response","297","323618","0.0-297.0","","","null","","","","","","","","","",""
"613.5","","image-keyboard-response","298","324234","0.0-298.0","","img/set1/S4.jpg","74","4","random","74","random,structured_incentive,structured_load,structured_normal","2,1,3,4,2,3","4,2,3,1","true","","",""
"null","","html-keyboard-response","299","324586","0.0-299.0","","<img src=""img/set1/S4.jpg"" width=""540"" height = ""360"" style=""border:16px solid orange"">","null","","","","","","","","","",""
"null","","html-keyboard-response","300","324788","0.0-300.0","","","null","","","","","","","","","",""
"536.7000000476837","","image-keyboard-response","301","325326","0.0-301.0","","img/set1/S4.jpg","74","4","random","74","random,structured_incentive,structured_load,structured_normal","2,1,3,4,2,3","4,2,3,1","true","","",""
"null","","html-keyboard-response","302","325680","0.0-302.0","","<img src=""img/set1/S4.jpg"" width=""540"" height = ""360"" style=""border:16px solid orange"">","null","","","","","","","","","",""
"null","","html-keyboard-response","303","325882","0.0-303.0","","","null","","","","","","","","","",""
"671.5","","image-keyboard-response","304","326555","0.0-304.0","","img/set1/S1.jpg","83","1","random","83","random,structured_incentive,structured_load,structured_normal","2,1,3,4,2,3","4,2,3,1","true","","",""
"null","","html-keyboard-response","305","326907","0.0-305.0","","<img src=""img/set1/S1.jpg"" width=""540"" height = ""360"" style=""border:16px solid orange"">","null","","","","","","","","","",""
"null","","html-keyboard-response","306","327112","0.0-306.0","","","null","","","","","","","","","",""
"572.8999999761581","","image-keyboard-response","307","327687","0.0-307.0","","img/set1/S3.jpg","72","3","random","72","random,structured_incentive,structured_load,structured_normal","2,1,3,4,2,3","4,2,3,1","true","","",""
"null","","html-keyboard-response","308","328040","0.0-308.0","","<img src=""img/set1/S3.jpg"" width=""540"" height = ""360"" style=""border:16px solid orange"">","null","","","","","","","","","",""
"null","","html-keyboard-response","309","328255","0.0-309.0","","","null","","","","","","","","","",""
"576.3999999761581","","image-keyboard-response","310","328833","0.0-310.0","","img/set1/S2.jpg","68","2","random","68","random,structured_incentive,structured_load,structured_normal","2,1,3,4,2,3","4,2,3,1","true","","",""
"null","","html-keyboard-response","311","329186","0.0-311.0","","<img src=""img/set1/S2.jpg"" width=""540"" height = ""360"" style=""border:16px solid orange"">","null","","","","","","","","","",""
"null","","html-keyboard-response","312","329389","0.0-312.0","","","null","","","","","","","","","",""
"510.39999997615814","","image-keyboard-response","313","329901","0.0-313.0","","img/set1/S2.jpg","68","2","random","68","random,structured_incentive,structured_load,structured_normal","2,1,3,4,2,3","4,2,3,1","true","","",""
"null","","html-keyboard-response","314","330254","0.0-314.0","","<img src=""img/set1/S2.jpg"" width=""540"" height = ""360"" style=""border:16px solid orange"">","null","","","","","","","","","",""
"null","","html-keyboard-response","315","330455","0.0-315.0","","","null","","","","","","","","","",""
"632.1000000238419","","image-keyboard-response","316","331089","0.0-316.0","","img/set1/S1.jpg","83","1","random","83","random,structured_incentive,structured_load,structured_normal","2,1,3,4,2,3","4,2,3,1","true","","",""
"null","","html-keyboard-response","317","331441","0.0-317.0","","<img src=""img/set1/S1.jpg"" width=""540"" height = ""360"" style=""border:16px solid orange"">","null","","","","","","","","","",""
"null","","html-keyboard-response","318","331645","0.0-318.0","","","null","","","","","","","","","",""
"604.5999999046326","","image-keyboard-response","319","332252","0.0-319.0","","img/set1/S2.jpg","68","2","random","68","random,structured_incentive,structured_load,structured_normal","2,1,3,4,2,3","4,2,3,1","true","","",""
"null","","html-keyboard-response","320","332605","0.0-320.0","","<img src=""img/set1/S2.jpg"" width=""540"" height = ""360"" style=""border:16px solid orange"">","null","","","","","","","","","",""
"null","","html-keyboard-response","321","332806","0.0-321.0","","","null","","","","","","","","","",""
"539.0999999046326","","image-keyboard-response","322","333347","0.0-322.0","","img/set1/S2.jpg","68","2","random","68","random,structured_incentive,structured_load,structured_normal","2,1,3,4,2,3","4,2,3,1","true","","",""
"null","","html-keyboard-response","323","333702","0.0-323.0","","<img src=""img/set1/S2.jpg"" width=""540"" height = ""360"" style=""border:16px solid orange"">","null","","","","","","","","","",""
"null","","html-keyboard-response","324","333912","0.0-324.0","","","null","","","","","","","","","",""
"599.1000000238419","","image-keyboard-response","325","334513","0.0-325.0","","img/set1/S4.jpg","74","4","random","74","random,structured_incentive,structured_load,structured_normal","2,1,3,4,2,3","4,2,3,1","true","","",""
"null","","html-keyboard-response","326","334866","0.0-326.0","","<img src=""img/set1/S4.jpg"" width=""540"" height = ""360"" style=""border:16px solid orange"">","null","","","","","","","","","",""
"null","","html-keyboard-response","327","335069","0.0-327.0","","","null","","","","","","","","","",""
"584.5","","image-keyboard-response","328","335655","0.0-328.0","","img/set1/S1.jpg","83","1","random","83","random,structured_incentive,structured_load,structured_normal","2,1,3,4,2,3","4,2,3,1","true","","",""
"null","","html-keyboard-response","329","336009","0.0-329.0","","<img src=""img/set1/S1.jpg"" width=""540"" height = ""360"" style=""border:16px solid orange"">","null","","","","","","","","","",""
"null","","html-keyboard-response","330","336212","0.0-330.0","","","null","","","","","","","","","",""
"468.6999999284744","","image-keyboard-response","331","336683","0.0-331.0","","img/set1/S1.jpg","83","1","random","83","random,structured_incentive,structured_load,structured_normal","2,1,3,4,2,3","4,2,3,1","true","","",""
"null","","html-keyboard-response","332","337035","0.0-332.0","","<img src=""img/set1/S1.jpg"" width=""540"" height = ""360"" style=""border:16px solid orange"">","null","","","","","","","","","",""
"null","","html-keyboard-response","333","337237","0.0-333.0","","","null","","","","","","","","","",""
"605.7999999523163","","image-keyboard-response","334","337846","0.0-334.0","","img/set1/S4.jpg","74","4","random","74","random,structured_incentive,structured_load,structured_normal","2,1,3,4,2,3","4,2,3,1","true","","",""
"null","","html-keyboard-response","335","338199","0.0-335.0","","<img src=""img/set1/S4.jpg"" width=""540"" height = ""360"" style=""border:16px solid orange"">","null","","","","","","","","","",""
"null","","html-keyboard-response","336","338400","0.0-336.0","","","null","","","","","","","","","",""
"467.2999999523163","","image-keyboard-response","337","338869","0.0-337.0","","img/set1/S4.jpg","74","4","random","74","random,structured_incentive,structured_load,structured_normal","2,1,3,4,2,3","4,2,3,1","true","","",""
"null","","html-keyboard-response","338","339221","0.0-338.0","","<img src=""img/set1/S4.jpg"" width=""540"" height = ""360"" style=""border:16px solid orange"">","null","","","","","","","","","",""
"null","","html-keyboard-response","339","339424","0.0-339.0","","","null","","","","","","","","","",""
"679.3999999761581","","image-keyboard-response","340","340105","0.0-340.0","","img/set1/S1.jpg","83","1","random","83","random,structured_incentive,structured_load,structured_normal","2,1,3,4,2,3","4,2,3,1","true","","",""
"null","","html-keyboard-response","341","340457","0.0-341.0","","<img src=""img/set1/S1.jpg"" width=""540"" height = ""360"" style=""border:16px solid orange"">","null","","","","","","","","","",""
"null","","html-keyboard-response","342","340661","0.0-342.0","","","null","","","","","","","","","",""
"818.8999999761581","","image-keyboard-response","343","341483","0.0-343.0","","img/set1/S3.jpg","68","3","random","72","random,structured_incentive,structured_load,structured_normal","2,1,3,4,2,3","4,2,3,1","false","","",""
"null","","html-keyboard-response","344","341836","0.0-344.0","","<img src=""img/set1/S3.jpg"" width=""540"" height = ""360"">","null","","","","","","","","","",""
"null","","html-keyboard-response","345","342038","0.0-345.0","","","null","","","","","","","","","",""
"483.90000009536743","","image-keyboard-response","346","342523","0.0-346.0","","img/set1/S3.jpg","72","3","random","72","random,structured_incentive,structured_load,structured_normal","2,1,3,4,2,3","4,2,3,1","true","","",""
"null","","html-keyboard-response","347","342877","0.0-347.0","","<img src=""img/set1/S3.jpg"" width=""540"" height = ""360"" style=""border:16px solid orange"">","null","","","","","","","","","",""
"null","","html-keyboard-response","348","343081","0.0-348.0","","","null","","","","","","","","","",""
"567.5","","image-keyboard-response","349","343650","0.0-349.0","","img/set1/S2.jpg","68","2","random","68","random,structured_incentive,structured_load,structured_normal","2,1,3,4,2,3","4,2,3,1","true","","",""
"null","","html-keyboard-response","350","344003","0.0-350.0","","<img src=""img/set1/S2.jpg"" width=""540"" height = ""360"" style=""border:16px solid orange"">","null","","","","","","","","","",""
"null","","html-keyboard-response","351","344205","0.0-351.0","","","null","","","","","","","","","",""
"606.2999999523163","","image-keyboard-response","352","344812","0.0-352.0","","img/set1/S1.jpg","83","1","random","83","random,structured_incentive,structured_load,structured_normal","2,1,3,4,2,3","4,2,3,1","true","","",""
"null","","html-keyboard-response","353","345165","0.0-353.0","","<img src=""img/set1/S1.jpg"" width=""540"" height = ""360"" style=""border:16px solid orange"">","null","","","","","","","","","",""
"null","","html-keyboard-response","354","345368","0.0-354.0","","","null","","","","","","","","","",""
"484.10000002384186","","image-keyboard-response","355","345854","0.0-355.0","","img/set1/S1.jpg","83","1","random","83","random,structured_incentive,structured_load,structured_normal","2,1,3,4,2,3","4,2,3,1","true","","",""
"null","","html-keyboard-response","356","346207","0.0-356.0","","<img src=""img/set1/S1.jpg"" width=""540"" height = ""360"" style=""border:16px solid orange"">","null","","","","","","","","","",""
"null","","html-keyboard-response","357","346412","0.0-357.0","","","null","","","","","","","","","",""
"517.5999999046326","","image-keyboard-response","358","346931","0.0-358.0","","img/set1/S2.jpg","68","2","random","68","random,structured_incentive,structured_load,structured_normal","2,1,3,4,2,3","4,2,3,1","true","","",""
"null","","html-keyboard-response","359","347284","0.0-359.0","","<img src=""img/set1/S2.jpg"" width=""540"" height = ""360"" style=""border:16px solid orange"">","null","","","","","","","","","",""
"null","","html-keyboard-response","360","347486","0.0-360.0","","","null","","","","","","","","","",""
"431.39999997615814","","image-keyboard-response","361","347918","0.0-361.0","","img/set1/S3.jpg","72","3","random","72","random,structured_incentive,structured_load,structured_normal","2,1,3,4,2,3","4,2,3,1","true","","",""
"null","","html-keyboard-response","362","348271","0.0-362.0","","<img src=""img/set1/S3.jpg"" width=""540"" height = ""360"" style=""border:16px solid orange"">","null","","","","","","","","","",""
"null","","html-keyboard-response","363","348472","0.0-363.0","","","null","","","","","","","","","",""
"3113.5","","html-keyboard-response","364","351587","0.0-364.0","","<p class=""center-content"">You have completed a block! </p><p class=""center-content"">Press any key on the keyboard to continue, </p><p class=""center-content"">or wait for the automatic progression to the next block after one minute.</p>","32","","","","","","","","","",""
"5425.600000023842","","instructions","365","357014","0.0-365.0","[{""page_index"":0,""viewing_time"":5425.100000023842}]","","","","","","","","","","","",""
"14774.600000023842","","instructions","366","371789","0.0-366.0","[{""page_index"":0,""viewing_time"":7522.399999976158},{""page_index"":1,""viewing_time"":7251.800000071526}]","","","","","","","","","","","",""
"908.8000000715256","","image-keyboard-response","367","372700","0.0-367.0","","img/set2/S3.jpg","68","3","structured_incentive","72","random,structured_incentive,structured_load,structured_normal","2,1,3,4,2,3","4,2,3,1","false","","",""
"null","","html-keyboard-response","368","373052","0.0-368.0","","<img src=""img/set2/S3.jpg"" width=""540"" height = ""360"">","null","","","","","","","","","",""
"null","","html-keyboard-response","369","373254","0.0-369.0","","","null","","","","","","","","","",""
"965.8000000715256","","image-keyboard-response","370","374221","0.0-370.0","","img/set2/S3.jpg","72","3","structured_incentive","72","random,structured_incentive,structured_load,structured_normal","2,1,3,4,2,3","4,2,3,1","true","","",""
"null","","html-keyboard-response","371","374574","0.0-371.0","","<img src=""img/set2/S3.jpg"" width=""540"" height = ""360"" style=""border:16px solid orange"">","null","","","","","","","","","",""
"null","","html-keyboard-response","372","374777","0.0-372.0","","","null","","","","","","","","","",""
"703.6000000238419","","image-keyboard-response","373","375482","0.0-373.0","","img/set2/S2.jpg","83","2","structured_incentive","68","random,structured_incentive,structured_load,structured_normal","2,1,3,4,2,3","4,2,3,1","false","","",""
"null","","html-keyboard-response","374","375834","0.0-374.0","","<img src=""img/set2/S2.jpg"" width=""540"" height = ""360"">","null","","","","","","","","","",""
"null","","html-keyboard-response","375","376036","0.0-375.0","","","null","","","","","","","","","",""
"805.6000000238419","","image-keyboard-response","376","376843","0.0-376.0","","img/set2/S1.jpg","83","1","structured_incentive","83","random,structured_incentive,structured_load,structured_normal","2,1,3,4,2,3","4,2,3,1","true","","",""
"null","","html-keyboard-response","377","377197","0.0-377.0","","<img src=""img/set2/S1.jpg"" width=""540"" height = ""360"" style=""border:16px solid Violet"">","null","","","","","","","","","",""
"null","","html-keyboard-response","378","377399","0.0-378.0","","","null","","","","","","","","","",""
"515.3999999761581","","image-keyboard-response","379","377916","0.0-379.0","","img/set2/S4.jpg","68","4","structured_incentive","74","random,structured_incentive,structured_load,structured_normal","2,1,3,4,2,3","4,2,3,1","false","","",""
"null","","html-keyboard-response","380","378269","0.0-380.0","","<img src=""img/set2/S4.jpg"" width=""540"" height = ""360"">","null","","","","","","","","","",""
"null","","html-keyboard-response","381","378472","0.0-381.0","","","null","","","","","","","","","",""
"748","","image-keyboard-response","382","379221","0.0-382.0","","img/set2/S3.jpg","72","3","structured_incentive","72","random,structured_incentive,structured_load,structured_normal","2,1,3,4,2,3","4,2,3,1","true","","",""
"null","","html-keyboard-response","383","379573","0.0-383.0","","<img src=""img/set2/S3.jpg"" width=""540"" height = ""360"" style=""border:16px solid orange"">","null","","","","","","","","","",""
"null","","html-keyboard-response","384","379780","0.0-384.0","","","null","","","","","","","","","",""
"538.7000000476837","","image-keyboard-response","385","380321","0.0-385.0","","img/set2/S3.jpg","72","3","structured_incentive","72","random,structured_incentive,structured_load,structured_normal","2,1,3,4,2,3","4,2,3,1","true","","",""
"null","","html-keyboard-response","386","380674","0.0-386.0","","<img src=""img/set2/S3.jpg"" width=""540"" height = ""360"" style=""border:16px solid orange"">","null","","","","","","","","","",""
"null","","html-keyboard-response","387","380877","0.0-387.0","","","null","","","","","","","","","",""
"515.7999999523163","","image-keyboard-response","388","381395","0.0-388.0","","img/set2/S3.jpg","72","3","structured_incentive","72","random,structured_incentive,structured_load,structured_normal","2,1,3,4,2,3","4,2,3,1","true","","",""
"null","","html-keyboard-response","389","381748","0.0-389.0","","<img src=""img/set2/S3.jpg"" width=""540"" height = ""360"" style=""border:16px solid orange"">","null","","","","","","","","","",""
"null","","html-keyboard-response","390","381951","0.0-390.0","","","null","","","","","","","","","",""
"850.8000000715256","","image-keyboard-response","391","382803","0.0-391.0","","img/set2/S2.jpg","74","2","structured_incentive","68","random,structured_incentive,structured_load,structured_normal","2,1,3,4,2,3","4,2,3,1","false","","",""
"null","","html-keyboard-response","392","383155","0.0-392.0","","<img src=""img/set2/S2.jpg"" width=""540"" height = ""360"">","null","","","","","","","","","",""
"null","","html-keyboard-response","393","383357","0.0-393.0","","","null","","","","","","","","","",""
"772.3999999761581","","image-keyboard-response","394","384133","0.0-394.0","","img/set2/S1.jpg","83","1","structured_incentive","83","random,structured_incentive,structured_load,structured_normal","2,1,3,4,2,3","4,2,3,1","true","","",""
"null","","html-keyboard-response","395","384485","0.0-395.0","","<img src=""img/set2/S1.jpg"" width=""540"" height = ""360"" style=""border:16px solid Violet"">","null","","","","","","","","","",""
"null","","html-keyboard-response","396","384688","0.0-396.0","","","null","","","","","","","","","",""
"543.2000000476837","","image-keyboard-response","397","385233","0.0-397.0","","img/set2/S4.jpg","68","4","structured_incentive","74","random,structured_incentive,structured_load,structured_normal","2,1,3,4,2,3","4,2,3,1","false","","",""
"null","","html-keyboard-response","398","385586","0.0-398.0","","<img src=""img/set2/S4.jpg"" width=""540"" height = ""360"">","null","","","","","","","","","",""
"null","","html-keyboard-response","399","385788","0.0-399.0","","","null","","","","","","","","","",""
"585.7999999523163","","image-keyboard-response","400","386376","0.0-400.0","","img/set2/S4.jpg","74","4","structured_incentive","74","random,structured_incentive,structured_load,structured_normal","2,1,3,4,2,3","4,2,3,1","true","","",""
"null","","html-keyboard-response","401","386729","0.0-401.0","","<img src=""img/set2/S4.jpg"" width=""540"" height = ""360"" style=""border:16px solid orange"">","null","","","","","","","","","",""
"null","","html-keyboard-response","402","386932","0.0-402.0","","","null","","","","","","","","","",""
"462.2000000476837","","image-keyboard-response","403","387395","0.0-403.0","","img/set2/S4.jpg","74","4","structured_incentive","74","random,structured_incentive,structured_load,structured_normal","2,1,3,4,2,3","4,2,3,1","true","","",""
"null","","html-keyboard-response","404","387748","0.0-404.0","","<img src=""img/set2/S4.jpg"" width=""540"" height = ""360"" style=""border:16px solid orange"">","null","","","","","","","","","",""
"null","","html-keyboard-response","405","387951","0.0-405.0","","","null","","","","","","","","","",""
"615.6000000238419","","image-keyboard-response","406","388568","0.0-406.0","","img/set2/S2.jpg","68","2","structured_incentive","68","random,structured_incentive,structured_load,structured_normal","2,1,3,4,2,3","4,2,3,1","true","","",""
"null","","html-keyboard-response","407","388922","0.0-407.0","","<img src=""img/set2/S2.jpg"" width=""540"" height = ""360"" style=""border:16px solid orange"">","null","","","","","","","","","",""
"null","","html-keyboard-response","408","389123","0.0-408.0","","","null","","","","","","","","","",""
"480.09999990463257","","image-keyboard-response","409","389607","0.0-409.0","","img/set2/S1.jpg","83","1","structured_incentive","83","random,structured_incentive,structured_load,structured_normal","2,1,3,4,2,3","4,2,3,1","true","","",""
"null","","html-keyboard-response","410","389962","0.0-410.0","","<img src=""img/set2/S1.jpg"" width=""540"" height = ""360"" style=""border:16px solid Violet"">","null","","","","","","","","","",""
"null","","html-keyboard-response","411","390163","0.0-411.0","","","null","","","","","","","","","",""
"864.7000000476837","","image-keyboard-response","412","391029","0.0-412.0","","img/set2/S2.jpg","74","2","structured_incentive","68","random,structured_incentive,structured_load,structured_normal","2,1,3,4,2,3","4,2,3,1","false","","",""
"null","","html-keyboard-response","413","391382","0.0-413.0","","<img src=""img/set2/S2.jpg"" width=""540"" height = ""360"">","null","","","","","","","","","",""
"null","","html-keyboard-response","414","391584","0.0-414.0","","","null","","","","","","","","","",""
"736.5","","image-keyboard-response","415","392322","0.0-415.0","","img/set2/S1.jpg","68","1","structured_incentive","83","random,structured_incentive,structured_load,structured_normal","2,1,3,4,2,3","4,2,3,1","false","","",""
"null","","html-keyboard-response","416","392678","0.0-416.0","","<img src=""img/set2/S1.jpg"" width=""540"" height = ""360"">","null","","","","","","","","","",""
"null","","html-keyboard-response","417","392880","0.0-417.0","","","null","","","","","","","","","",""
"651.2000000476837","","image-keyboard-response","418","393533","0.0-418.0","","img/set2/S3.jpg","72","3","structured_incentive","72","random,structured_incentive,structured_load,structured_normal","2,1,3,4,2,3","4,2,3,1","true","","",""
"null","","html-keyboard-response","419","393885","0.0-419.0","","<img src=""img/set2/S3.jpg"" width=""540"" height = ""360"" style=""border:16px solid orange"">","null","","","","","","","","","",""
"null","","html-keyboard-response","420","394087","0.0-420.0","","","null","","","","","","","","","",""
"801.8000000715256","","image-keyboard-response","421","394892","0.0-421.0","","img/set2/S4.jpg","68","4","structured_incentive","74","random,structured_incentive,structured_load,structured_normal","2,1,3,4,2,3","4,2,3,1","false","","",""
"null","","html-keyboard-response","422","395245","0.0-422.0","","<img src=""img/set2/S4.jpg"" width=""540"" height = ""360"">","null","","","","","","","","","",""
"null","","html-keyboard-response","423","395447","0.0-423.0","","","null","","","","","","","","","",""
"686.8000000715256","","image-keyboard-response","424","396135","0.0-424.0","","img/set2/S3.jpg","72","3","structured_incentive","72","random,structured_incentive,structured_load,structured_normal","2,1,3,4,2,3","4,2,3,1","true","","",""
"null","","html-keyboard-response","425","396488","0.0-425.0","","<img src=""img/set2/S3.jpg"" width=""540"" height = ""360"" style=""border:16px solid orange"">","null","","","","","","","","","",""
"null","","html-keyboard-response","426","396690","0.0-426.0","","","null","","","","","","","","","",""
"377.5","","image-keyboard-response","427","397071","0.0-427.0","","img/set2/S4.jpg","74","4","structured_incentive","74","random,structured_incentive,structured_load,structured_normal","2,1,3,4,2,3","4,2,3,1","true","","",""
"null","","html-keyboard-response","428","397426","0.0-428.0","","<img src=""img/set2/S4.jpg"" width=""540"" height = ""360"" style=""border:16px solid orange"">","null","","","","","","","","","",""
"null","","html-keyboard-response","429","397630","0.0-429.0","","","null","","","","","","","","","",""
"634.1000000238419","","image-keyboard-response","430","398266","0.0-430.0","","img/set2/S3.jpg","72","3","structured_incentive","72","random,structured_incentive,structured_load,structured_normal","2,1,3,4,2,3","4,2,3,1","true","","",""
"null","","html-keyboard-response","431","398620","0.0-431.0","","<img src=""img/set2/S3.jpg"" width=""540"" height = ""360"" style=""border:16px solid orange"">","null","","","","","","","","","",""
"null","","html-keyboard-response","432","398822","0.0-432.0","","","null","","","","","","","","","",""
"585.7000000476837","","image-keyboard-response","433","399411","0.0-433.0","","img/set2/S3.jpg","72","3","structured_incentive","72","random,structured_incentive,structured_load,structured_normal","2,1,3,4,2,3","4,2,3,1","true","","",""
"null","","html-keyboard-response","434","399764","0.0-434.0","","<img src=""img/set2/S3.jpg"" width=""540"" height = ""360"" style=""border:16px solid orange"">","null","","","","","","","","","",""
"null","","html-keyboard-response","435","399966","0.0-435.0","","","null","","","","","","","","","",""
"792.1000000238419","","image-keyboard-response","436","400760","0.0-436.0","","img/set2/S2.jpg","68","2","structured_incentive","68","random,structured_incentive,structured_load,structured_normal","2,1,3,4,2,3","4,2,3,1","true","","",""
"null","","html-keyboard-response","437","401113","0.0-437.0","","<img src=""img/set2/S2.jpg"" width=""540"" height = ""360"" style=""border:16px solid orange"">","null","","","","","","","","","",""
"null","","html-keyboard-response","438","401316","0.0-438.0","","","null","","","","","","","","","",""
"492.60000002384186","","image-keyboard-response","439","401810","0.0-439.0","","img/set2/S1.jpg","83","1","structured_incentive","83","random,structured_incentive,structured_load,structured_normal","2,1,3,4,2,3","4,2,3,1","true","","",""
"null","","html-keyboard-response","440","402164","0.0-440.0","","<img src=""img/set2/S1.jpg"" width=""540"" height = ""360"" style=""border:16px solid Violet"">","null","","","","","","","","","",""
"null","","html-keyboard-response","441","402366","0.0-441.0","","","null","","","","","","","","","",""
"913.5","","image-keyboard-response","442","403281","0.0-442.0","","img/set2/S2.jpg","68","2","structured_incentive","68","random,structured_incentive,structured_load,structured_normal","2,1,3,4,2,3","4,2,3,1","true","","",""
"null","","html-keyboard-response","443","403634","0.0-443.0","","<img src=""img/set2/S2.jpg"" width=""540"" height = ""360"" style=""border:16px solid orange"">","null","","","","","","","","","",""
"null","","html-keyboard-response","444","403836","0.0-444.0","","","null","","","","","","","","","",""
"534.4000000953674","","image-keyboard-response","445","404372","0.0-445.0","","img/set2/S1.jpg","83","1","structured_incentive","83","random,structured_incentive,structured_load,structured_normal","2,1,3,4,2,3","4,2,3,1","true","","",""
"null","","html-keyboard-response","446","404727","0.0-446.0","","<img src=""img/set2/S1.jpg"" width=""540"" height = ""360"" style=""border:16px solid Violet"">","null","","","","","","","","","",""
"null","","html-keyboard-response","447","404929","0.0-447.0","","","null","","","","","","","","","",""
"591.8999999761581","","image-keyboard-response","448","405523","0.0-448.0","","img/set2/S2.jpg","68","2","structured_incentive","68","random,structured_incentive,structured_load,structured_normal","2,1,3,4,2,3","4,2,3,1","true","","",""
"null","","html-keyboard-response","449","405877","0.0-449.0","","<img src=""img/set2/S2.jpg"" width=""540"" height = ""360"" style=""border:16px solid orange"">","null","","","","","","","","","",""
"null","","html-keyboard-response","450","406080","0.0-450.0","","","null","","","","","","","","","",""
"535.1000000238419","","image-keyboard-response","451","406616","0.0-451.0","","img/set2/S1.jpg","83","1","structured_incentive","83","random,structured_incentive,structured_load,structured_normal","2,1,3,4,2,3","4,2,3,1","true","","",""
"null","","html-keyboard-response","452","406968","0.0-452.0","","<img src=""img/set2/S1.jpg"" width=""540"" height = ""360"" style=""border:16px solid Violet"">","null","","","","","","","","","",""
"null","","html-keyboard-response","453","407171","0.0-453.0","","","null","","","","","","","","","",""
"604.1999999284744","","image-keyboard-response","454","407777","0.0-454.0","","img/set2/S3.jpg","72","3","structured_incentive","72","random,structured_incentive,structured_load,structured_normal","2,1,3,4,2,3","4,2,3,1","true","","",""
"null","","html-keyboard-response","455","408130","0.0-455.0","","<img src=""img/set2/S3.jpg"" width=""540"" height = ""360"" style=""border:16px solid orange"">","null","","","","","","","","","",""
"null","","html-keyboard-response","456","408333","0.0-456.0","","","null","","","","","","","","","",""
"410.1999999284744","","image-keyboard-response","457","408744","0.0-457.0","","img/set2/S2.jpg","74","2","structured_incentive","68","random,structured_incentive,structured_load,structured_normal","2,1,3,4,2,3","4,2,3,1","false","","",""
"null","","html-keyboard-response","458","409097","0.0-458.0","","<img src=""img/set2/S2.jpg"" width=""540"" height = ""360"">","null","","","","","","","","","",""
"null","","html-keyboard-response","459","409299","0.0-459.0","","","null","","","","","","","","","",""
"681.3999999761581","","image-keyboard-response","460","409982","0.0-460.0","","img/set2/S1.jpg","83","1","structured_incentive","83","random,structured_incentive,structured_load,structured_normal","2,1,3,4,2,3","4,2,3,1","true","","",""
"null","","html-keyboard-response","461","410335","0.0-461.0","","<img src=""img/set2/S1.jpg"" width=""540"" height = ""360"" style=""border:16px solid Violet"">","null","","","","","","","","","",""
"null","","html-keyboard-response","462","410537","0.0-462.0","","","null","","","","","","","","","",""
"483.7999999523163","","image-keyboard-response","463","411024","0.0-463.0","","img/set2/S2.jpg","68","2","structured_incentive","68","random,structured_incentive,structured_load,structured_normal","2,1,3,4,2,3","4,2,3,1","true","","",""
"null","","html-keyboard-response","464","411380","0.0-464.0","","<img src=""img/set2/S2.jpg"" width=""540"" height = ""360"" style=""border:16px solid orange"">","null","","","","","","","","","",""
"null","","html-keyboard-response","465","411583","0.0-465.0","","","null","","","","","","","","","",""
"553.2000000476837","","image-keyboard-response","466","412138","0.0-466.0","","img/set2/S1.jpg","83","1","structured_incentive","83","random,structured_incentive,structured_load,structured_normal","2,1,3,4,2,3","4,2,3,1","true","","",""
"null","","html-keyboard-response","467","412492","0.0-467.0","","<img src=""img/set2/S1.jpg"" width=""540"" height = ""360"" style=""border:16px solid Violet"">","null","","","","","","","","","",""
"null","","html-keyboard-response","468","412695","0.0-468.0","","","null","","","","","","","","","",""
"572.7999999523163","","image-keyboard-response","469","413269","0.0-469.0","","img/set2/S3.jpg","72","3","structured_incentive","72","random,structured_incentive,structured_load,structured_normal","2,1,3,4,2,3","4,2,3,1","true","","",""
"null","","html-keyboard-response","470","413622","0.0-470.0","","<img src=""img/set2/S3.jpg"" width=""540"" height = ""360"" style=""border:16px solid orange"">","null","","","","","","","","","",""
"null","","html-keyboard-response","471","413828","0.0-471.0","","","null","","","","","","","","","",""
"473.60000002384186","","image-keyboard-response","472","414303","0.0-472.0","","img/set2/S3.jpg","72","3","structured_incentive","72","random,structured_incentive,structured_load,structured_normal","2,1,3,4,2,3","4,2,3,1","true","","",""
"null","","html-keyboard-response","473","414655","0.0-473.0","","<img src=""img/set2/S3.jpg"" width=""540"" height = ""360"" style=""border:16px solid orange"">","null","","","","","","","","","",""
"null","","html-keyboard-response","474","414859","0.0-474.0","","","null","","","","","","","","","",""
"469.5","","image-keyboard-response","475","415330","0.0-475.0","","img/set2/S4.jpg","74","4","structured_incentive","74","random,structured_incentive,structured_load,structured_normal","2,1,3,4,2,3","4,2,3,1","true","","",""
"null","","html-keyboard-response","476","415683","0.0-476.0","","<img src=""img/set2/S4.jpg"" width=""540"" height = ""360"" style=""border:16px solid orange"">","null","","","","","","","","","",""
"null","","html-keyboard-response","477","415886","0.0-477.0","","","null","","","","","","","","","",""
"678.7999999523163","","image-keyboard-response","478","416566","0.0-478.0","","img/set2/S2.jpg","68","2","structured_incentive","68","random,structured_incentive,structured_load,structured_normal","2,1,3,4,2,3","4,2,3,1","true","","",""
"null","","html-keyboard-response","479","416919","0.0-479.0","","<img src=""img/set2/S2.jpg"" width=""540"" height = ""360"" style=""border:16px solid orange"">","null","","","","","","","","","",""
"null","","html-keyboard-response","480","417121","0.0-480.0","","","null","","","","","","","","","",""
"507.10000002384186","","image-keyboard-response","481","417629","0.0-481.0","","img/set2/S1.jpg","83","1","structured_incentive","83","random,structured_incentive,structured_load,structured_normal","2,1,3,4,2,3","4,2,3,1","true","","",""
"null","","html-keyboard-response","482","417982","0.0-482.0","","<img src=""img/set2/S1.jpg"" width=""540"" height = ""360"" style=""border:16px solid Violet"">","null","","","","","","","","","",""
"null","","html-keyboard-response","483","418184","0.0-483.0","","","null","","","","","","","","","",""
"848.5","","image-keyboard-response","484","419034","0.0-484.0","","img/set2/S4.jpg","74","4","structured_incentive","74","random,structured_incentive,structured_load,structured_normal","2,1,3,4,2,3","4,2,3,1","true","","",""
"null","","html-keyboard-response","485","419386","0.0-485.0","","<img src=""img/set2/S4.jpg"" width=""540"" height = ""360"" style=""border:16px solid orange"">","null","","","","","","","","","",""
"null","","html-keyboard-response","486","419588","0.0-486.0","","","null","","","","","","","","","",""
"751.3999999761581","","image-keyboard-response","487","420343","0.0-487.0","","img/set2/S3.jpg","72","3","structured_incentive","72","random,structured_incentive,structured_load,structured_normal","2,1,3,4,2,3","4,2,3,1","true","","",""
"null","","html-keyboard-response","488","420696","0.0-488.0","","<img src=""img/set2/S3.jpg"" width=""540"" height = ""360"" style=""border:16px solid orange"">","null","","","","","","","","","",""
"null","","html-keyboard-response","489","420897","0.0-489.0","","","null","","","","","","","","","",""
"587.8000000715256","","image-keyboard-response","490","421487","0.0-490.0","","img/set2/S2.jpg","68","2","structured_incentive","68","random,structured_incentive,structured_load,structured_normal","2,1,3,4,2,3","4,2,3,1","true","","",""
"null","","html-keyboard-response","491","421841","0.0-491.0","","<img src=""img/set2/S2.jpg"" width=""540"" height = ""360"" style=""border:16px solid orange"">","null","","","","","","","","","",""
"null","","html-keyboard-response","492","422044","0.0-492.0","","","null","","","","","","","","","",""
"415.3000000715256","","image-keyboard-response","493","422461","0.0-493.0","","img/set2/S1.jpg","83","1","structured_incentive","83","random,structured_incentive,structured_load,structured_normal","2,1,3,4,2,3","4,2,3,1","true","","",""
"null","","html-keyboard-response","494","422815","0.0-494.0","","<img src=""img/set2/S1.jpg"" width=""540"" height = ""360"" style=""border:16px solid Violet"">","null","","","","","","","","","",""
"null","","html-keyboard-response","495","423018","0.0-495.0","","","null","","","","","","","","","",""
"721.8000000715256","","image-keyboard-response","496","423742","0.0-496.0","","img/set2/S4.jpg","74","4","structured_incentive","74","random,structured_incentive,structured_load,structured_normal","2,1,3,4,2,3","4,2,3,1","true","","",""
"null","","html-keyboard-response","497","424096","0.0-497.0","","<img src=""img/set2/S4.jpg"" width=""540"" height = ""360"" style=""border:16px solid orange"">","null","","","","","","","","","",""
"null","","html-keyboard-response","498","424298","0.0-498.0","","","null","","","","","","","","","",""
"423.39999997615814","","image-keyboard-response","499","424724","0.0-499.0","","img/set2/S4.jpg","74","4","structured_incentive","74","random,structured_incentive,structured_load,structured_normal","2,1,3,4,2,3","4,2,3,1","true","","",""
"null","","html-keyboard-response","500","425077","0.0-500.0","","<img src=""img/set2/S4.jpg"" width=""540"" height = ""360"" style=""border:16px solid orange"">","null","","","","","","","","","",""
"null","","html-keyboard-response","501","425279","0.0-501.0","","","null","","","","","","","","","",""
"519.6999999284744","","image-keyboard-response","502","425800","0.0-502.0","","img/set2/S3.jpg","72","3","structured_incentive","72","random,structured_incentive,structured_load,structured_normal","2,1,3,4,2,3","4,2,3,1","true","","",""
"null","","html-keyboard-response","503","426153","0.0-503.0","","<img src=""img/set2/S3.jpg"" width=""540"" height = ""360"" style=""border:16px solid orange"">","null","","","","","","","","","",""
"null","","html-keyboard-response","504","426359","0.0-504.0","","","null","","","","","","","","","",""
"620.1999999284744","","image-keyboard-response","505","426981","0.0-505.0","","img/set2/S4.jpg","74","4","structured_incentive","74","random,structured_incentive,structured_load,structured_normal","2,1,3,4,2,3","4,2,3,1","true","","",""
"null","","html-keyboard-response","506","427334","0.0-506.0","","<img src=""img/set2/S4.jpg"" width=""540"" height = ""360"" style=""border:16px solid orange"">","null","","","","","","","","","",""
"null","","html-keyboard-response","507","427536","0.0-507.0","","","null","","","","","","","","","",""
"410.10000002384186","","image-keyboard-response","508","427948","0.0-508.0","","img/set2/S4.jpg","74","4","structured_incentive","74","random,structured_incentive,structured_load,structured_normal","2,1,3,4,2,3","4,2,3,1","true","","",""
"null","","html-keyboard-response","509","428301","0.0-509.0","","<img src=""img/set2/S4.jpg"" width=""540"" height = ""360"" style=""border:16px solid orange"">","null","","","","","","","","","",""
"null","","html-keyboard-response","510","428504","0.0-510.0","","","null","","","","","","","","","",""
"741.8999999761581","","image-keyboard-response","511","429248","0.0-511.0","","img/set2/S2.jpg","68","2","structured_incentive","68","random,structured_incentive,structured_load,structured_normal","2,1,3,4,2,3","4,2,3,1","true","","",""
"null","","html-keyboard-response","512","429600","0.0-512.0","","<img src=""img/set2/S2.jpg"" width=""540"" height = ""360"" style=""border:16px solid orange"">","null","","","","","","","","","",""
"null","","html-keyboard-response","513","429802","0.0-513.0","","","null","","","","","","","","","",""
"415.2000000476837","","image-keyboard-response","514","430218","0.0-514.0","","img/set2/S1.jpg","83","1","structured_incentive","83","random,structured_incentive,structured_load,structured_normal","2,1,3,4,2,3","4,2,3,1","true","","",""
"null","","html-keyboard-response","515","430574","0.0-515.0","","<img src=""img/set2/S1.jpg"" width=""540"" height = ""360"" style=""border:16px solid Violet"">","null","","","","","","","","","",""
"null","","html-keyboard-response","516","430792","0.0-516.0","","","null","","","","","","","","","",""
"614.4000000953674","","image-keyboard-response","517","431408","0.0-517.0","","img/set2/S3.jpg","72","3","structured_incentive","72","random,structured_incentive,structured_load,structured_normal","2,1,3,4,2,3","4,2,3,1","true","","",""
"null","","html-keyboard-response","518","431763","0.0-518.0","","<img src=""img/set2/S3.jpg"" width=""540"" height = ""360"" style=""border:16px solid orange"">","null","","","","","","","","","",""
"null","","html-keyboard-response","519","431966","0.0-519.0","","","null","","","","","","","","","",""
"810.1000000238419","","image-keyboard-response","520","432777","0.0-520.0","","img/set2/S2.jpg","68","2","structured_incentive","68","random,structured_incentive,structured_load,structured_normal","2,1,3,4,2,3","4,2,3,1","true","","",""
"null","","html-keyboard-response","521","433130","0.0-521.0","","<img src=""img/set2/S2.jpg"" width=""540"" height = ""360"" style=""border:16px solid orange"">","null","","","","","","","","","",""
"null","","html-keyboard-response","522","433333","0.0-522.0","","","null","","","","","","","","","",""
"485.8000000715256","","image-keyboard-response","523","433820","0.0-523.0","","img/set2/S1.jpg","83","1","structured_incentive","83","random,structured_incentive,structured_load,structured_normal","2,1,3,4,2,3","4,2,3,1","true","","",""
"null","","html-keyboard-response","524","434176","0.0-524.0","","<img src=""img/set2/S1.jpg"" width=""540"" height = ""360"" style=""border:16px solid Violet"">","null","","","","","","","","","",""
"null","","html-keyboard-response","525","434379","0.0-525.0","","","null","","","","","","","","","",""
"589.5","","image-keyboard-response","526","434970","0.0-526.0","","img/set2/S4.jpg","74","4","structured_incentive","74","random,structured_incentive,structured_load,structured_normal","2,1,3,4,2,3","4,2,3,1","true","","",""
"null","","html-keyboard-response","527","435326","0.0-527.0","","<img src=""img/set2/S4.jpg"" width=""540"" height = ""360"" style=""border:16px solid orange"">","null","","","","","","","","","",""
"null","","html-keyboard-response","528","435529","0.0-528.0","","","null","","","","","","","","","",""
"454.90000009536743","","image-keyboard-response","529","435985","0.0-529.0","","img/set2/S4.jpg","74","4","structured_incentive","74","random,structured_incentive,structured_load,structured_normal","2,1,3,4,2,3","4,2,3,1","true","","",""
"null","","html-keyboard-response","530","436338","0.0-530.0","","<img src=""img/set2/S4.jpg"" width=""540"" height = ""360"" style=""border:16px solid orange"">","null","","","","","","","","","",""
"null","","html-keyboard-response","531","436544","0.0-531.0","","","null","","","","","","","","","",""
"408.59999990463257","","image-keyboard-response","532","436956","0.0-532.0","","img/set2/S4.jpg","74","4","structured_incentive","74","random,structured_incentive,structured_load,structured_normal","2,1,3,4,2,3","4,2,3,1","true","","",""
"null","","html-keyboard-response","533","437309","0.0-533.0","","<img src=""img/set2/S4.jpg"" width=""540"" height = ""360"" style=""border:16px solid orange"">","null","","","","","","","","","",""
"null","","html-keyboard-response","534","437512","0.0-534.0","","","null","","","","","","","","","",""
"622.2999999523163","","image-keyboard-response","535","438135","0.0-535.0","","img/set2/S3.jpg","72","3","structured_incentive","72","random,structured_incentive,structured_load,structured_normal","2,1,3,4,2,3","4,2,3,1","true","","",""
"null","","html-keyboard-response","536","438488","0.0-536.0","","<img src=""img/set2/S3.jpg"" width=""540"" height = ""360"" style=""border:16px solid orange"">","null","","","","","","","","","",""
"null","","html-keyboard-response","537","438693","0.0-537.0","","","null","","","","","","","","","",""
"409.2999999523163","","image-keyboard-response","538","439104","0.0-538.0","","img/set2/S3.jpg","72","3","structured_incentive","72","random,structured_incentive,structured_load,structured_normal","2,1,3,4,2,3","4,2,3,1","true","","",""
"null","","html-keyboard-response","539","439458","0.0-539.0","","<img src=""img/set2/S3.jpg"" width=""540"" height = ""360"" style=""border:16px solid orange"">","null","","","","","","","","","",""
"null","","html-keyboard-response","540","439661","0.0-540.0","","","null","","","","","","","","","",""
"538.3000000715256","","image-keyboard-response","541","440201","0.0-541.0","","img/set2/S4.jpg","74","4","structured_incentive","74","random,structured_incentive,structured_load,structured_normal","2,1,3,4,2,3","4,2,3,1","true","","",""
"null","","html-keyboard-response","542","440553","0.0-542.0","","<img src=""img/set2/S4.jpg"" width=""540"" height = ""360"" style=""border:16px solid orange"">","null","","","","","","","","","",""
"null","","html-keyboard-response","543","440757","0.0-543.0","","","null","","","","","","","","","",""
"655.1000000238419","","image-keyboard-response","544","441414","0.0-544.0","","img/set2/S2.jpg","68","2","structured_incentive","68","random,structured_incentive,structured_load,structured_normal","2,1,3,4,2,3","4,2,3,1","true","","",""
"null","","html-keyboard-response","545","441765","0.0-545.0","","<img src=""img/set2/S2.jpg"" width=""540"" height = ""360"" style=""border:16px solid orange"">","null","","","","","","","","","",""
"null","","html-keyboard-response","546","441967","0.0-546.0","","","null","","","","","","","","","",""
"374.89999997615814","","image-keyboard-response","547","442344","0.0-547.0","","img/set2/S1.jpg","83","1","structured_incentive","83","random,structured_incentive,structured_load,structured_normal","2,1,3,4,2,3","4,2,3,1","true","","",""
"null","","html-keyboard-response","548","442697","0.0-548.0","","<img src=""img/set2/S1.jpg"" width=""540"" height = ""360"" style=""border:16px solid Violet"">","null","","","","","","","","","",""
"null","","html-keyboard-response","549","442900","0.0-549.0","","","null","","","","","","","","","",""
"669.7999999523163","","image-keyboard-response","550","443571","0.0-550.0","","img/set2/S4.jpg","74","4","structured_incentive","74","random,structured_incentive,structured_load,structured_normal","2,1,3,4,2,3","4,2,3,1","true","","",""
"null","","html-keyboard-response","551","443926","0.0-551.0","","<img src=""img/set2/S4.jpg"" width=""540"" height = ""360"" style=""border:16px solid orange"">","null","","","","","","","","","",""
"null","","html-keyboard-response","552","444129","0.0-552.0","","","null","","","","","","","","","",""
"353.1999999284744","","image-keyboard-response","553","444483","0.0-553.0","","img/set2/S4.jpg","74","4","structured_incentive","74","random,structured_incentive,structured_load,structured_normal","2,1,3,4,2,3","4,2,3,1","true","","",""
"null","","html-keyboard-response","554","444836","0.0-554.0","","<img src=""img/set2/S4.jpg"" width=""540"" height = ""360"" style=""border:16px solid orange"">","null","","","","","","","","","",""
"null","","html-keyboard-response","555","445038","0.0-555.0","","","null","","","","","","","","","",""
"532.8000000715256","","image-keyboard-response","556","445575","0.0-556.0","","img/set2/S2.jpg","68","2","structured_incentive","68","random,structured_incentive,structured_load,structured_normal","2,1,3,4,2,3","4,2,3,1","true","","",""
"null","","html-keyboard-response","557","445928","0.0-557.0","","<img src=""img/set2/S2.jpg"" width=""540"" height = ""360"" style=""border:16px solid orange"">","null","","","","","","","","","",""
"null","","html-keyboard-response","558","446131","0.0-558.0","","","null","","","","","","","","","",""
"742.8999999761581","","image-keyboard-response","559","446876","0.0-559.0","","img/set2/S1.jpg","83","1","structured_incentive","83","random,structured_incentive,structured_load,structured_normal","2,1,3,4,2,3","4,2,3,1","true","","",""
"null","","html-keyboard-response","560","447229","0.0-560.0","","<img src=""img/set2/S1.jpg"" width=""540"" height = ""360"" style=""border:16px solid Violet"">","null","","","","","","","","","",""
"null","","html-keyboard-response","561","447431","0.0-561.0","","","null","","","","","","","","","",""
