rt,url,trial_type,trial_index,time_elapsed,internal_node_id,assignmentID,mturkID,hitID,view_history,stimulus,key_press,state,test_part,correct_response,order_block,order_chunk,correct,bonus,responses
10022.8000000045,consent.html,external-html,0,10112,0.0-0.0,3JV9LGBJWU0TSCKFE2VW0L87YXCOG2,A1JVO7FLPATHUB,30OITAWPBQP2Z1DQ5HPUZCTXABIH90,,,,,,,,,,,
47497.8999999985,,instructions,1,57610,0.0-1.0,3JV9LGBJWU0TSCKFE2VW0L87YXCOG2,A1JVO7FLPATHUB,30OITAWPBQP2Z1DQ5HPUZCTXABIH90,"[{""page_index"":0,""viewing_time"":2492.10000000149},{""page_index"":1,""viewing_time"":3853.2000000029802},{""page_index"":2,""viewing_time"":5235.79999999702},{""page_index"":3,""viewing_time"":13889.60000000149},{""page_index"":4,""viewing_time"":2353.2999999970198},{""page_index"":5,""viewing_time"":5263.60000000149},{""page_index"":6,""viewing_time"":3694.60000000149},{""page_index"":5,""viewing_time"":635.5},{""page_index"":4,""viewing_time"":2216.7999999970198},{""page_index"":3,""viewing_time"":5552.80000000447},{""page_index"":4,""viewing_time"":876.7999999970198},{""page_index"":5,""viewing_time"":581},{""page_index"":6,""viewing_time"":852.2000000029802}]",,,,,,,,,,
9967.10000000149,,instructions,2,67578,0.0-2.0,3JV9LGBJWU0TSCKFE2VW0L87YXCOG2,A1JVO7FLPATHUB,30OITAWPBQP2Z1DQ5HPUZCTXABIH90,"[{""page_index"":0,""viewing_time"":9966.89999999851}]",,,,,,,,,,
4654.10000000149,,instructions,3,72233,0.0-3.0,3JV9LGBJWU0TSCKFE2VW0L87YXCOG2,A1JVO7FLPATHUB,30OITAWPBQP2Z1DQ5HPUZCTXABIH90,"[{""page_index"":0,""viewing_time"":4653.79999999702}]",,,,,,,,,,
500.5,,image-keyboard-response,4,72735,0.0-4.0,3JV9LGBJWU0TSCKFE2VW0L87YXCOG2,A1JVO7FLPATHUB,30OITAWPBQP2Z1DQ5HPUZCTXABIH90,,img/set1/S3.jpg,83,3,structured_normal,72,"structured_normal,random,structured_incentive","1,2,2,3",FALSE,,
null,,html-keyboard-response,5,73087,0.0-5.0,3JV9LGBJWU0TSCKFE2VW0L87YXCOG2,A1JVO7FLPATHUB,30OITAWPBQP2Z1DQ5HPUZCTXABIH90,,"<img src=""img/set1/S3.jpg"" width=""540"" height = ""360"">",null,,,,,,,,
null,,html-keyboard-response,6,73288,0.0-6.0,3JV9LGBJWU0TSCKFE2VW0L87YXCOG2,A1JVO7FLPATHUB,30OITAWPBQP2Z1DQ5HPUZCTXABIH90,,,null,,,,,,,,
992.20000000298,,image-keyboard-response,7,74281,0.0-7.0,3JV9LGBJWU0TSCKFE2VW0L87YXCOG2,A1JVO7FLPATHUB,30OITAWPBQP2Z1DQ5HPUZCTXABIH90,,img/set1/S3.jpg,68,3,structured_normal,72,"structured_normal,random,structured_incentive","1,2,2,3",FALSE,,
null,,html-keyboard-response,8,74633,0.0-8.0,3JV9LGBJWU0TSCKFE2VW0L87YXCOG2,A1JVO7FLPATHUB,30OITAWPBQP2Z1DQ5HPUZCTXABIH90,,"<img src=""img/set1/S3.jpg"" width=""540"" height = ""360"">",null,,,,,,,,
null,,html-keyboard-response,9,74834,0.0-9.0,3JV9LGBJWU0TSCKFE2VW0L87YXCOG2,A1JVO7FLPATHUB,30OITAWPBQP2Z1DQ5HPUZCTXABIH90,,,null,,,,,,,,
0.100000001490116,,image-keyboard-response,10,74835,0.0-10.0,3JV9LGBJWU0TSCKFE2VW0L87YXCOG2,A1JVO7FLPATHUB,30OITAWPBQP2Z1DQ5HPUZCTXABIH90,,img/set1/S4.jpg,72,4,structured_normal,74,"structured_normal,random,structured_incentive","1,2,2,3",FALSE,,
null,,html-keyboard-response,11,75186,0.0-11.0,3JV9LGBJWU0TSCKFE2VW0L87YXCOG2,A1JVO7FLPATHUB,30OITAWPBQP2Z1DQ5HPUZCTXABIH90,,"<img src=""img/set1/S4.jpg"" width=""540"" height = ""360"">",null,,,,,,,,
null,,html-keyboard-response,12,75387,0.0-12.0,3JV9LGBJWU0TSCKFE2VW0L87YXCOG2,A1JVO7FLPATHUB,30OITAWPBQP2Z1DQ5HPUZCTXABIH90,,,null,,,,,,,,
372.79999999702,,image-keyboard-response,13,75761,0.0-13.0,3JV9LGBJWU0TSCKFE2VW0L87YXCOG2,A1JVO7FLPATHUB,30OITAWPBQP2Z1DQ5HPUZCTXABIH90,,img/set1/S3.jpg,74,3,structured_normal,72,"structured_normal,random,structured_incentive","1,2,2,3",FALSE,,
null,,html-keyboard-response,14,76112,0.0-14.0,3JV9LGBJWU0TSCKFE2VW0L87YXCOG2,A1JVO7FLPATHUB,30OITAWPBQP2Z1DQ5HPUZCTXABIH90,,"<img src=""img/set1/S3.jpg"" width=""540"" height = ""360"">",null,,,,,,,,
null,,html-keyboard-response,15,76314,0.0-15.0,3JV9LGBJWU0TSCKFE2VW0L87YXCOG2,A1JVO7FLPATHUB,30OITAWPBQP2Z1DQ5HPUZCTXABIH90,,,null,,,,,,,,
866.29999999702,,image-keyboard-response,16,77181,0.0-16.0,3JV9LGBJWU0TSCKFE2VW0L87YXCOG2,A1JVO7FLPATHUB,30OITAWPBQP2Z1DQ5HPUZCTXABIH90,,img/set1/S1.jpg,72,1,structured_normal,83,"structured_normal,random,structured_incentive","1,2,2,3",FALSE,,
null,,html-keyboard-response,17,77533,0.0-17.0,3JV9LGBJWU0TSCKFE2VW0L87YXCOG2,A1JVO7FLPATHUB,30OITAWPBQP2Z1DQ5HPUZCTXABIH90,,"<img src=""img/set1/S1.jpg"" width=""540"" height = ""360"">",null,,,,,,,,
null,,html-keyboard-response,18,77735,0.0-18.0,3JV9LGBJWU0TSCKFE2VW0L87YXCOG2,A1JVO7FLPATHUB,30OITAWPBQP2Z1DQ5HPUZCTXABIH90,,,null,,,,,,,,
454.5,,image-keyboard-response,19,78190,0.0-19.0,3JV9LGBJWU0TSCKFE2VW0L87YXCOG2,A1JVO7FLPATHUB,30OITAWPBQP2Z1DQ5HPUZCTXABIH90,,img/set1/S2.jpg,83,2,structured_normal,68,"structured_normal,random,structured_incentive","1,2,2,3",FALSE,,
null,,html-keyboard-response,20,78542,0.0-20.0,3JV9LGBJWU0TSCKFE2VW0L87YXCOG2,A1JVO7FLPATHUB,30OITAWPBQP2Z1DQ5HPUZCTXABIH90,,"<img src=""img/set1/S2.jpg"" width=""540"" height = ""360"">",null,,,,,,,,
null,,html-keyboard-response,21,78743,0.0-21.0,3JV9LGBJWU0TSCKFE2VW0L87YXCOG2,A1JVO7FLPATHUB,30OITAWPBQP2Z1DQ5HPUZCTXABIH90,,,null,,,,,,,,
783.89999999851,,image-keyboard-response,22,79528,0.0-22.0,3JV9LGBJWU0TSCKFE2VW0L87YXCOG2,A1JVO7FLPATHUB,30OITAWPBQP2Z1DQ5HPUZCTXABIH90,,img/set1/S1.jpg,72,1,structured_normal,83,"structured_normal,random,structured_incentive","1,2,2,3",FALSE,,
null,,html-keyboard-response,23,79879,0.0-23.0,3JV9LGBJWU0TSCKFE2VW0L87YXCOG2,A1JVO7FLPATHUB,30OITAWPBQP2Z1DQ5HPUZCTXABIH90,,"<img src=""img/set1/S1.jpg"" width=""540"" height = ""360"">",null,,,,,,,,
null,,html-keyboard-response,24,80080,0.0-24.0,3JV9LGBJWU0TSCKFE2VW0L87YXCOG2,A1JVO7FLPATHUB,30OITAWPBQP2Z1DQ5HPUZCTXABIH90,,,null,,,,,,,,
704.29999999702,,image-keyboard-response,25,80784,0.0-25.0,3JV9LGBJWU0TSCKFE2VW0L87YXCOG2,A1JVO7FLPATHUB,30OITAWPBQP2Z1DQ5HPUZCTXABIH90,,img/set1/S2.jpg,83,2,structured_normal,68,"structured_normal,random,structured_incentive","1,2,2,3",FALSE,,
null,,html-keyboard-response,26,81136,0.0-26.0,3JV9LGBJWU0TSCKFE2VW0L87YXCOG2,A1JVO7FLPATHUB,30OITAWPBQP2Z1DQ5HPUZCTXABIH90,,"<img src=""img/set1/S2.jpg"" width=""540"" height = ""360"">",null,,,,,,,,
null,,html-keyboard-response,27,81337,0.0-27.0,3JV9LGBJWU0TSCKFE2VW0L87YXCOG2,A1JVO7FLPATHUB,30OITAWPBQP2Z1DQ5HPUZCTXABIH90,,,null,,,,,,,,
1030.89999999851,,image-keyboard-response,28,82368,0.0-28.0,3JV9LGBJWU0TSCKFE2VW0L87YXCOG2,A1JVO7FLPATHUB,30OITAWPBQP2Z1DQ5HPUZCTXABIH90,,img/set1/S2.jpg,83,2,structured_normal,68,"structured_normal,random,structured_incentive","1,2,2,3",FALSE,,
null,,html-keyboard-response,29,82720,0.0-29.0,3JV9LGBJWU0TSCKFE2VW0L87YXCOG2,A1JVO7FLPATHUB,30OITAWPBQP2Z1DQ5HPUZCTXABIH90,,"<img src=""img/set1/S2.jpg"" width=""540"" height = ""360"">",null,,,,,,,,
null,,html-keyboard-response,30,82921,0.0-30.0,3JV9LGBJWU0TSCKFE2VW0L87YXCOG2,A1JVO7FLPATHUB,30OITAWPBQP2Z1DQ5HPUZCTXABIH90,,,null,,,,,,,,
761.60000000149,,image-keyboard-response,31,83684,0.0-31.0,3JV9LGBJWU0TSCKFE2VW0L87YXCOG2,A1JVO7FLPATHUB,30OITAWPBQP2Z1DQ5HPUZCTXABIH90,,img/set1/S1.jpg,72,1,structured_normal,83,"structured_normal,random,structured_incentive","1,2,2,3",FALSE,,
null,,html-keyboard-response,32,84035,0.0-32.0,3JV9LGBJWU0TSCKFE2VW0L87YXCOG2,A1JVO7FLPATHUB,30OITAWPBQP2Z1DQ5HPUZCTXABIH90,,"<img src=""img/set1/S1.jpg"" width=""540"" height = ""360"">",null,,,,,,,,
null,,html-keyboard-response,33,84236,0.0-33.0,3JV9LGBJWU0TSCKFE2VW0L87YXCOG2,A1JVO7FLPATHUB,30OITAWPBQP2Z1DQ5HPUZCTXABIH90,,,null,,,,,,,,
918.89999999851,,image-keyboard-response,34,85155,0.0-34.0,3JV9LGBJWU0TSCKFE2VW0L87YXCOG2,A1JVO7FLPATHUB,30OITAWPBQP2Z1DQ5HPUZCTXABIH90,,img/set1/S2.jpg,83,2,structured_normal,68,"structured_normal,random,structured_incentive","1,2,2,3",FALSE,,
null,,html-keyboard-response,35,85507,0.0-35.0,3JV9LGBJWU0TSCKFE2VW0L87YXCOG2,A1JVO7FLPATHUB,30OITAWPBQP2Z1DQ5HPUZCTXABIH90,,"<img src=""img/set1/S2.jpg"" width=""540"" height = ""360"">",null,,,,,,,,
null,,html-keyboard-response,36,85708,0.0-36.0,3JV9LGBJWU0TSCKFE2VW0L87YXCOG2,A1JVO7FLPATHUB,30OITAWPBQP2Z1DQ5HPUZCTXABIH90,,,null,,,,,,,,
719,,image-keyboard-response,37,86428,0.0-37.0,3JV9LGBJWU0TSCKFE2VW0L87YXCOG2,A1JVO7FLPATHUB,30OITAWPBQP2Z1DQ5HPUZCTXABIH90,,img/set1/S1.jpg,72,1,structured_normal,83,"structured_normal,random,structured_incentive","1,2,2,3",FALSE,,
null,,html-keyboard-response,38,86779,0.0-38.0,3JV9LGBJWU0TSCKFE2VW0L87YXCOG2,A1JVO7FLPATHUB,30OITAWPBQP2Z1DQ5HPUZCTXABIH90,,"<img src=""img/set1/S1.jpg"" width=""540"" height = ""360"">",null,,,,,,,,
null,,html-keyboard-response,39,86981,0.0-39.0,3JV9LGBJWU0TSCKFE2VW0L87YXCOG2,A1JVO7FLPATHUB,30OITAWPBQP2Z1DQ5HPUZCTXABIH90,,,null,,,,,,,,
412.79999999702,,image-keyboard-response,40,87394,0.0-40.0,3JV9LGBJWU0TSCKFE2VW0L87YXCOG2,A1JVO7FLPATHUB,30OITAWPBQP2Z1DQ5HPUZCTXABIH90,,img/set1/S2.jpg,83,2,structured_normal,68,"structured_normal,random,structured_incentive","1,2,2,3",FALSE,,
null,,html-keyboard-response,41,87746,0.0-41.0,3JV9LGBJWU0TSCKFE2VW0L87YXCOG2,A1JVO7FLPATHUB,30OITAWPBQP2Z1DQ5HPUZCTXABIH90,,"<img src=""img/set1/S2.jpg"" width=""540"" height = ""360"">",null,,,,,,,,
null,,html-keyboard-response,42,87947,0.0-42.0,3JV9LGBJWU0TSCKFE2VW0L87YXCOG2,A1JVO7FLPATHUB,30OITAWPBQP2Z1DQ5HPUZCTXABIH90,,,null,,,,,,,,
1468.10000000149,,image-keyboard-response,43,89415,0.0-43.0,3JV9LGBJWU0TSCKFE2VW0L87YXCOG2,A1JVO7FLPATHUB,30OITAWPBQP2Z1DQ5HPUZCTXABIH90,,img/set1/S4.jpg,83,4,structured_normal,74,"structured_normal,random,structured_incentive","1,2,2,3",FALSE,,
null,,html-keyboard-response,44,89767,0.0-44.0,3JV9LGBJWU0TSCKFE2VW0L87YXCOG2,A1JVO7FLPATHUB,30OITAWPBQP2Z1DQ5HPUZCTXABIH90,,"<img src=""img/set1/S4.jpg"" width=""540"" height = ""360"">",null,,,,,,,,
null,,html-keyboard-response,45,89969,0.0-45.0,3JV9LGBJWU0TSCKFE2VW0L87YXCOG2,A1JVO7FLPATHUB,30OITAWPBQP2Z1DQ5HPUZCTXABIH90,,,null,,,,,,,,
429.60000000149,,image-keyboard-response,46,90399,0.0-46.0,3JV9LGBJWU0TSCKFE2VW0L87YXCOG2,A1JVO7FLPATHUB,30OITAWPBQP2Z1DQ5HPUZCTXABIH90,,img/set1/S1.jpg,83,1,structured_normal,83,"structured_normal,random,structured_incentive","1,2,2,3",TRUE,,
null,,html-keyboard-response,47,90752,0.0-47.0,3JV9LGBJWU0TSCKFE2VW0L87YXCOG2,A1JVO7FLPATHUB,30OITAWPBQP2Z1DQ5HPUZCTXABIH90,,"<img src=""img/set1/S1.jpg"" width=""540"" height = ""360"" style=""border:16px solid orange"">",null,,,,,,,,
null,,html-keyboard-response,48,90953,0.0-48.0,3JV9LGBJWU0TSCKFE2VW0L87YXCOG2,A1JVO7FLPATHUB,30OITAWPBQP2Z1DQ5HPUZCTXABIH90,,,null,,,,,,,,
333.89999999851,,image-keyboard-response,49,91288,0.0-49.0,3JV9LGBJWU0TSCKFE2VW0L87YXCOG2,A1JVO7FLPATHUB,30OITAWPBQP2Z1DQ5HPUZCTXABIH90,,img/set1/S2.jpg,83,2,structured_normal,68,"structured_normal,random,structured_incentive","1,2,2,3",FALSE,,
null,,html-keyboard-response,50,91639,0.0-50.0,3JV9LGBJWU0TSCKFE2VW0L87YXCOG2,A1JVO7FLPATHUB,30OITAWPBQP2Z1DQ5HPUZCTXABIH90,,"<img src=""img/set1/S2.jpg"" width=""540"" height = ""360"">",null,,,,,,,,
null,,html-keyboard-response,51,91840,0.0-51.0,3JV9LGBJWU0TSCKFE2VW0L87YXCOG2,A1JVO7FLPATHUB,30OITAWPBQP2Z1DQ5HPUZCTXABIH90,,,null,,,,,,,,
567,,image-keyboard-response,52,92408,0.0-52.0,3JV9LGBJWU0TSCKFE2VW0L87YXCOG2,A1JVO7FLPATHUB,30OITAWPBQP2Z1DQ5HPUZCTXABIH90,,img/set1/S1.jpg,72,1,structured_normal,83,"structured_normal,random,structured_incentive","1,2,2,3",FALSE,,
null,,html-keyboard-response,53,92761,0.0-53.0,3JV9LGBJWU0TSCKFE2VW0L87YXCOG2,A1JVO7FLPATHUB,30OITAWPBQP2Z1DQ5HPUZCTXABIH90,,"<img src=""img/set1/S1.jpg"" width=""540"" height = ""360"">",null,,,,,,,,
null,,html-keyboard-response,54,92962,0.0-54.0,3JV9LGBJWU0TSCKFE2VW0L87YXCOG2,A1JVO7FLPATHUB,30OITAWPBQP2Z1DQ5HPUZCTXABIH90,,,null,,,,,,,,
308.30000000447,,image-keyboard-response,55,93272,0.0-55.0,3JV9LGBJWU0TSCKFE2VW0L87YXCOG2,A1JVO7FLPATHUB,30OITAWPBQP2Z1DQ5HPUZCTXABIH90,,img/set1/S2.jpg,74,2,structured_normal,68,"structured_normal,random,structured_incentive","1,2,2,3",FALSE,,
null,,html-keyboard-response,56,93624,0.0-56.0,3JV9LGBJWU0TSCKFE2VW0L87YXCOG2,A1JVO7FLPATHUB,30OITAWPBQP2Z1DQ5HPUZCTXABIH90,,"<img src=""img/set1/S2.jpg"" width=""540"" height = ""360"">",null,,,,,,,,
null,,html-keyboard-response,57,93825,0.0-57.0,3JV9LGBJWU0TSCKFE2VW0L87YXCOG2,A1JVO7FLPATHUB,30OITAWPBQP2Z1DQ5HPUZCTXABIH90,,,null,,,,,,,,
288,,image-keyboard-response,58,94114,0.0-58.0,3JV9LGBJWU0TSCKFE2VW0L87YXCOG2,A1JVO7FLPATHUB,30OITAWPBQP2Z1DQ5HPUZCTXABIH90,,img/set1/S2.jpg,72,2,structured_normal,68,"structured_normal,random,structured_incentive","1,2,2,3",FALSE,,
null,,html-keyboard-response,59,94465,0.0-59.0,3JV9LGBJWU0TSCKFE2VW0L87YXCOG2,A1JVO7FLPATHUB,30OITAWPBQP2Z1DQ5HPUZCTXABIH90,,"<img src=""img/set1/S2.jpg"" width=""540"" height = ""360"">",null,,,,,,,,
null,,html-keyboard-response,60,94666,0.0-60.0,3JV9LGBJWU0TSCKFE2VW0L87YXCOG2,A1JVO7FLPATHUB,30OITAWPBQP2Z1DQ5HPUZCTXABIH90,,,null,,,,,,,,
336.10000000149,,image-keyboard-response,61,95003,0.0-61.0,3JV9LGBJWU0TSCKFE2VW0L87YXCOG2,A1JVO7FLPATHUB,30OITAWPBQP2Z1DQ5HPUZCTXABIH90,,img/set1/S3.jpg,83,3,structured_normal,72,"structured_normal,random,structured_incentive","1,2,2,3",FALSE,,
null,,html-keyboard-response,62,95354,0.0-62.0,3JV9LGBJWU0TSCKFE2VW0L87YXCOG2,A1JVO7FLPATHUB,30OITAWPBQP2Z1DQ5HPUZCTXABIH90,,"<img src=""img/set1/S3.jpg"" width=""540"" height = ""360"">",null,,,,,,,,
null,,html-keyboard-response,63,95555,0.0-63.0,3JV9LGBJWU0TSCKFE2VW0L87YXCOG2,A1JVO7FLPATHUB,30OITAWPBQP2Z1DQ5HPUZCTXABIH90,,,null,,,,,,,,
313,,image-keyboard-response,64,95869,0.0-64.0,3JV9LGBJWU0TSCKFE2VW0L87YXCOG2,A1JVO7FLPATHUB,30OITAWPBQP2Z1DQ5HPUZCTXABIH90,,img/set1/S3.jpg,68,3,structured_normal,72,"structured_normal,random,structured_incentive","1,2,2,3",FALSE,,
null,,html-keyboard-response,65,96220,0.0-65.0,3JV9LGBJWU0TSCKFE2VW0L87YXCOG2,A1JVO7FLPATHUB,30OITAWPBQP2Z1DQ5HPUZCTXABIH90,,"<img src=""img/set1/S3.jpg"" width=""540"" height = ""360"">",null,,,,,,,,
null,,html-keyboard-response,66,96422,0.0-66.0,3JV9LGBJWU0TSCKFE2VW0L87YXCOG2,A1JVO7FLPATHUB,30OITAWPBQP2Z1DQ5HPUZCTXABIH90,,,null,,,,,,,,
212.10000000149,,image-keyboard-response,67,96635,0.0-67.0,3JV9LGBJWU0TSCKFE2VW0L87YXCOG2,A1JVO7FLPATHUB,30OITAWPBQP2Z1DQ5HPUZCTXABIH90,,img/set1/S4.jpg,72,4,structured_normal,74,"structured_normal,random,structured_incentive","1,2,2,3",FALSE,,
null,,html-keyboard-response,68,96987,0.0-68.0,3JV9LGBJWU0TSCKFE2VW0L87YXCOG2,A1JVO7FLPATHUB,30OITAWPBQP2Z1DQ5HPUZCTXABIH90,,"<img src=""img/set1/S4.jpg"" width=""540"" height = ""360"">",null,,,,,,,,
null,,html-keyboard-response,69,97188,0.0-69.0,3JV9LGBJWU0TSCKFE2VW0L87YXCOG2,A1JVO7FLPATHUB,30OITAWPBQP2Z1DQ5HPUZCTXABIH90,,,null,,,,,,,,
261.59999999404,,image-keyboard-response,70,97451,0.0-70.0,3JV9LGBJWU0TSCKFE2VW0L87YXCOG2,A1JVO7FLPATHUB,30OITAWPBQP2Z1DQ5HPUZCTXABIH90,,img/set1/S4.jpg,74,4,structured_normal,74,"structured_normal,random,structured_incentive","1,2,2,3",TRUE,,
null,,html-keyboard-response,71,97802,0.0-71.0,3JV9LGBJWU0TSCKFE2VW0L87YXCOG2,A1JVO7FLPATHUB,30OITAWPBQP2Z1DQ5HPUZCTXABIH90,,"<img src=""img/set1/S4.jpg"" width=""540"" height = ""360"" style=""border:16px solid orange"">",null,,,,,,,,
null,,html-keyboard-response,72,98011,0.0-72.0,3JV9LGBJWU0TSCKFE2VW0L87YXCOG2,A1JVO7FLPATHUB,30OITAWPBQP2Z1DQ5HPUZCTXABIH90,,,null,,,,,,,,
511.39999999851,,image-keyboard-response,73,98523,0.0-73.0,3JV9LGBJWU0TSCKFE2VW0L87YXCOG2,A1JVO7FLPATHUB,30OITAWPBQP2Z1DQ5HPUZCTXABIH90,,img/set1/S1.jpg,72,1,structured_normal,83,"structured_normal,random,structured_incentive","1,2,2,3",FALSE,,
null,,html-keyboard-response,74,98876,0.0-74.0,3JV9LGBJWU0TSCKFE2VW0L87YXCOG2,A1JVO7FLPATHUB,30OITAWPBQP2Z1DQ5HPUZCTXABIH90,,"<img src=""img/set1/S1.jpg"" width=""540"" height = ""360"">",null,,,,,,,,
null,,html-keyboard-response,75,99077,0.0-75.0,3JV9LGBJWU0TSCKFE2VW0L87YXCOG2,A1JVO7FLPATHUB,30OITAWPBQP2Z1DQ5HPUZCTXABIH90,,,null,,,,,,,,
529.69999999553,,image-keyboard-response,76,99607,0.0-76.0,3JV9LGBJWU0TSCKFE2VW0L87YXCOG2,A1JVO7FLPATHUB,30OITAWPBQP2Z1DQ5HPUZCTXABIH90,,img/set1/S2.jpg,83,2,structured_normal,68,"structured_normal,random,structured_incentive","1,2,2,3",FALSE,,
null,,html-keyboard-response,77,99959,0.0-77.0,3JV9LGBJWU0TSCKFE2VW0L87YXCOG2,A1JVO7FLPATHUB,30OITAWPBQP2Z1DQ5HPUZCTXABIH90,,"<img src=""img/set1/S2.jpg"" width=""540"" height = ""360"">",null,,,,,,,,
null,,html-keyboard-response,78,100160,0.0-78.0,3JV9LGBJWU0TSCKFE2VW0L87YXCOG2,A1JVO7FLPATHUB,30OITAWPBQP2Z1DQ5HPUZCTXABIH90,,,null,,,,,,,,
602,,image-keyboard-response,79,100763,0.0-79.0,3JV9LGBJWU0TSCKFE2VW0L87YXCOG2,A1JVO7FLPATHUB,30OITAWPBQP2Z1DQ5HPUZCTXABIH90,,img/set1/S3.jpg,68,3,structured_normal,72,"structured_normal,random,structured_incentive","1,2,2,3",FALSE,,
null,,html-keyboard-response,80,101115,0.0-80.0,3JV9LGBJWU0TSCKFE2VW0L87YXCOG2,A1JVO7FLPATHUB,30OITAWPBQP2Z1DQ5HPUZCTXABIH90,,"<img src=""img/set1/S3.jpg"" width=""540"" height = ""360"">",null,,,,,,,,
null,,html-keyboard-response,81,101316,0.0-81.0,3JV9LGBJWU0TSCKFE2VW0L87YXCOG2,A1JVO7FLPATHUB,30OITAWPBQP2Z1DQ5HPUZCTXABIH90,,,null,,,,,,,,
664.5,,image-keyboard-response,82,101981,0.0-82.0,3JV9LGBJWU0TSCKFE2VW0L87YXCOG2,A1JVO7FLPATHUB,30OITAWPBQP2Z1DQ5HPUZCTXABIH90,,img/set1/S1.jpg,68,1,structured_normal,83,"structured_normal,random,structured_incentive","1,2,2,3",FALSE,,
null,,html-keyboard-response,83,102333,0.0-83.0,3JV9LGBJWU0TSCKFE2VW0L87YXCOG2,A1JVO7FLPATHUB,30OITAWPBQP2Z1DQ5HPUZCTXABIH90,,"<img src=""img/set1/S1.jpg"" width=""540"" height = ""360"">",null,,,,,,,,
null,,html-keyboard-response,84,102534,0.0-84.0,3JV9LGBJWU0TSCKFE2VW0L87YXCOG2,A1JVO7FLPATHUB,30OITAWPBQP2Z1DQ5HPUZCTXABIH90,,,null,,,,,,,,
502.39999999851,,image-keyboard-response,85,103037,0.0-85.0,3JV9LGBJWU0TSCKFE2VW0L87YXCOG2,A1JVO7FLPATHUB,30OITAWPBQP2Z1DQ5HPUZCTXABIH90,,img/set1/S3.jpg,72,3,structured_normal,72,"structured_normal,random,structured_incentive","1,2,2,3",TRUE,,
null,,html-keyboard-response,86,103389,0.0-86.0,3JV9LGBJWU0TSCKFE2VW0L87YXCOG2,A1JVO7FLPATHUB,30OITAWPBQP2Z1DQ5HPUZCTXABIH90,,"<img src=""img/set1/S3.jpg"" width=""540"" height = ""360"" style=""border:16px solid orange"">",null,,,,,,,,
null,,html-keyboard-response,87,103590,0.0-87.0,3JV9LGBJWU0TSCKFE2VW0L87YXCOG2,A1JVO7FLPATHUB,30OITAWPBQP2Z1DQ5HPUZCTXABIH90,,,null,,,,,,,,
718,,image-keyboard-response,88,104309,0.0-88.0,3JV9LGBJWU0TSCKFE2VW0L87YXCOG2,A1JVO7FLPATHUB,30OITAWPBQP2Z1DQ5HPUZCTXABIH90,,img/set1/S2.jpg,72,2,structured_normal,68,"structured_normal,random,structured_incentive","1,2,2,3",FALSE,,
null,,html-keyboard-response,89,104662,0.0-89.0,3JV9LGBJWU0TSCKFE2VW0L87YXCOG2,A1JVO7FLPATHUB,30OITAWPBQP2Z1DQ5HPUZCTXABIH90,,"<img src=""img/set1/S2.jpg"" width=""540"" height = ""360"">",null,,,,,,,,
null,,html-keyboard-response,90,104864,0.0-90.0,3JV9LGBJWU0TSCKFE2VW0L87YXCOG2,A1JVO7FLPATHUB,30OITAWPBQP2Z1DQ5HPUZCTXABIH90,,,null,,,,,,,,
709.89999999851,,image-keyboard-response,91,105574,0.0-91.0,3JV9LGBJWU0TSCKFE2VW0L87YXCOG2,A1JVO7FLPATHUB,30OITAWPBQP2Z1DQ5HPUZCTXABIH90,,img/set1/S4.jpg,72,4,structured_normal,74,"structured_normal,random,structured_incentive","1,2,2,3",FALSE,,
null,,html-keyboard-response,92,105926,0.0-92.0,3JV9LGBJWU0TSCKFE2VW0L87YXCOG2,A1JVO7FLPATHUB,30OITAWPBQP2Z1DQ5HPUZCTXABIH90,,"<img src=""img/set1/S4.jpg"" width=""540"" height = ""360"">",null,,,,,,,,
null,,html-keyboard-response,93,106127,0.0-93.0,3JV9LGBJWU0TSCKFE2VW0L87YXCOG2,A1JVO7FLPATHUB,30OITAWPBQP2Z1DQ5HPUZCTXABIH90,,,null,,,,,,,,
928.29999999702,,image-keyboard-response,94,107057,0.0-94.0,3JV9LGBJWU0TSCKFE2VW0L87YXCOG2,A1JVO7FLPATHUB,30OITAWPBQP2Z1DQ5HPUZCTXABIH90,,img/set1/S1.jpg,74,1,structured_normal,83,"structured_normal,random,structured_incentive","1,2,2,3",FALSE,,
null,,html-keyboard-response,95,107408,0.0-95.0,3JV9LGBJWU0TSCKFE2VW0L87YXCOG2,A1JVO7FLPATHUB,30OITAWPBQP2Z1DQ5HPUZCTXABIH90,,"<img src=""img/set1/S1.jpg"" width=""540"" height = ""360"">",null,,,,,,,,
null,,html-keyboard-response,96,107609,0.0-96.0,3JV9LGBJWU0TSCKFE2VW0L87YXCOG2,A1JVO7FLPATHUB,30OITAWPBQP2Z1DQ5HPUZCTXABIH90,,,null,,,,,,,,
893.39999999851,,image-keyboard-response,97,108503,0.0-97.0,3JV9LGBJWU0TSCKFE2VW0L87YXCOG2,A1JVO7FLPATHUB,30OITAWPBQP2Z1DQ5HPUZCTXABIH90,,img/set1/S2.jpg,72,2,structured_normal,68,"structured_normal,random,structured_incentive","1,2,2,3",FALSE,,
null,,html-keyboard-response,98,108855,0.0-98.0,3JV9LGBJWU0TSCKFE2VW0L87YXCOG2,A1JVO7FLPATHUB,30OITAWPBQP2Z1DQ5HPUZCTXABIH90,,"<img src=""img/set1/S2.jpg"" width=""540"" height = ""360"">",null,,,,,,,,
null,,html-keyboard-response,99,109056,0.0-99.0,3JV9LGBJWU0TSCKFE2VW0L87YXCOG2,A1JVO7FLPATHUB,30OITAWPBQP2Z1DQ5HPUZCTXABIH90,,,null,,,,,,,,
1134.20000000298,,image-keyboard-response,100,110191,0.0-100.0,3JV9LGBJWU0TSCKFE2VW0L87YXCOG2,A1JVO7FLPATHUB,30OITAWPBQP2Z1DQ5HPUZCTXABIH90,,img/set1/S4.jpg,72,4,structured_normal,74,"structured_normal,random,structured_incentive","1,2,2,3",FALSE,,
null,,html-keyboard-response,101,110543,0.0-101.0,3JV9LGBJWU0TSCKFE2VW0L87YXCOG2,A1JVO7FLPATHUB,30OITAWPBQP2Z1DQ5HPUZCTXABIH90,,"<img src=""img/set1/S4.jpg"" width=""540"" height = ""360"">",null,,,,,,,,
null,,html-keyboard-response,102,110745,0.0-102.0,3JV9LGBJWU0TSCKFE2VW0L87YXCOG2,A1JVO7FLPATHUB,30OITAWPBQP2Z1DQ5HPUZCTXABIH90,,,null,,,,,,,,
381.89999999851,,image-keyboard-response,103,111127,0.0-103.0,3JV9LGBJWU0TSCKFE2VW0L87YXCOG2,A1JVO7FLPATHUB,30OITAWPBQP2Z1DQ5HPUZCTXABIH90,,img/set1/S4.jpg,83,4,structured_normal,74,"structured_normal,random,structured_incentive","1,2,2,3",FALSE,,
null,,html-keyboard-response,104,111479,0.0-104.0,3JV9LGBJWU0TSCKFE2VW0L87YXCOG2,A1JVO7FLPATHUB,30OITAWPBQP2Z1DQ5HPUZCTXABIH90,,"<img src=""img/set1/S4.jpg"" width=""540"" height = ""360"">",null,,,,,,,,
null,,html-keyboard-response,105,111681,0.0-105.0,3JV9LGBJWU0TSCKFE2VW0L87YXCOG2,A1JVO7FLPATHUB,30OITAWPBQP2Z1DQ5HPUZCTXABIH90,,,null,,,,,,,,
463,,image-keyboard-response,106,112145,0.0-106.0,3JV9LGBJWU0TSCKFE2VW0L87YXCOG2,A1JVO7FLPATHUB,30OITAWPBQP2Z1DQ5HPUZCTXABIH90,,img/set1/S1.jpg,68,1,structured_normal,83,"structured_normal,random,structured_incentive","1,2,2,3",FALSE,,
null,,html-keyboard-response,107,112496,0.0-107.0,3JV9LGBJWU0TSCKFE2VW0L87YXCOG2,A1JVO7FLPATHUB,30OITAWPBQP2Z1DQ5HPUZCTXABIH90,,"<img src=""img/set1/S1.jpg"" width=""540"" height = ""360"">",null,,,,,,,,
null,,html-keyboard-response,108,112697,0.0-108.0,3JV9LGBJWU0TSCKFE2VW0L87YXCOG2,A1JVO7FLPATHUB,30OITAWPBQP2Z1DQ5HPUZCTXABIH90,,,null,,,,,,,,
801.19999999553,,image-keyboard-response,109,113499,0.0-109.0,3JV9LGBJWU0TSCKFE2VW0L87YXCOG2,A1JVO7FLPATHUB,30OITAWPBQP2Z1DQ5HPUZCTXABIH90,,img/set1/S2.jpg,72,2,structured_normal,68,"structured_normal,random,structured_incentive","1,2,2,3",FALSE,,
null,,html-keyboard-response,110,113850,0.0-110.0,3JV9LGBJWU0TSCKFE2VW0L87YXCOG2,A1JVO7FLPATHUB,30OITAWPBQP2Z1DQ5HPUZCTXABIH90,,"<img src=""img/set1/S2.jpg"" width=""540"" height = ""360"">",null,,,,,,,,
null,,html-keyboard-response,111,114051,0.0-111.0,3JV9LGBJWU0TSCKFE2VW0L87YXCOG2,A1JVO7FLPATHUB,30OITAWPBQP2Z1DQ5HPUZCTXABIH90,,,null,,,,,,,,
1095,,image-keyboard-response,112,115147,0.0-112.0,3JV9LGBJWU0TSCKFE2VW0L87YXCOG2,A1JVO7FLPATHUB,30OITAWPBQP2Z1DQ5HPUZCTXABIH90,,img/set1/S3.jpg,72,3,structured_normal,72,"structured_normal,random,structured_incentive","1,2,2,3",TRUE,,
null,,html-keyboard-response,113,115499,0.0-113.0,3JV9LGBJWU0TSCKFE2VW0L87YXCOG2,A1JVO7FLPATHUB,30OITAWPBQP2Z1DQ5HPUZCTXABIH90,,"<img src=""img/set1/S3.jpg"" width=""540"" height = ""360"" style=""border:16px solid orange"">",null,,,,,,,,
null,,html-keyboard-response,114,115700,0.0-114.0,3JV9LGBJWU0TSCKFE2VW0L87YXCOG2,A1JVO7FLPATHUB,30OITAWPBQP2Z1DQ5HPUZCTXABIH90,,,null,,,,,,,,
688.5,,image-keyboard-response,115,116389,0.0-115.0,3JV9LGBJWU0TSCKFE2VW0L87YXCOG2,A1JVO7FLPATHUB,30OITAWPBQP2Z1DQ5HPUZCTXABIH90,,img/set1/S4.jpg,74,4,structured_normal,74,"structured_normal,random,structured_incentive","1,2,2,3",TRUE,,
null,,html-keyboard-response,116,116740,0.0-116.0,3JV9LGBJWU0TSCKFE2VW0L87YXCOG2,A1JVO7FLPATHUB,30OITAWPBQP2Z1DQ5HPUZCTXABIH90,,"<img src=""img/set1/S4.jpg"" width=""540"" height = ""360"" style=""border:16px solid orange"">",null,,,,,,,,
null,,html-keyboard-response,117,116941,0.0-117.0,3JV9LGBJWU0TSCKFE2VW0L87YXCOG2,A1JVO7FLPATHUB,30OITAWPBQP2Z1DQ5HPUZCTXABIH90,,,null,,,,,,,,
799.89999999851,,image-keyboard-response,118,117742,0.0-118.0,3JV9LGBJWU0TSCKFE2VW0L87YXCOG2,A1JVO7FLPATHUB,30OITAWPBQP2Z1DQ5HPUZCTXABIH90,,img/set1/S3.jpg,72,3,structured_normal,72,"structured_normal,random,structured_incentive","1,2,2,3",TRUE,,
null,,html-keyboard-response,119,118093,0.0-119.0,3JV9LGBJWU0TSCKFE2VW0L87YXCOG2,A1JVO7FLPATHUB,30OITAWPBQP2Z1DQ5HPUZCTXABIH90,,"<img src=""img/set1/S3.jpg"" width=""540"" height = ""360"" style=""border:16px solid orange"">",null,,,,,,,,
null,,html-keyboard-response,120,118294,0.0-120.0,3JV9LGBJWU0TSCKFE2VW0L87YXCOG2,A1JVO7FLPATHUB,30OITAWPBQP2Z1DQ5HPUZCTXABIH90,,,null,,,,,,,,
393.20000000298,,image-keyboard-response,121,118688,0.0-121.0,3JV9LGBJWU0TSCKFE2VW0L87YXCOG2,A1JVO7FLPATHUB,30OITAWPBQP2Z1DQ5HPUZCTXABIH90,,img/set1/S3.jpg,72,3,structured_normal,72,"structured_normal,random,structured_incentive","1,2,2,3",TRUE,,
null,,html-keyboard-response,122,119040,0.0-122.0,3JV9LGBJWU0TSCKFE2VW0L87YXCOG2,A1JVO7FLPATHUB,30OITAWPBQP2Z1DQ5HPUZCTXABIH90,,"<img src=""img/set1/S3.jpg"" width=""540"" height = ""360"" style=""border:16px solid orange"">",null,,,,,,,,
null,,html-keyboard-response,123,119241,0.0-123.0,3JV9LGBJWU0TSCKFE2VW0L87YXCOG2,A1JVO7FLPATHUB,30OITAWPBQP2Z1DQ5HPUZCTXABIH90,,,null,,,,,,,,
452.29999999702,,image-keyboard-response,124,119695,0.0-124.0,3JV9LGBJWU0TSCKFE2VW0L87YXCOG2,A1JVO7FLPATHUB,30OITAWPBQP2Z1DQ5HPUZCTXABIH90,,img/set1/S2.jpg,74,2,structured_normal,68,"structured_normal,random,structured_incentive","1,2,2,3",FALSE,,
null,,html-keyboard-response,125,120046,0.0-125.0,3JV9LGBJWU0TSCKFE2VW0L87YXCOG2,A1JVO7FLPATHUB,30OITAWPBQP2Z1DQ5HPUZCTXABIH90,,"<img src=""img/set1/S2.jpg"" width=""540"" height = ""360"">",null,,,,,,,,
null,,html-keyboard-response,126,120247,0.0-126.0,3JV9LGBJWU0TSCKFE2VW0L87YXCOG2,A1JVO7FLPATHUB,30OITAWPBQP2Z1DQ5HPUZCTXABIH90,,,null,,,,,,,,
509.10000000149,,image-keyboard-response,127,120756,0.0-127.0,3JV9LGBJWU0TSCKFE2VW0L87YXCOG2,A1JVO7FLPATHUB,30OITAWPBQP2Z1DQ5HPUZCTXABIH90,,img/set1/S3.jpg,72,3,structured_normal,72,"structured_normal,random,structured_incentive","1,2,2,3",TRUE,,
null,,html-keyboard-response,128,121108,0.0-128.0,3JV9LGBJWU0TSCKFE2VW0L87YXCOG2,A1JVO7FLPATHUB,30OITAWPBQP2Z1DQ5HPUZCTXABIH90,,"<img src=""img/set1/S3.jpg"" width=""540"" height = ""360"" style=""border:16px solid orange"">",null,,,,,,,,
null,,html-keyboard-response,129,121309,0.0-129.0,3JV9LGBJWU0TSCKFE2VW0L87YXCOG2,A1JVO7FLPATHUB,30OITAWPBQP2Z1DQ5HPUZCTXABIH90,,,null,,,,,,,,
358.60000000149,,image-keyboard-response,130,121669,0.0-130.0,3JV9LGBJWU0TSCKFE2VW0L87YXCOG2,A1JVO7FLPATHUB,30OITAWPBQP2Z1DQ5HPUZCTXABIH90,,img/set1/S3.jpg,72,3,structured_normal,72,"structured_normal,random,structured_incentive","1,2,2,3",TRUE,,
null,,html-keyboard-response,131,122020,0.0-131.0,3JV9LGBJWU0TSCKFE2VW0L87YXCOG2,A1JVO7FLPATHUB,30OITAWPBQP2Z1DQ5HPUZCTXABIH90,,"<img src=""img/set1/S3.jpg"" width=""540"" height = ""360"" style=""border:16px solid orange"">",null,,,,,,,,
null,,html-keyboard-response,132,122222,0.0-132.0,3JV9LGBJWU0TSCKFE2VW0L87YXCOG2,A1JVO7FLPATHUB,30OITAWPBQP2Z1DQ5HPUZCTXABIH90,,,null,,,,,,,,
622.60000000149,,image-keyboard-response,133,122846,0.0-133.0,3JV9LGBJWU0TSCKFE2VW0L87YXCOG2,A1JVO7FLPATHUB,30OITAWPBQP2Z1DQ5HPUZCTXABIH90,,img/set1/S1.jpg,83,1,structured_normal,83,"structured_normal,random,structured_incentive","1,2,2,3",TRUE,,
null,,html-keyboard-response,134,123197,0.0-134.0,3JV9LGBJWU0TSCKFE2VW0L87YXCOG2,A1JVO7FLPATHUB,30OITAWPBQP2Z1DQ5HPUZCTXABIH90,,"<img src=""img/set1/S1.jpg"" width=""540"" height = ""360"" style=""border:16px solid orange"">",null,,,,,,,,
null,,html-keyboard-response,135,123399,0.0-135.0,3JV9LGBJWU0TSCKFE2VW0L87YXCOG2,A1JVO7FLPATHUB,30OITAWPBQP2Z1DQ5HPUZCTXABIH90,,,null,,,,,,,,
952,,image-keyboard-response,136,124352,0.0-136.0,3JV9LGBJWU0TSCKFE2VW0L87YXCOG2,A1JVO7FLPATHUB,30OITAWPBQP2Z1DQ5HPUZCTXABIH90,,img/set1/S2.jpg,68,2,structured_normal,68,"structured_normal,random,structured_incentive","1,2,2,3",TRUE,,
null,,html-keyboard-response,137,124704,0.0-137.0,3JV9LGBJWU0TSCKFE2VW0L87YXCOG2,A1JVO7FLPATHUB,30OITAWPBQP2Z1DQ5HPUZCTXABIH90,,"<img src=""img/set1/S2.jpg"" width=""540"" height = ""360"" style=""border:16px solid orange"">",null,,,,,,,,
null,,html-keyboard-response,138,124911,0.0-138.0,3JV9LGBJWU0TSCKFE2VW0L87YXCOG2,A1JVO7FLPATHUB,30OITAWPBQP2Z1DQ5HPUZCTXABIH90,,,null,,,,,,,,
552.20000000298,,image-keyboard-response,139,125464,0.0-139.0,3JV9LGBJWU0TSCKFE2VW0L87YXCOG2,A1JVO7FLPATHUB,30OITAWPBQP2Z1DQ5HPUZCTXABIH90,,img/set1/S3.jpg,72,3,structured_normal,72,"structured_normal,random,structured_incentive","1,2,2,3",TRUE,,
null,,html-keyboard-response,140,125816,0.0-140.0,3JV9LGBJWU0TSCKFE2VW0L87YXCOG2,A1JVO7FLPATHUB,30OITAWPBQP2Z1DQ5HPUZCTXABIH90,,"<img src=""img/set1/S3.jpg"" width=""540"" height = ""360"" style=""border:16px solid orange"">",null,,,,,,,,
null,,html-keyboard-response,141,126017,0.0-141.0,3JV9LGBJWU0TSCKFE2VW0L87YXCOG2,A1JVO7FLPATHUB,30OITAWPBQP2Z1DQ5HPUZCTXABIH90,,,null,,,,,,,,
596.10000000149,,image-keyboard-response,142,126614,0.0-142.0,3JV9LGBJWU0TSCKFE2VW0L87YXCOG2,A1JVO7FLPATHUB,30OITAWPBQP2Z1DQ5HPUZCTXABIH90,,img/set1/S1.jpg,68,1,structured_normal,83,"structured_normal,random,structured_incentive","1,2,2,3",FALSE,,
null,,html-keyboard-response,143,126967,0.0-143.0,3JV9LGBJWU0TSCKFE2VW0L87YXCOG2,A1JVO7FLPATHUB,30OITAWPBQP2Z1DQ5HPUZCTXABIH90,,"<img src=""img/set1/S1.jpg"" width=""540"" height = ""360"">",null,,,,,,,,
null,,html-keyboard-response,144,127167,0.0-144.0,3JV9LGBJWU0TSCKFE2VW0L87YXCOG2,A1JVO7FLPATHUB,30OITAWPBQP2Z1DQ5HPUZCTXABIH90,,,null,,,,,,,,
690.09999999404,,image-keyboard-response,145,127858,0.0-145.0,3JV9LGBJWU0TSCKFE2VW0L87YXCOG2,A1JVO7FLPATHUB,30OITAWPBQP2Z1DQ5HPUZCTXABIH90,,img/set1/S2.jpg,68,2,structured_normal,68,"structured_normal,random,structured_incentive","1,2,2,3",TRUE,,
null,,html-keyboard-response,146,128210,0.0-146.0,3JV9LGBJWU0TSCKFE2VW0L87YXCOG2,A1JVO7FLPATHUB,30OITAWPBQP2Z1DQ5HPUZCTXABIH90,,"<img src=""img/set1/S2.jpg"" width=""540"" height = ""360"" style=""border:16px solid orange"">",null,,,,,,,,
null,,html-keyboard-response,147,128411,0.0-147.0,3JV9LGBJWU0TSCKFE2VW0L87YXCOG2,A1JVO7FLPATHUB,30OITAWPBQP2Z1DQ5HPUZCTXABIH90,,,null,,,,,,,,
529.79999999702,,image-keyboard-response,148,128941,0.0-148.0,3JV9LGBJWU0TSCKFE2VW0L87YXCOG2,A1JVO7FLPATHUB,30OITAWPBQP2Z1DQ5HPUZCTXABIH90,,img/set1/S4.jpg,72,4,structured_normal,74,"structured_normal,random,structured_incentive","1,2,2,3",FALSE,,
null,,html-keyboard-response,149,129293,0.0-149.0,3JV9LGBJWU0TSCKFE2VW0L87YXCOG2,A1JVO7FLPATHUB,30OITAWPBQP2Z1DQ5HPUZCTXABIH90,,"<img src=""img/set1/S4.jpg"" width=""540"" height = ""360"">",null,,,,,,,,
null,,html-keyboard-response,150,129494,0.0-150.0,3JV9LGBJWU0TSCKFE2VW0L87YXCOG2,A1JVO7FLPATHUB,30OITAWPBQP2Z1DQ5HPUZCTXABIH90,,,null,,,,,,,,
556.5,,image-keyboard-response,151,130052,0.0-151.0,3JV9LGBJWU0TSCKFE2VW0L87YXCOG2,A1JVO7FLPATHUB,30OITAWPBQP2Z1DQ5HPUZCTXABIH90,,img/set1/S1.jpg,68,1,structured_normal,83,"structured_normal,random,structured_incentive","1,2,2,3",FALSE,,
null,,html-keyboard-response,152,130417,0.0-152.0,3JV9LGBJWU0TSCKFE2VW0L87YXCOG2,A1JVO7FLPATHUB,30OITAWPBQP2Z1DQ5HPUZCTXABIH90,,"<img src=""img/set1/S1.jpg"" width=""540"" height = ""360"">",null,,,,,,,,
null,,html-keyboard-response,153,130619,0.0-153.0,3JV9LGBJWU0TSCKFE2VW0L87YXCOG2,A1JVO7FLPATHUB,30OITAWPBQP2Z1DQ5HPUZCTXABIH90,,,null,,,,,,,,
676.30000000447,,image-keyboard-response,154,131296,0.0-154.0,3JV9LGBJWU0TSCKFE2VW0L87YXCOG2,A1JVO7FLPATHUB,30OITAWPBQP2Z1DQ5HPUZCTXABIH90,,img/set1/S2.jpg,83,2,structured_normal,68,"structured_normal,random,structured_incentive","1,2,2,3",FALSE,,
null,,html-keyboard-response,155,131648,0.0-155.0,3JV9LGBJWU0TSCKFE2VW0L87YXCOG2,A1JVO7FLPATHUB,30OITAWPBQP2Z1DQ5HPUZCTXABIH90,,"<img src=""img/set1/S2.jpg"" width=""540"" height = ""360"">",null,,,,,,,,
null,,html-keyboard-response,156,131849,0.0-156.0,3JV9LGBJWU0TSCKFE2VW0L87YXCOG2,A1JVO7FLPATHUB,30OITAWPBQP2Z1DQ5HPUZCTXABIH90,,,null,,,,,,,,
1031.89999999851,,image-keyboard-response,157,132882,0.0-157.0,3JV9LGBJWU0TSCKFE2VW0L87YXCOG2,A1JVO7FLPATHUB,30OITAWPBQP2Z1DQ5HPUZCTXABIH90,,img/set1/S4.jpg,72,4,structured_normal,74,"structured_normal,random,structured_incentive","1,2,2,3",FALSE,,
null,,html-keyboard-response,158,133234,0.0-158.0,3JV9LGBJWU0TSCKFE2VW0L87YXCOG2,A1JVO7FLPATHUB,30OITAWPBQP2Z1DQ5HPUZCTXABIH90,,"<img src=""img/set1/S4.jpg"" width=""540"" height = ""360"">",null,,,,,,,,
null,,html-keyboard-response,159,133440,0.0-159.0,3JV9LGBJWU0TSCKFE2VW0L87YXCOG2,A1JVO7FLPATHUB,30OITAWPBQP2Z1DQ5HPUZCTXABIH90,,,null,,,,,,,,
508.10000000149,,image-keyboard-response,160,133949,0.0-160.0,3JV9LGBJWU0TSCKFE2VW0L87YXCOG2,A1JVO7FLPATHUB,30OITAWPBQP2Z1DQ5HPUZCTXABIH90,,img/set1/S1.jpg,68,1,structured_normal,83,"structured_normal,random,structured_incentive","1,2,2,3",FALSE,,
null,,html-keyboard-response,161,134301,0.0-161.0,3JV9LGBJWU0TSCKFE2VW0L87YXCOG2,A1JVO7FLPATHUB,30OITAWPBQP2Z1DQ5HPUZCTXABIH90,,"<img src=""img/set1/S1.jpg"" width=""540"" height = ""360"">",null,,,,,,,,
null,,html-keyboard-response,162,134503,0.0-162.0,3JV9LGBJWU0TSCKFE2VW0L87YXCOG2,A1JVO7FLPATHUB,30OITAWPBQP2Z1DQ5HPUZCTXABIH90,,,null,,,,,,,,
698.09999999404,,image-keyboard-response,163,135201,0.0-163.0,3JV9LGBJWU0TSCKFE2VW0L87YXCOG2,A1JVO7FLPATHUB,30OITAWPBQP2Z1DQ5HPUZCTXABIH90,,img/set1/S3.jpg,72,3,structured_normal,72,"structured_normal,random,structured_incentive","1,2,2,3",TRUE,,
null,,html-keyboard-response,164,135553,0.0-164.0,3JV9LGBJWU0TSCKFE2VW0L87YXCOG2,A1JVO7FLPATHUB,30OITAWPBQP2Z1DQ5HPUZCTXABIH90,,"<img src=""img/set1/S3.jpg"" width=""540"" height = ""360"" style=""border:16px solid orange"">",null,,,,,,,,
null,,html-keyboard-response,165,135755,0.0-165.0,3JV9LGBJWU0TSCKFE2VW0L87YXCOG2,A1JVO7FLPATHUB,30OITAWPBQP2Z1DQ5HPUZCTXABIH90,,,null,,,,,,,,
823.70000000298,,image-keyboard-response,166,136579,0.0-166.0,3JV9LGBJWU0TSCKFE2VW0L87YXCOG2,A1JVO7FLPATHUB,30OITAWPBQP2Z1DQ5HPUZCTXABIH90,,img/set1/S1.jpg,83,1,structured_normal,83,"structured_normal,random,structured_incentive","1,2,2,3",TRUE,,
null,,html-keyboard-response,167,136931,0.0-167.0,3JV9LGBJWU0TSCKFE2VW0L87YXCOG2,A1JVO7FLPATHUB,30OITAWPBQP2Z1DQ5HPUZCTXABIH90,,"<img src=""img/set1/S1.jpg"" width=""540"" height = ""360"" style=""border:16px solid orange"">",null,,,,,,,,
null,,html-keyboard-response,168,137133,0.0-168.0,3JV9LGBJWU0TSCKFE2VW0L87YXCOG2,A1JVO7FLPATHUB,30OITAWPBQP2Z1DQ5HPUZCTXABIH90,,,null,,,,,,,,
664.30000000447,,image-keyboard-response,169,137798,0.0-169.0,3JV9LGBJWU0TSCKFE2VW0L87YXCOG2,A1JVO7FLPATHUB,30OITAWPBQP2Z1DQ5HPUZCTXABIH90,,img/set1/S2.jpg,68,2,structured_normal,68,"structured_normal,random,structured_incentive","1,2,2,3",TRUE,,
null,,html-keyboard-response,170,138148,0.0-170.0,3JV9LGBJWU0TSCKFE2VW0L87YXCOG2,A1JVO7FLPATHUB,30OITAWPBQP2Z1DQ5HPUZCTXABIH90,,"<img src=""img/set1/S2.jpg"" width=""540"" height = ""360"" style=""border:16px solid orange"">",null,,,,,,,,
null,,html-keyboard-response,171,138349,0.0-171.0,3JV9LGBJWU0TSCKFE2VW0L87YXCOG2,A1JVO7FLPATHUB,30OITAWPBQP2Z1DQ5HPUZCTXABIH90,,,null,,,,,,,,
533.39999999851,,image-keyboard-response,172,138884,0.0-172.0,3JV9LGBJWU0TSCKFE2VW0L87YXCOG2,A1JVO7FLPATHUB,30OITAWPBQP2Z1DQ5HPUZCTXABIH90,,img/set1/S1.jpg,83,1,structured_normal,83,"structured_normal,random,structured_incentive","1,2,2,3",TRUE,,
null,,html-keyboard-response,173,139236,0.0-173.0,3JV9LGBJWU0TSCKFE2VW0L87YXCOG2,A1JVO7FLPATHUB,30OITAWPBQP2Z1DQ5HPUZCTXABIH90,,"<img src=""img/set1/S1.jpg"" width=""540"" height = ""360"" style=""border:16px solid orange"">",null,,,,,,,,
null,,html-keyboard-response,174,139437,0.0-174.0,3JV9LGBJWU0TSCKFE2VW0L87YXCOG2,A1JVO7FLPATHUB,30OITAWPBQP2Z1DQ5HPUZCTXABIH90,,,null,,,,,,,,
410.60000000149,,image-keyboard-response,175,139849,0.0-175.0,3JV9LGBJWU0TSCKFE2VW0L87YXCOG2,A1JVO7FLPATHUB,30OITAWPBQP2Z1DQ5HPUZCTXABIH90,,img/set1/S2.jpg,68,2,structured_normal,68,"structured_normal,random,structured_incentive","1,2,2,3",TRUE,,
null,,html-keyboard-response,176,140200,0.0-176.0,3JV9LGBJWU0TSCKFE2VW0L87YXCOG2,A1JVO7FLPATHUB,30OITAWPBQP2Z1DQ5HPUZCTXABIH90,,"<img src=""img/set1/S2.jpg"" width=""540"" height = ""360"" style=""border:16px solid orange"">",null,,,,,,,,
null,,html-keyboard-response,177,140401,0.0-177.0,3JV9LGBJWU0TSCKFE2VW0L87YXCOG2,A1JVO7FLPATHUB,30OITAWPBQP2Z1DQ5HPUZCTXABIH90,,,null,,,,,,,,
851.10000000149,,image-keyboard-response,178,141253,0.0-178.0,3JV9LGBJWU0TSCKFE2VW0L87YXCOG2,A1JVO7FLPATHUB,30OITAWPBQP2Z1DQ5HPUZCTXABIH90,,img/set1/S3.jpg,74,3,structured_normal,72,"structured_normal,random,structured_incentive","1,2,2,3",FALSE,,
null,,html-keyboard-response,179,141605,0.0-179.0,3JV9LGBJWU0TSCKFE2VW0L87YXCOG2,A1JVO7FLPATHUB,30OITAWPBQP2Z1DQ5HPUZCTXABIH90,,"<img src=""img/set1/S3.jpg"" width=""540"" height = ""360"">",null,,,,,,,,
null,,html-keyboard-response,180,141806,0.0-180.0,3JV9LGBJWU0TSCKFE2VW0L87YXCOG2,A1JVO7FLPATHUB,30OITAWPBQP2Z1DQ5HPUZCTXABIH90,,,null,,,,,,,,
697.89999999851,,image-keyboard-response,181,142505,0.0-181.0,3JV9LGBJWU0TSCKFE2VW0L87YXCOG2,A1JVO7FLPATHUB,30OITAWPBQP2Z1DQ5HPUZCTXABIH90,,img/set1/S1.jpg,83,1,structured_normal,83,"structured_normal,random,structured_incentive","1,2,2,3",TRUE,,
null,,html-keyboard-response,182,142857,0.0-182.0,3JV9LGBJWU0TSCKFE2VW0L87YXCOG2,A1JVO7FLPATHUB,30OITAWPBQP2Z1DQ5HPUZCTXABIH90,,"<img src=""img/set1/S1.jpg"" width=""540"" height = ""360"" style=""border:16px solid orange"">",null,,,,,,,,
null,,html-keyboard-response,183,143059,0.0-183.0,3JV9LGBJWU0TSCKFE2VW0L87YXCOG2,A1JVO7FLPATHUB,30OITAWPBQP2Z1DQ5HPUZCTXABIH90,,,null,,,,,,,,
341.80000000447,,image-keyboard-response,184,143401,0.0-184.0,3JV9LGBJWU0TSCKFE2VW0L87YXCOG2,A1JVO7FLPATHUB,30OITAWPBQP2Z1DQ5HPUZCTXABIH90,,img/set1/S2.jpg,68,2,structured_normal,68,"structured_normal,random,structured_incentive","1,2,2,3",TRUE,,
null,,html-keyboard-response,185,143752,0.0-185.0,3JV9LGBJWU0TSCKFE2VW0L87YXCOG2,A1JVO7FLPATHUB,30OITAWPBQP2Z1DQ5HPUZCTXABIH90,,"<img src=""img/set1/S2.jpg"" width=""540"" height = ""360"" style=""border:16px solid orange"">",null,,,,,,,,
null,,html-keyboard-response,186,143968,0.0-186.0,3JV9LGBJWU0TSCKFE2VW0L87YXCOG2,A1JVO7FLPATHUB,30OITAWPBQP2Z1DQ5HPUZCTXABIH90,,,null,,,,,,,,
544.29999999702,,image-keyboard-response,187,144513,0.0-187.0,3JV9LGBJWU0TSCKFE2VW0L87YXCOG2,A1JVO7FLPATHUB,30OITAWPBQP2Z1DQ5HPUZCTXABIH90,,img/set1/S1.jpg,68,1,structured_normal,83,"structured_normal,random,structured_incentive","1,2,2,3",FALSE,,
null,,html-keyboard-response,188,144865,0.0-188.0,3JV9LGBJWU0TSCKFE2VW0L87YXCOG2,A1JVO7FLPATHUB,30OITAWPBQP2Z1DQ5HPUZCTXABIH90,,"<img src=""img/set1/S1.jpg"" width=""540"" height = ""360"">",null,,,,,,,,
null,,html-keyboard-response,189,145066,0.0-189.0,3JV9LGBJWU0TSCKFE2VW0L87YXCOG2,A1JVO7FLPATHUB,30OITAWPBQP2Z1DQ5HPUZCTXABIH90,,,null,,,,,,,,
765.79999999702,,image-keyboard-response,190,145832,0.0-190.0,3JV9LGBJWU0TSCKFE2VW0L87YXCOG2,A1JVO7FLPATHUB,30OITAWPBQP2Z1DQ5HPUZCTXABIH90,,img/set1/S3.jpg,74,3,structured_normal,72,"structured_normal,random,structured_incentive","1,2,2,3",FALSE,,
null,,html-keyboard-response,191,146184,0.0-191.0,3JV9LGBJWU0TSCKFE2VW0L87YXCOG2,A1JVO7FLPATHUB,30OITAWPBQP2Z1DQ5HPUZCTXABIH90,,"<img src=""img/set1/S3.jpg"" width=""540"" height = ""360"">",null,,,,,,,,
null,,html-keyboard-response,192,146385,0.0-192.0,3JV9LGBJWU0TSCKFE2VW0L87YXCOG2,A1JVO7FLPATHUB,30OITAWPBQP2Z1DQ5HPUZCTXABIH90,,,null,,,,,,,,
447.10000000149,,image-keyboard-response,193,146833,0.0-193.0,3JV9LGBJWU0TSCKFE2VW0L87YXCOG2,A1JVO7FLPATHUB,30OITAWPBQP2Z1DQ5HPUZCTXABIH90,,img/set1/S3.jpg,72,3,structured_normal,72,"structured_normal,random,structured_incentive","1,2,2,3",TRUE,,
null,,html-keyboard-response,194,147184,0.0-194.0,3JV9LGBJWU0TSCKFE2VW0L87YXCOG2,A1JVO7FLPATHUB,30OITAWPBQP2Z1DQ5HPUZCTXABIH90,,"<img src=""img/set1/S3.jpg"" width=""540"" height = ""360"" style=""border:16px solid orange"">",null,,,,,,,,
null,,html-keyboard-response,195,147384,0.0-195.0,3JV9LGBJWU0TSCKFE2VW0L87YXCOG2,A1JVO7FLPATHUB,30OITAWPBQP2Z1DQ5HPUZCTXABIH90,,,null,,,,,,,,
953.59999999404,,image-keyboard-response,196,148339,0.0-196.0,3JV9LGBJWU0TSCKFE2VW0L87YXCOG2,A1JVO7FLPATHUB,30OITAWPBQP2Z1DQ5HPUZCTXABIH90,,img/set1/S1.jpg,83,1,structured_normal,83,"structured_normal,random,structured_incentive","1,2,2,3",TRUE,,
null,,html-keyboard-response,197,148690,0.0-197.0,3JV9LGBJWU0TSCKFE2VW0L87YXCOG2,A1JVO7FLPATHUB,30OITAWPBQP2Z1DQ5HPUZCTXABIH90,,"<img src=""img/set1/S1.jpg"" width=""540"" height = ""360"" style=""border:16px solid orange"">",null,,,,,,,,
null,,html-keyboard-response,198,148892,0.0-198.0,3JV9LGBJWU0TSCKFE2VW0L87YXCOG2,A1JVO7FLPATHUB,30OITAWPBQP2Z1DQ5HPUZCTXABIH90,,,null,,,,,,,,
410.10000000149,,image-keyboard-response,199,149303,0.0-199.0,3JV9LGBJWU0TSCKFE2VW0L87YXCOG2,A1JVO7FLPATHUB,30OITAWPBQP2Z1DQ5HPUZCTXABIH90,,img/set1/S2.jpg,68,2,structured_normal,68,"structured_normal,random,structured_incentive","1,2,2,3",TRUE,,
null,,html-keyboard-response,200,149655,0.0-200.0,3JV9LGBJWU0TSCKFE2VW0L87YXCOG2,A1JVO7FLPATHUB,30OITAWPBQP2Z1DQ5HPUZCTXABIH90,,"<img src=""img/set1/S2.jpg"" width=""540"" height = ""360"" style=""border:16px solid orange"">",null,,,,,,,,
null,,html-keyboard-response,201,149856,0.0-201.0,3JV9LGBJWU0TSCKFE2VW0L87YXCOG2,A1JVO7FLPATHUB,30OITAWPBQP2Z1DQ5HPUZCTXABIH90,,,null,,,,,,,,
653.10000000149,,image-keyboard-response,202,150510,0.0-202.0,3JV9LGBJWU0TSCKFE2VW0L87YXCOG2,A1JVO7FLPATHUB,30OITAWPBQP2Z1DQ5HPUZCTXABIH90,,img/set1/S2.jpg,83,2,structured_normal,68,"structured_normal,random,structured_incentive","1,2,2,3",FALSE,,
null,,html-keyboard-response,203,150862,0.0-203.0,3JV9LGBJWU0TSCKFE2VW0L87YXCOG2,A1JVO7FLPATHUB,30OITAWPBQP2Z1DQ5HPUZCTXABIH90,,"<img src=""img/set1/S2.jpg"" width=""540"" height = ""360"">",null,,,,,,,,
null,,html-keyboard-response,204,151074,0.0-204.0,3JV9LGBJWU0TSCKFE2VW0L87YXCOG2,A1JVO7FLPATHUB,30OITAWPBQP2Z1DQ5HPUZCTXABIH90,,,null,,,,,,,,
519.5,,image-keyboard-response,205,151594,0.0-205.0,3JV9LGBJWU0TSCKFE2VW0L87YXCOG2,A1JVO7FLPATHUB,30OITAWPBQP2Z1DQ5HPUZCTXABIH90,,img/set1/S3.jpg,72,3,structured_normal,72,"structured_normal,random,structured_incentive","1,2,2,3",TRUE,,
null,,html-keyboard-response,206,151947,0.0-206.0,3JV9LGBJWU0TSCKFE2VW0L87YXCOG2,A1JVO7FLPATHUB,30OITAWPBQP2Z1DQ5HPUZCTXABIH90,,"<img src=""img/set1/S3.jpg"" width=""540"" height = ""360"" style=""border:16px solid orange"">",null,,,,,,,,
null,,html-keyboard-response,207,152148,0.0-207.0,3JV9LGBJWU0TSCKFE2VW0L87YXCOG2,A1JVO7FLPATHUB,30OITAWPBQP2Z1DQ5HPUZCTXABIH90,,,null,,,,,,,,
380.70000000298,,image-keyboard-response,208,152530,0.0-208.0,3JV9LGBJWU0TSCKFE2VW0L87YXCOG2,A1JVO7FLPATHUB,30OITAWPBQP2Z1DQ5HPUZCTXABIH90,,img/set1/S3.jpg,72,3,structured_normal,72,"structured_normal,random,structured_incentive","1,2,2,3",TRUE,,
null,,html-keyboard-response,209,152882,0.0-209.0,3JV9LGBJWU0TSCKFE2VW0L87YXCOG2,A1JVO7FLPATHUB,30OITAWPBQP2Z1DQ5HPUZCTXABIH90,,"<img src=""img/set1/S3.jpg"" width=""540"" height = ""360"" style=""border:16px solid orange"">",null,,,,,,,,
null,,html-keyboard-response,210,153084,0.0-210.0,3JV9LGBJWU0TSCKFE2VW0L87YXCOG2,A1JVO7FLPATHUB,30OITAWPBQP2Z1DQ5HPUZCTXABIH90,,,null,,,,,,,,
301.29999999702,,image-keyboard-response,211,153386,0.0-211.0,3JV9LGBJWU0TSCKFE2VW0L87YXCOG2,A1JVO7FLPATHUB,30OITAWPBQP2Z1DQ5HPUZCTXABIH90,,img/set1/S3.jpg,72,3,structured_normal,72,"structured_normal,random,structured_incentive","1,2,2,3",TRUE,,
null,,html-keyboard-response,212,153738,0.0-212.0,3JV9LGBJWU0TSCKFE2VW0L87YXCOG2,A1JVO7FLPATHUB,30OITAWPBQP2Z1DQ5HPUZCTXABIH90,,"<img src=""img/set1/S3.jpg"" width=""540"" height = ""360"" style=""border:16px solid orange"">",null,,,,,,,,
null,,html-keyboard-response,213,153940,0.0-213.0,3JV9LGBJWU0TSCKFE2VW0L87YXCOG2,A1JVO7FLPATHUB,30OITAWPBQP2Z1DQ5HPUZCTXABIH90,,,null,,,,,,,,
779.89999999851,,image-keyboard-response,214,154720,0.0-214.0,3JV9LGBJWU0TSCKFE2VW0L87YXCOG2,A1JVO7FLPATHUB,30OITAWPBQP2Z1DQ5HPUZCTXABIH90,,img/set1/S4.jpg,74,4,structured_normal,74,"structured_normal,random,structured_incentive","1,2,2,3",TRUE,,
null,,html-keyboard-response,215,155080,0.0-215.0,3JV9LGBJWU0TSCKFE2VW0L87YXCOG2,A1JVO7FLPATHUB,30OITAWPBQP2Z1DQ5HPUZCTXABIH90,,"<img src=""img/set1/S4.jpg"" width=""540"" height = ""360"" style=""border:16px solid orange"">",null,,,,,,,,
null,,html-keyboard-response,216,155281,0.0-216.0,3JV9LGBJWU0TSCKFE2VW0L87YXCOG2,A1JVO7FLPATHUB,30OITAWPBQP2Z1DQ5HPUZCTXABIH90,,,null,,,,,,,,
327,,image-keyboard-response,217,155609,0.0-217.0,3JV9LGBJWU0TSCKFE2VW0L87YXCOG2,A1JVO7FLPATHUB,30OITAWPBQP2Z1DQ5HPUZCTXABIH90,,img/set1/S4.jpg,74,4,structured_normal,74,"structured_normal,random,structured_incentive","1,2,2,3",TRUE,,
null,,html-keyboard-response,218,155960,0.0-218.0,3JV9LGBJWU0TSCKFE2VW0L87YXCOG2,A1JVO7FLPATHUB,30OITAWPBQP2Z1DQ5HPUZCTXABIH90,,"<img src=""img/set1/S4.jpg"" width=""540"" height = ""360"" style=""border:16px solid orange"">",null,,,,,,,,
null,,html-keyboard-response,219,156161,0.0-219.0,3JV9LGBJWU0TSCKFE2VW0L87YXCOG2,A1JVO7FLPATHUB,30OITAWPBQP2Z1DQ5HPUZCTXABIH90,,,null,,,,,,,,
565.79999999702,,image-keyboard-response,220,156728,0.0-220.0,3JV9LGBJWU0TSCKFE2VW0L87YXCOG2,A1JVO7FLPATHUB,30OITAWPBQP2Z1DQ5HPUZCTXABIH90,,img/set1/S1.jpg,68,1,structured_normal,83,"structured_normal,random,structured_incentive","1,2,2,3",FALSE,,
null,,html-keyboard-response,221,157080,0.0-221.0,3JV9LGBJWU0TSCKFE2VW0L87YXCOG2,A1JVO7FLPATHUB,30OITAWPBQP2Z1DQ5HPUZCTXABIH90,,"<img src=""img/set1/S1.jpg"" width=""540"" height = ""360"">",null,,,,,,,,
null,,html-keyboard-response,222,157280,0.0-222.0,3JV9LGBJWU0TSCKFE2VW0L87YXCOG2,A1JVO7FLPATHUB,30OITAWPBQP2Z1DQ5HPUZCTXABIH90,,,null,,,,,,,,
600.79999999702,,image-keyboard-response,223,157882,0.0-223.0,3JV9LGBJWU0TSCKFE2VW0L87YXCOG2,A1JVO7FLPATHUB,30OITAWPBQP2Z1DQ5HPUZCTXABIH90,,img/set1/S2.jpg,68,2,structured_normal,68,"structured_normal,random,structured_incentive","1,2,2,3",TRUE,,
null,,html-keyboard-response,224,158248,0.0-224.0,3JV9LGBJWU0TSCKFE2VW0L87YXCOG2,A1JVO7FLPATHUB,30OITAWPBQP2Z1DQ5HPUZCTXABIH90,,"<img src=""img/set1/S2.jpg"" width=""540"" height = ""360"" style=""border:16px solid orange"">",null,,,,,,,,
null,,html-keyboard-response,225,158449,0.0-225.0,3JV9LGBJWU0TSCKFE2VW0L87YXCOG2,A1JVO7FLPATHUB,30OITAWPBQP2Z1DQ5HPUZCTXABIH90,,,null,,,,,,,,
746.39999999851,,image-keyboard-response,226,159196,0.0-226.0,3JV9LGBJWU0TSCKFE2VW0L87YXCOG2,A1JVO7FLPATHUB,30OITAWPBQP2Z1DQ5HPUZCTXABIH90,,img/set1/S4.jpg,74,4,structured_normal,74,"structured_normal,random,structured_incentive","1,2,2,3",TRUE,,
null,,html-keyboard-response,227,159548,0.0-227.0,3JV9LGBJWU0TSCKFE2VW0L87YXCOG2,A1JVO7FLPATHUB,30OITAWPBQP2Z1DQ5HPUZCTXABIH90,,"<img src=""img/set1/S4.jpg"" width=""540"" height = ""360"" style=""border:16px solid orange"">",null,,,,,,,,
null,,html-keyboard-response,228,159750,0.0-228.0,3JV9LGBJWU0TSCKFE2VW0L87YXCOG2,A1JVO7FLPATHUB,30OITAWPBQP2Z1DQ5HPUZCTXABIH90,,,null,,,,,,,,
367.39999999851,,image-keyboard-response,229,160118,0.0-229.0,3JV9LGBJWU0TSCKFE2VW0L87YXCOG2,A1JVO7FLPATHUB,30OITAWPBQP2Z1DQ5HPUZCTXABIH90,,img/set1/S4.jpg,74,4,structured_normal,74,"structured_normal,random,structured_incentive","1,2,2,3",TRUE,,
null,,html-keyboard-response,230,160469,0.0-230.0,3JV9LGBJWU0TSCKFE2VW0L87YXCOG2,A1JVO7FLPATHUB,30OITAWPBQP2Z1DQ5HPUZCTXABIH90,,"<img src=""img/set1/S4.jpg"" width=""540"" height = ""360"" style=""border:16px solid orange"">",null,,,,,,,,
null,,html-keyboard-response,231,160670,0.0-231.0,3JV9LGBJWU0TSCKFE2VW0L87YXCOG2,A1JVO7FLPATHUB,30OITAWPBQP2Z1DQ5HPUZCTXABIH90,,,null,,,,,,,,
879.20000000298,,image-keyboard-response,232,161550,0.0-232.0,3JV9LGBJWU0TSCKFE2VW0L87YXCOG2,A1JVO7FLPATHUB,30OITAWPBQP2Z1DQ5HPUZCTXABIH90,,img/set1/S3.jpg,83,3,structured_normal,72,"structured_normal,random,structured_incentive","1,2,2,3",FALSE,,
null,,html-keyboard-response,233,161903,0.0-233.0,3JV9LGBJWU0TSCKFE2VW0L87YXCOG2,A1JVO7FLPATHUB,30OITAWPBQP2Z1DQ5HPUZCTXABIH90,,"<img src=""img/set1/S3.jpg"" width=""540"" height = ""360"">",null,,,,,,,,
null,,html-keyboard-response,234,162103,0.0-234.0,3JV9LGBJWU0TSCKFE2VW0L87YXCOG2,A1JVO7FLPATHUB,30OITAWPBQP2Z1DQ5HPUZCTXABIH90,,,null,,,,,,,,
895.39999999851,,image-keyboard-response,235,162999,0.0-235.0,3JV9LGBJWU0TSCKFE2VW0L87YXCOG2,A1JVO7FLPATHUB,30OITAWPBQP2Z1DQ5HPUZCTXABIH90,,img/set1/S1.jpg,68,1,structured_normal,83,"structured_normal,random,structured_incentive","1,2,2,3",FALSE,,
null,,html-keyboard-response,236,163351,0.0-236.0,3JV9LGBJWU0TSCKFE2VW0L87YXCOG2,A1JVO7FLPATHUB,30OITAWPBQP2Z1DQ5HPUZCTXABIH90,,"<img src=""img/set1/S1.jpg"" width=""540"" height = ""360"">",null,,,,,,,,
null,,html-keyboard-response,237,163552,0.0-237.0,3JV9LGBJWU0TSCKFE2VW0L87YXCOG2,A1JVO7FLPATHUB,30OITAWPBQP2Z1DQ5HPUZCTXABIH90,,,null,,,,,,,,
450.70000000298,,image-keyboard-response,238,164004,0.0-238.0,3JV9LGBJWU0TSCKFE2VW0L87YXCOG2,A1JVO7FLPATHUB,30OITAWPBQP2Z1DQ5HPUZCTXABIH90,,img/set1/S2.jpg,68,2,structured_normal,68,"structured_normal,random,structured_incentive","1,2,2,3",TRUE,,
null,,html-keyboard-response,239,164356,0.0-239.0,3JV9LGBJWU0TSCKFE2VW0L87YXCOG2,A1JVO7FLPATHUB,30OITAWPBQP2Z1DQ5HPUZCTXABIH90,,"<img src=""img/set1/S2.jpg"" width=""540"" height = ""360"" style=""border:16px solid orange"">",null,,,,,,,,
null,,html-keyboard-response,240,164557,0.0-240.0,3JV9LGBJWU0TSCKFE2VW0L87YXCOG2,A1JVO7FLPATHUB,30OITAWPBQP2Z1DQ5HPUZCTXABIH90,,,null,,,,,,,,
545.80000000447,,image-keyboard-response,241,165104,0.0-241.0,3JV9LGBJWU0TSCKFE2VW0L87YXCOG2,A1JVO7FLPATHUB,30OITAWPBQP2Z1DQ5HPUZCTXABIH90,,img/set1/S1.jpg,83,1,structured_normal,83,"structured_normal,random,structured_incentive","1,2,2,3",TRUE,,
null,,html-keyboard-response,242,165455,0.0-242.0,3JV9LGBJWU0TSCKFE2VW0L87YXCOG2,A1JVO7FLPATHUB,30OITAWPBQP2Z1DQ5HPUZCTXABIH90,,"<img src=""img/set1/S1.jpg"" width=""540"" height = ""360"" style=""border:16px solid orange"">",null,,,,,,,,
null,,html-keyboard-response,243,165656,0.0-243.0,3JV9LGBJWU0TSCKFE2VW0L87YXCOG2,A1JVO7FLPATHUB,30OITAWPBQP2Z1DQ5HPUZCTXABIH90,,,null,,,,,,,,
637.10000000149,,image-keyboard-response,244,166294,0.0-244.0,3JV9LGBJWU0TSCKFE2VW0L87YXCOG2,A1JVO7FLPATHUB,30OITAWPBQP2Z1DQ5HPUZCTXABIH90,,img/set1/S2.jpg,68,2,structured_normal,68,"structured_normal,random,structured_incentive","1,2,2,3",TRUE,,
null,,html-keyboard-response,245,166645,0.0-245.0,3JV9LGBJWU0TSCKFE2VW0L87YXCOG2,A1JVO7FLPATHUB,30OITAWPBQP2Z1DQ5HPUZCTXABIH90,,"<img src=""img/set1/S2.jpg"" width=""540"" height = ""360"" style=""border:16px solid orange"">",null,,,,,,,,
null,,html-keyboard-response,246,166846,0.0-246.0,3JV9LGBJWU0TSCKFE2VW0L87YXCOG2,A1JVO7FLPATHUB,30OITAWPBQP2Z1DQ5HPUZCTXABIH90,,,null,,,,,,,,
679.80000000447,,image-keyboard-response,247,167527,0.0-247.0,3JV9LGBJWU0TSCKFE2VW0L87YXCOG2,A1JVO7FLPATHUB,30OITAWPBQP2Z1DQ5HPUZCTXABIH90,,img/set1/S1.jpg,83,1,structured_normal,83,"structured_normal,random,structured_incentive","1,2,2,3",TRUE,,
null,,html-keyboard-response,248,167879,0.0-248.0,3JV9LGBJWU0TSCKFE2VW0L87YXCOG2,A1JVO7FLPATHUB,30OITAWPBQP2Z1DQ5HPUZCTXABIH90,,"<img src=""img/set1/S1.jpg"" width=""540"" height = ""360"" style=""border:16px solid orange"">",null,,,,,,,,
null,,html-keyboard-response,249,168080,0.0-249.0,3JV9LGBJWU0TSCKFE2VW0L87YXCOG2,A1JVO7FLPATHUB,30OITAWPBQP2Z1DQ5HPUZCTXABIH90,,,null,,,,,,,,
694.60000000149,,image-keyboard-response,250,168775,0.0-250.0,3JV9LGBJWU0TSCKFE2VW0L87YXCOG2,A1JVO7FLPATHUB,30OITAWPBQP2Z1DQ5HPUZCTXABIH90,,img/set1/S2.jpg,68,2,structured_normal,68,"structured_normal,random,structured_incentive","1,2,2,3",TRUE,,
null,,html-keyboard-response,251,169127,0.0-251.0,3JV9LGBJWU0TSCKFE2VW0L87YXCOG2,A1JVO7FLPATHUB,30OITAWPBQP2Z1DQ5HPUZCTXABIH90,,"<img src=""img/set1/S2.jpg"" width=""540"" height = ""360"" style=""border:16px solid orange"">",null,,,,,,,,
null,,html-keyboard-response,252,169328,0.0-252.0,3JV9LGBJWU0TSCKFE2VW0L87YXCOG2,A1JVO7FLPATHUB,30OITAWPBQP2Z1DQ5HPUZCTXABIH90,,,null,,,,,,,,
856.29999999702,,image-keyboard-response,253,170185,0.0-253.0,3JV9LGBJWU0TSCKFE2VW0L87YXCOG2,A1JVO7FLPATHUB,30OITAWPBQP2Z1DQ5HPUZCTXABIH90,,img/set1/S4.jpg,74,4,structured_normal,74,"structured_normal,random,structured_incentive","1,2,2,3",TRUE,,
null,,html-keyboard-response,254,170538,0.0-254.0,3JV9LGBJWU0TSCKFE2VW0L87YXCOG2,A1JVO7FLPATHUB,30OITAWPBQP2Z1DQ5HPUZCTXABIH90,,"<img src=""img/set1/S4.jpg"" width=""540"" height = ""360"" style=""border:16px solid orange"">",null,,,,,,,,
null,,html-keyboard-response,255,170739,0.0-255.0,3JV9LGBJWU0TSCKFE2VW0L87YXCOG2,A1JVO7FLPATHUB,30OITAWPBQP2Z1DQ5HPUZCTXABIH90,,,null,,,,,,,,
646.20000000298,,image-keyboard-response,256,171386,0.0-256.0,3JV9LGBJWU0TSCKFE2VW0L87YXCOG2,A1JVO7FLPATHUB,30OITAWPBQP2Z1DQ5HPUZCTXABIH90,,img/set1/S1.jpg,68,1,structured_normal,83,"structured_normal,random,structured_incentive","1,2,2,3",FALSE,,
null,,html-keyboard-response,257,171737,0.0-257.0,3JV9LGBJWU0TSCKFE2VW0L87YXCOG2,A1JVO7FLPATHUB,30OITAWPBQP2Z1DQ5HPUZCTXABIH90,,"<img src=""img/set1/S1.jpg"" width=""540"" height = ""360"">",null,,,,,,,,
null,,html-keyboard-response,258,171938,0.0-258.0,3JV9LGBJWU0TSCKFE2VW0L87YXCOG2,A1JVO7FLPATHUB,30OITAWPBQP2Z1DQ5HPUZCTXABIH90,,,null,,,,,,,,
449,,image-keyboard-response,259,172388,0.0-259.0,3JV9LGBJWU0TSCKFE2VW0L87YXCOG2,A1JVO7FLPATHUB,30OITAWPBQP2Z1DQ5HPUZCTXABIH90,,img/set1/S2.jpg,68,2,structured_normal,68,"structured_normal,random,structured_incentive","1,2,2,3",TRUE,,
null,,html-keyboard-response,260,172740,0.0-260.0,3JV9LGBJWU0TSCKFE2VW0L87YXCOG2,A1JVO7FLPATHUB,30OITAWPBQP2Z1DQ5HPUZCTXABIH90,,"<img src=""img/set1/S2.jpg"" width=""540"" height = ""360"" style=""border:16px solid orange"">",null,,,,,,,,
null,,html-keyboard-response,261,172941,0.0-261.0,3JV9LGBJWU0TSCKFE2VW0L87YXCOG2,A1JVO7FLPATHUB,30OITAWPBQP2Z1DQ5HPUZCTXABIH90,,,null,,,,,,,,
499,,image-keyboard-response,262,173441,0.0-262.0,3JV9LGBJWU0TSCKFE2VW0L87YXCOG2,A1JVO7FLPATHUB,30OITAWPBQP2Z1DQ5HPUZCTXABIH90,,img/set1/S4.jpg,72,4,structured_normal,74,"structured_normal,random,structured_incentive","1,2,2,3",FALSE,,
null,,html-keyboard-response,263,173793,0.0-263.0,3JV9LGBJWU0TSCKFE2VW0L87YXCOG2,A1JVO7FLPATHUB,30OITAWPBQP2Z1DQ5HPUZCTXABIH90,,"<img src=""img/set1/S4.jpg"" width=""540"" height = ""360"">",null,,,,,,,,
null,,html-keyboard-response,264,173995,0.0-264.0,3JV9LGBJWU0TSCKFE2VW0L87YXCOG2,A1JVO7FLPATHUB,30OITAWPBQP2Z1DQ5HPUZCTXABIH90,,,null,,,,,,,,
436.80000000447,,image-keyboard-response,265,174433,0.0-265.0,3JV9LGBJWU0TSCKFE2VW0L87YXCOG2,A1JVO7FLPATHUB,30OITAWPBQP2Z1DQ5HPUZCTXABIH90,,img/set1/S3.jpg,72,3,structured_normal,72,"structured_normal,random,structured_incentive","1,2,2,3",TRUE,,
null,,html-keyboard-response,266,174784,0.0-266.0,3JV9LGBJWU0TSCKFE2VW0L87YXCOG2,A1JVO7FLPATHUB,30OITAWPBQP2Z1DQ5HPUZCTXABIH90,,"<img src=""img/set1/S3.jpg"" width=""540"" height = ""360"" style=""border:16px solid orange"">",null,,,,,,,,
null,,html-keyboard-response,267,174985,0.0-267.0,3JV9LGBJWU0TSCKFE2VW0L87YXCOG2,A1JVO7FLPATHUB,30OITAWPBQP2Z1DQ5HPUZCTXABIH90,,,null,,,,,,,,
461.79999999702,,image-keyboard-response,268,175447,0.0-268.0,3JV9LGBJWU0TSCKFE2VW0L87YXCOG2,A1JVO7FLPATHUB,30OITAWPBQP2Z1DQ5HPUZCTXABIH90,,img/set1/S4.jpg,74,4,structured_normal,74,"structured_normal,random,structured_incentive","1,2,2,3",TRUE,,
null,,html-keyboard-response,269,175798,0.0-269.0,3JV9LGBJWU0TSCKFE2VW0L87YXCOG2,A1JVO7FLPATHUB,30OITAWPBQP2Z1DQ5HPUZCTXABIH90,,"<img src=""img/set1/S4.jpg"" width=""540"" height = ""360"" style=""border:16px solid orange"">",null,,,,,,,,
null,,html-keyboard-response,270,176000,0.0-270.0,3JV9LGBJWU0TSCKFE2VW0L87YXCOG2,A1JVO7FLPATHUB,30OITAWPBQP2Z1DQ5HPUZCTXABIH90,,,null,,,,,,,,
362.70000000298,,image-keyboard-response,271,176363,0.0-271.0,3JV9LGBJWU0TSCKFE2VW0L87YXCOG2,A1JVO7FLPATHUB,30OITAWPBQP2Z1DQ5HPUZCTXABIH90,,img/set1/S4.jpg,74,4,structured_normal,74,"structured_normal,random,structured_incentive","1,2,2,3",TRUE,,
null,,html-keyboard-response,272,176714,0.0-272.0,3JV9LGBJWU0TSCKFE2VW0L87YXCOG2,A1JVO7FLPATHUB,30OITAWPBQP2Z1DQ5HPUZCTXABIH90,,"<img src=""img/set1/S4.jpg"" width=""540"" height = ""360"" style=""border:16px solid orange"">",null,,,,,,,,
null,,html-keyboard-response,273,176915,0.0-273.0,3JV9LGBJWU0TSCKFE2VW0L87YXCOG2,A1JVO7FLPATHUB,30OITAWPBQP2Z1DQ5HPUZCTXABIH90,,,null,,,,,,,,
291,,image-keyboard-response,274,177207,0.0-274.0,3JV9LGBJWU0TSCKFE2VW0L87YXCOG2,A1JVO7FLPATHUB,30OITAWPBQP2Z1DQ5HPUZCTXABIH90,,img/set1/S4.jpg,74,4,structured_normal,74,"structured_normal,random,structured_incentive","1,2,2,3",TRUE,,
null,,html-keyboard-response,275,177559,0.0-275.0,3JV9LGBJWU0TSCKFE2VW0L87YXCOG2,A1JVO7FLPATHUB,30OITAWPBQP2Z1DQ5HPUZCTXABIH90,,"<img src=""img/set1/S4.jpg"" width=""540"" height = ""360"" style=""border:16px solid orange"">",null,,,,,,,,
null,,html-keyboard-response,276,177760,0.0-276.0,3JV9LGBJWU0TSCKFE2VW0L87YXCOG2,A1JVO7FLPATHUB,30OITAWPBQP2Z1DQ5HPUZCTXABIH90,,,null,,,,,,,,
742.79999999702,,image-keyboard-response,277,178504,0.0-277.0,3JV9LGBJWU0TSCKFE2VW0L87YXCOG2,A1JVO7FLPATHUB,30OITAWPBQP2Z1DQ5HPUZCTXABIH90,,img/set1/S1.jpg,68,1,structured_normal,83,"structured_normal,random,structured_incentive","1,2,2,3",FALSE,,
null,,html-keyboard-response,278,178856,0.0-278.0,3JV9LGBJWU0TSCKFE2VW0L87YXCOG2,A1JVO7FLPATHUB,30OITAWPBQP2Z1DQ5HPUZCTXABIH90,,"<img src=""img/set1/S1.jpg"" width=""540"" height = ""360"">",null,,,,,,,,
null,,html-keyboard-response,279,179058,0.0-279.0,3JV9LGBJWU0TSCKFE2VW0L87YXCOG2,A1JVO7FLPATHUB,30OITAWPBQP2Z1DQ5HPUZCTXABIH90,,,null,,,,,,,,
285.59999999404,,image-keyboard-response,280,179344,0.0-280.0,3JV9LGBJWU0TSCKFE2VW0L87YXCOG2,A1JVO7FLPATHUB,30OITAWPBQP2Z1DQ5HPUZCTXABIH90,,img/set1/S2.jpg,68,2,structured_normal,68,"structured_normal,random,structured_incentive","1,2,2,3",TRUE,,
null,,html-keyboard-response,281,179696,0.0-281.0,3JV9LGBJWU0TSCKFE2VW0L87YXCOG2,A1JVO7FLPATHUB,30OITAWPBQP2Z1DQ5HPUZCTXABIH90,,"<img src=""img/set1/S2.jpg"" width=""540"" height = ""360"" style=""border:16px solid orange"">",null,,,,,,,,
null,,html-keyboard-response,282,179897,0.0-282.0,3JV9LGBJWU0TSCKFE2VW0L87YXCOG2,A1JVO7FLPATHUB,30OITAWPBQP2Z1DQ5HPUZCTXABIH90,,,null,,,,,,,,
681.29999999702,,image-keyboard-response,283,180579,0.0-283.0,3JV9LGBJWU0TSCKFE2VW0L87YXCOG2,A1JVO7FLPATHUB,30OITAWPBQP2Z1DQ5HPUZCTXABIH90,,img/set1/S4.jpg,74,4,structured_normal,74,"structured_normal,random,structured_incentive","1,2,2,3",TRUE,,
null,,html-keyboard-response,284,180931,0.0-284.0,3JV9LGBJWU0TSCKFE2VW0L87YXCOG2,A1JVO7FLPATHUB,30OITAWPBQP2Z1DQ5HPUZCTXABIH90,,"<img src=""img/set1/S4.jpg"" width=""540"" height = ""360"" style=""border:16px solid orange"">",null,,,,,,,,
null,,html-keyboard-response,285,181132,0.0-285.0,3JV9LGBJWU0TSCKFE2VW0L87YXCOG2,A1JVO7FLPATHUB,30OITAWPBQP2Z1DQ5HPUZCTXABIH90,,,null,,,,,,,,
337.70000000298,,image-keyboard-response,286,181471,0.0-286.0,3JV9LGBJWU0TSCKFE2VW0L87YXCOG2,A1JVO7FLPATHUB,30OITAWPBQP2Z1DQ5HPUZCTXABIH90,,img/set1/S4.jpg,74,4,structured_normal,74,"structured_normal,random,structured_incentive","1,2,2,3",TRUE,,
null,,html-keyboard-response,287,181823,0.0-287.0,3JV9LGBJWU0TSCKFE2VW0L87YXCOG2,A1JVO7FLPATHUB,30OITAWPBQP2Z1DQ5HPUZCTXABIH90,,"<img src=""img/set1/S4.jpg"" width=""540"" height = ""360"" style=""border:16px solid orange"">",null,,,,,,,,
null,,html-keyboard-response,288,182024,0.0-288.0,3JV9LGBJWU0TSCKFE2VW0L87YXCOG2,A1JVO7FLPATHUB,30OITAWPBQP2Z1DQ5HPUZCTXABIH90,,,null,,,,,,,,
550.40000000596,,image-keyboard-response,289,182575,0.0-289.0,3JV9LGBJWU0TSCKFE2VW0L87YXCOG2,A1JVO7FLPATHUB,30OITAWPBQP2Z1DQ5HPUZCTXABIH90,,img/set1/S1.jpg,83,1,structured_normal,83,"structured_normal,random,structured_incentive","1,2,2,3",TRUE,,
null,,html-keyboard-response,290,182927,0.0-290.0,3JV9LGBJWU0TSCKFE2VW0L87YXCOG2,A1JVO7FLPATHUB,30OITAWPBQP2Z1DQ5HPUZCTXABIH90,,"<img src=""img/set1/S1.jpg"" width=""540"" height = ""360"" style=""border:16px solid orange"">",null,,,,,,,,
null,,html-keyboard-response,291,183128,0.0-291.0,3JV9LGBJWU0TSCKFE2VW0L87YXCOG2,A1JVO7FLPATHUB,30OITAWPBQP2Z1DQ5HPUZCTXABIH90,,,null,,,,,,,,
437.89999999851,,image-keyboard-response,292,183567,0.0-292.0,3JV9LGBJWU0TSCKFE2VW0L87YXCOG2,A1JVO7FLPATHUB,30OITAWPBQP2Z1DQ5HPUZCTXABIH90,,img/set1/S2.jpg,68,2,structured_normal,68,"structured_normal,random,structured_incentive","1,2,2,3",TRUE,,
null,,html-keyboard-response,293,183920,0.0-293.0,3JV9LGBJWU0TSCKFE2VW0L87YXCOG2,A1JVO7FLPATHUB,30OITAWPBQP2Z1DQ5HPUZCTXABIH90,,"<img src=""img/set1/S2.jpg"" width=""540"" height = ""360"" style=""border:16px solid orange"">",null,,,,,,,,
null,,html-keyboard-response,294,184121,0.0-294.0,3JV9LGBJWU0TSCKFE2VW0L87YXCOG2,A1JVO7FLPATHUB,30OITAWPBQP2Z1DQ5HPUZCTXABIH90,,,null,,,,,,,,
560.39999999851,,image-keyboard-response,295,184682,0.0-295.0,3JV9LGBJWU0TSCKFE2VW0L87YXCOG2,A1JVO7FLPATHUB,30OITAWPBQP2Z1DQ5HPUZCTXABIH90,,img/set1/S1.jpg,83,1,structured_normal,83,"structured_normal,random,structured_incentive","1,2,2,3",TRUE,,
null,,html-keyboard-response,296,185034,0.0-296.0,3JV9LGBJWU0TSCKFE2VW0L87YXCOG2,A1JVO7FLPATHUB,30OITAWPBQP2Z1DQ5HPUZCTXABIH90,,"<img src=""img/set1/S1.jpg"" width=""540"" height = ""360"" style=""border:16px solid orange"">",null,,,,,,,,
null,,html-keyboard-response,297,185235,0.0-297.0,3JV9LGBJWU0TSCKFE2VW0L87YXCOG2,A1JVO7FLPATHUB,30OITAWPBQP2Z1DQ5HPUZCTXABIH90,,,null,,,,,,,,
321,,image-keyboard-response,298,185556,0.0-298.0,3JV9LGBJWU0TSCKFE2VW0L87YXCOG2,A1JVO7FLPATHUB,30OITAWPBQP2Z1DQ5HPUZCTXABIH90,,img/set1/S2.jpg,68,2,structured_normal,68,"structured_normal,random,structured_incentive","1,2,2,3",TRUE,,
null,,html-keyboard-response,299,185907,0.0-299.0,3JV9LGBJWU0TSCKFE2VW0L87YXCOG2,A1JVO7FLPATHUB,30OITAWPBQP2Z1DQ5HPUZCTXABIH90,,"<img src=""img/set1/S2.jpg"" width=""540"" height = ""360"" style=""border:16px solid orange"">",null,,,,,,,,
null,,html-keyboard-response,300,186109,0.0-300.0,3JV9LGBJWU0TSCKFE2VW0L87YXCOG2,A1JVO7FLPATHUB,30OITAWPBQP2Z1DQ5HPUZCTXABIH90,,,null,,,,,,,,
528.90000000596,,image-keyboard-response,301,186638,0.0-301.0,3JV9LGBJWU0TSCKFE2VW0L87YXCOG2,A1JVO7FLPATHUB,30OITAWPBQP2Z1DQ5HPUZCTXABIH90,,img/set1/S3.jpg,72,3,structured_normal,72,"structured_normal,random,structured_incentive","1,2,2,3",TRUE,,
null,,html-keyboard-response,302,186991,0.0-302.0,3JV9LGBJWU0TSCKFE2VW0L87YXCOG2,A1JVO7FLPATHUB,30OITAWPBQP2Z1DQ5HPUZCTXABIH90,,"<img src=""img/set1/S3.jpg"" width=""540"" height = ""360"" style=""border:16px solid orange"">",null,,,,,,,,
null,,html-keyboard-response,303,187191,0.0-303.0,3JV9LGBJWU0TSCKFE2VW0L87YXCOG2,A1JVO7FLPATHUB,30OITAWPBQP2Z1DQ5HPUZCTXABIH90,,,null,,,,,,,,
382.69999999553,,image-keyboard-response,304,187575,0.0-304.0,3JV9LGBJWU0TSCKFE2VW0L87YXCOG2,A1JVO7FLPATHUB,30OITAWPBQP2Z1DQ5HPUZCTXABIH90,,img/set1/S4.jpg,74,4,structured_normal,74,"structured_normal,random,structured_incentive","1,2,2,3",TRUE,,
null,,html-keyboard-response,305,187927,0.0-305.0,3JV9LGBJWU0TSCKFE2VW0L87YXCOG2,A1JVO7FLPATHUB,30OITAWPBQP2Z1DQ5HPUZCTXABIH90,,"<img src=""img/set1/S4.jpg"" width=""540"" height = ""360"" style=""border:16px solid orange"">",null,,,,,,,,
null,,html-keyboard-response,306,188128,0.0-306.0,3JV9LGBJWU0TSCKFE2VW0L87YXCOG2,A1JVO7FLPATHUB,30OITAWPBQP2Z1DQ5HPUZCTXABIH90,,,null,,,,,,,,
568,,image-keyboard-response,307,188697,0.0-307.0,3JV9LGBJWU0TSCKFE2VW0L87YXCOG2,A1JVO7FLPATHUB,30OITAWPBQP2Z1DQ5HPUZCTXABIH90,,img/set1/S4.jpg,74,4,structured_normal,74,"structured_normal,random,structured_incentive","1,2,2,3",TRUE,,
null,,html-keyboard-response,308,189048,0.0-308.0,3JV9LGBJWU0TSCKFE2VW0L87YXCOG2,A1JVO7FLPATHUB,30OITAWPBQP2Z1DQ5HPUZCTXABIH90,,"<img src=""img/set1/S4.jpg"" width=""540"" height = ""360"" style=""border:16px solid orange"">",null,,,,,,,,
null,,html-keyboard-response,309,189250,0.0-309.0,3JV9LGBJWU0TSCKFE2VW0L87YXCOG2,A1JVO7FLPATHUB,30OITAWPBQP2Z1DQ5HPUZCTXABIH90,,,null,,,,,,,,
360.5,,image-keyboard-response,310,189611,0.0-310.0,3JV9LGBJWU0TSCKFE2VW0L87YXCOG2,A1JVO7FLPATHUB,30OITAWPBQP2Z1DQ5HPUZCTXABIH90,,img/set1/S4.jpg,74,4,structured_normal,74,"structured_normal,random,structured_incentive","1,2,2,3",TRUE,,
null,,html-keyboard-response,311,189963,0.0-311.0,3JV9LGBJWU0TSCKFE2VW0L87YXCOG2,A1JVO7FLPATHUB,30OITAWPBQP2Z1DQ5HPUZCTXABIH90,,"<img src=""img/set1/S4.jpg"" width=""540"" height = ""360"" style=""border:16px solid orange"">",null,,,,,,,,
null,,html-keyboard-response,312,190164,0.0-312.0,3JV9LGBJWU0TSCKFE2VW0L87YXCOG2,A1JVO7FLPATHUB,30OITAWPBQP2Z1DQ5HPUZCTXABIH90,,,null,,,,,,,,
268.89999999851,,image-keyboard-response,313,190434,0.0-313.0,3JV9LGBJWU0TSCKFE2VW0L87YXCOG2,A1JVO7FLPATHUB,30OITAWPBQP2Z1DQ5HPUZCTXABIH90,,img/set1/S4.jpg,74,4,structured_normal,74,"structured_normal,random,structured_incentive","1,2,2,3",TRUE,,
null,,html-keyboard-response,314,190786,0.0-314.0,3JV9LGBJWU0TSCKFE2VW0L87YXCOG2,A1JVO7FLPATHUB,30OITAWPBQP2Z1DQ5HPUZCTXABIH90,,"<img src=""img/set1/S4.jpg"" width=""540"" height = ""360"" style=""border:16px solid orange"">",null,,,,,,,,
null,,html-keyboard-response,315,190987,0.0-315.0,3JV9LGBJWU0TSCKFE2VW0L87YXCOG2,A1JVO7FLPATHUB,30OITAWPBQP2Z1DQ5HPUZCTXABIH90,,,null,,,,,,,,
267.79999999702,,image-keyboard-response,316,191256,0.0-316.0,3JV9LGBJWU0TSCKFE2VW0L87YXCOG2,A1JVO7FLPATHUB,30OITAWPBQP2Z1DQ5HPUZCTXABIH90,,img/set1/S4.jpg,74,4,structured_normal,74,"structured_normal,random,structured_incentive","1,2,2,3",TRUE,,
null,,html-keyboard-response,317,191608,0.0-317.0,3JV9LGBJWU0TSCKFE2VW0L87YXCOG2,A1JVO7FLPATHUB,30OITAWPBQP2Z1DQ5HPUZCTXABIH90,,"<img src=""img/set1/S4.jpg"" width=""540"" height = ""360"" style=""border:16px solid orange"">",null,,,,,,,,
null,,html-keyboard-response,318,191809,0.0-318.0,3JV9LGBJWU0TSCKFE2VW0L87YXCOG2,A1JVO7FLPATHUB,30OITAWPBQP2Z1DQ5HPUZCTXABIH90,,,null,,,,,,,,
341.59999999404,,image-keyboard-response,319,192152,0.0-319.0,3JV9LGBJWU0TSCKFE2VW0L87YXCOG2,A1JVO7FLPATHUB,30OITAWPBQP2Z1DQ5HPUZCTXABIH90,,img/set1/S4.jpg,74,4,structured_normal,74,"structured_normal,random,structured_incentive","1,2,2,3",TRUE,,
null,,html-keyboard-response,320,192504,0.0-320.0,3JV9LGBJWU0TSCKFE2VW0L87YXCOG2,A1JVO7FLPATHUB,30OITAWPBQP2Z1DQ5HPUZCTXABIH90,,"<img src=""img/set1/S4.jpg"" width=""540"" height = ""360"" style=""border:16px solid orange"">",null,,,,,,,,
null,,html-keyboard-response,321,192705,0.0-321.0,3JV9LGBJWU0TSCKFE2VW0L87YXCOG2,A1JVO7FLPATHUB,30OITAWPBQP2Z1DQ5HPUZCTXABIH90,,,null,,,,,,,,
264.29999999702,,image-keyboard-response,322,192970,0.0-322.0,3JV9LGBJWU0TSCKFE2VW0L87YXCOG2,A1JVO7FLPATHUB,30OITAWPBQP2Z1DQ5HPUZCTXABIH90,,img/set1/S4.jpg,74,4,structured_normal,74,"structured_normal,random,structured_incentive","1,2,2,3",TRUE,,
null,,html-keyboard-response,323,193321,0.0-323.0,3JV9LGBJWU0TSCKFE2VW0L87YXCOG2,A1JVO7FLPATHUB,30OITAWPBQP2Z1DQ5HPUZCTXABIH90,,"<img src=""img/set1/S4.jpg"" width=""540"" height = ""360"" style=""border:16px solid orange"">",null,,,,,,,,
null,,html-keyboard-response,324,193523,0.0-324.0,3JV9LGBJWU0TSCKFE2VW0L87YXCOG2,A1JVO7FLPATHUB,30OITAWPBQP2Z1DQ5HPUZCTXABIH90,,,null,,,,,,,,
652.5,,image-keyboard-response,325,194176,0.0-325.0,3JV9LGBJWU0TSCKFE2VW0L87YXCOG2,A1JVO7FLPATHUB,30OITAWPBQP2Z1DQ5HPUZCTXABIH90,,img/set1/S3.jpg,72,3,structured_normal,72,"structured_normal,random,structured_incentive","1,2,2,3",TRUE,,
null,,html-keyboard-response,326,194528,0.0-326.0,3JV9LGBJWU0TSCKFE2VW0L87YXCOG2,A1JVO7FLPATHUB,30OITAWPBQP2Z1DQ5HPUZCTXABIH90,,"<img src=""img/set1/S3.jpg"" width=""540"" height = ""360"" style=""border:16px solid orange"">",null,,,,,,,,
null,,html-keyboard-response,327,194730,0.0-327.0,3JV9LGBJWU0TSCKFE2VW0L87YXCOG2,A1JVO7FLPATHUB,30OITAWPBQP2Z1DQ5HPUZCTXABIH90,,,null,,,,,,,,
223.80000000447,,image-keyboard-response,328,194954,0.0-328.0,3JV9LGBJWU0TSCKFE2VW0L87YXCOG2,A1JVO7FLPATHUB,30OITAWPBQP2Z1DQ5HPUZCTXABIH90,,img/set1/S4.jpg,72,4,structured_normal,74,"structured_normal,random,structured_incentive","1,2,2,3",FALSE,,
null,,html-keyboard-response,329,195305,0.0-329.0,3JV9LGBJWU0TSCKFE2VW0L87YXCOG2,A1JVO7FLPATHUB,30OITAWPBQP2Z1DQ5HPUZCTXABIH90,,"<img src=""img/set1/S4.jpg"" width=""540"" height = ""360"">",null,,,,,,,,
null,,html-keyboard-response,330,195506,0.0-330.0,3JV9LGBJWU0TSCKFE2VW0L87YXCOG2,A1JVO7FLPATHUB,30OITAWPBQP2Z1DQ5HPUZCTXABIH90,,,null,,,,,,,,
714.09999999404,,image-keyboard-response,331,196220,0.0-331.0,3JV9LGBJWU0TSCKFE2VW0L87YXCOG2,A1JVO7FLPATHUB,30OITAWPBQP2Z1DQ5HPUZCTXABIH90,,img/set1/S3.jpg,72,3,structured_normal,72,"structured_normal,random,structured_incentive","1,2,2,3",TRUE,,
null,,html-keyboard-response,332,196572,0.0-332.0,3JV9LGBJWU0TSCKFE2VW0L87YXCOG2,A1JVO7FLPATHUB,30OITAWPBQP2Z1DQ5HPUZCTXABIH90,,"<img src=""img/set1/S3.jpg"" width=""540"" height = ""360"" style=""border:16px solid orange"">",null,,,,,,,,
null,,html-keyboard-response,333,196774,0.0-333.0,3JV9LGBJWU0TSCKFE2VW0L87YXCOG2,A1JVO7FLPATHUB,30OITAWPBQP2Z1DQ5HPUZCTXABIH90,,,null,,,,,,,,
465.10000000149,,image-keyboard-response,334,197240,0.0-334.0,3JV9LGBJWU0TSCKFE2VW0L87YXCOG2,A1JVO7FLPATHUB,30OITAWPBQP2Z1DQ5HPUZCTXABIH90,,img/set1/S3.jpg,72,3,structured_normal,72,"structured_normal,random,structured_incentive","1,2,2,3",TRUE,,
null,,html-keyboard-response,335,197591,0.0-335.0,3JV9LGBJWU0TSCKFE2VW0L87YXCOG2,A1JVO7FLPATHUB,30OITAWPBQP2Z1DQ5HPUZCTXABIH90,,"<img src=""img/set1/S3.jpg"" width=""540"" height = ""360"" style=""border:16px solid orange"">",null,,,,,,,,
null,,html-keyboard-response,336,197792,0.0-336.0,3JV9LGBJWU0TSCKFE2VW0L87YXCOG2,A1JVO7FLPATHUB,30OITAWPBQP2Z1DQ5HPUZCTXABIH90,,,null,,,,,,,,
405.10000000149,,image-keyboard-response,337,198198,0.0-337.0,3JV9LGBJWU0TSCKFE2VW0L87YXCOG2,A1JVO7FLPATHUB,30OITAWPBQP2Z1DQ5HPUZCTXABIH90,,img/set1/S4.jpg,74,4,structured_normal,74,"structured_normal,random,structured_incentive","1,2,2,3",TRUE,,
null,,html-keyboard-response,338,198549,0.0-338.0,3JV9LGBJWU0TSCKFE2VW0L87YXCOG2,A1JVO7FLPATHUB,30OITAWPBQP2Z1DQ5HPUZCTXABIH90,,"<img src=""img/set1/S4.jpg"" width=""540"" height = ""360"" style=""border:16px solid orange"">",null,,,,,,,,
null,,html-keyboard-response,339,198750,0.0-339.0,3JV9LGBJWU0TSCKFE2VW0L87YXCOG2,A1JVO7FLPATHUB,30OITAWPBQP2Z1DQ5HPUZCTXABIH90,,,null,,,,,,,,
695.09999999404,,image-keyboard-response,340,199446,0.0-340.0,3JV9LGBJWU0TSCKFE2VW0L87YXCOG2,A1JVO7FLPATHUB,30OITAWPBQP2Z1DQ5HPUZCTXABIH90,,img/set1/S1.jpg,83,1,structured_normal,83,"structured_normal,random,structured_incentive","1,2,2,3",TRUE,,
null,,html-keyboard-response,341,199798,0.0-341.0,3JV9LGBJWU0TSCKFE2VW0L87YXCOG2,A1JVO7FLPATHUB,30OITAWPBQP2Z1DQ5HPUZCTXABIH90,,"<img src=""img/set1/S1.jpg"" width=""540"" height = ""360"" style=""border:16px solid orange"">",null,,,,,,,,
null,,html-keyboard-response,342,199998,0.0-342.0,3JV9LGBJWU0TSCKFE2VW0L87YXCOG2,A1JVO7FLPATHUB,30OITAWPBQP2Z1DQ5HPUZCTXABIH90,,,null,,,,,,,,
550.89999999851,,image-keyboard-response,343,200550,0.0-343.0,3JV9LGBJWU0TSCKFE2VW0L87YXCOG2,A1JVO7FLPATHUB,30OITAWPBQP2Z1DQ5HPUZCTXABIH90,,img/set1/S3.jpg,72,3,structured_normal,72,"structured_normal,random,structured_incentive","1,2,2,3",TRUE,,
null,,html-keyboard-response,344,200902,0.0-344.0,3JV9LGBJWU0TSCKFE2VW0L87YXCOG2,A1JVO7FLPATHUB,30OITAWPBQP2Z1DQ5HPUZCTXABIH90,,"<img src=""img/set1/S3.jpg"" width=""540"" height = ""360"" style=""border:16px solid orange"">",null,,,,,,,,
null,,html-keyboard-response,345,201104,0.0-345.0,3JV9LGBJWU0TSCKFE2VW0L87YXCOG2,A1JVO7FLPATHUB,30OITAWPBQP2Z1DQ5HPUZCTXABIH90,,,null,,,,,,,,
607.19999999553,,image-keyboard-response,346,201713,0.0-346.0,3JV9LGBJWU0TSCKFE2VW0L87YXCOG2,A1JVO7FLPATHUB,30OITAWPBQP2Z1DQ5HPUZCTXABIH90,,img/set1/S1.jpg,83,1,structured_normal,83,"structured_normal,random,structured_incentive","1,2,2,3",TRUE,,
null,,html-keyboard-response,347,202065,0.0-347.0,3JV9LGBJWU0TSCKFE2VW0L87YXCOG2,A1JVO7FLPATHUB,30OITAWPBQP2Z1DQ5HPUZCTXABIH90,,"<img src=""img/set1/S1.jpg"" width=""540"" height = ""360"" style=""border:16px solid orange"">",null,,,,,,,,
null,,html-keyboard-response,348,202267,0.0-348.0,3JV9LGBJWU0TSCKFE2VW0L87YXCOG2,A1JVO7FLPATHUB,30OITAWPBQP2Z1DQ5HPUZCTXABIH90,,,null,,,,,,,,
507.5,,image-keyboard-response,349,202775,0.0-349.0,3JV9LGBJWU0TSCKFE2VW0L87YXCOG2,A1JVO7FLPATHUB,30OITAWPBQP2Z1DQ5HPUZCTXABIH90,,img/set1/S2.jpg,68,2,structured_normal,68,"structured_normal,random,structured_incentive","1,2,2,3",TRUE,,
null,,html-keyboard-response,350,203127,0.0-350.0,3JV9LGBJWU0TSCKFE2VW0L87YXCOG2,A1JVO7FLPATHUB,30OITAWPBQP2Z1DQ5HPUZCTXABIH90,,"<img src=""img/set1/S2.jpg"" width=""540"" height = ""360"" style=""border:16px solid orange"">",null,,,,,,,,
null,,html-keyboard-response,351,203329,0.0-351.0,3JV9LGBJWU0TSCKFE2VW0L87YXCOG2,A1JVO7FLPATHUB,30OITAWPBQP2Z1DQ5HPUZCTXABIH90,,,null,,,,,,,,
489.19999999553,,image-keyboard-response,352,203819,0.0-352.0,3JV9LGBJWU0TSCKFE2VW0L87YXCOG2,A1JVO7FLPATHUB,30OITAWPBQP2Z1DQ5HPUZCTXABIH90,,img/set1/S3.jpg,72,3,structured_normal,72,"structured_normal,random,structured_incentive","1,2,2,3",TRUE,,
null,,html-keyboard-response,353,204171,0.0-353.0,3JV9LGBJWU0TSCKFE2VW0L87YXCOG2,A1JVO7FLPATHUB,30OITAWPBQP2Z1DQ5HPUZCTXABIH90,,"<img src=""img/set1/S3.jpg"" width=""540"" height = ""360"" style=""border:16px solid orange"">",null,,,,,,,,
null,,html-keyboard-response,354,204373,0.0-354.0,3JV9LGBJWU0TSCKFE2VW0L87YXCOG2,A1JVO7FLPATHUB,30OITAWPBQP2Z1DQ5HPUZCTXABIH90,,,null,,,,,,,,
551.89999999851,,image-keyboard-response,355,204925,0.0-355.0,3JV9LGBJWU0TSCKFE2VW0L87YXCOG2,A1JVO7FLPATHUB,30OITAWPBQP2Z1DQ5HPUZCTXABIH90,,img/set1/S4.jpg,74,4,structured_normal,74,"structured_normal,random,structured_incentive","1,2,2,3",TRUE,,
null,,html-keyboard-response,356,205276,0.0-356.0,3JV9LGBJWU0TSCKFE2VW0L87YXCOG2,A1JVO7FLPATHUB,30OITAWPBQP2Z1DQ5HPUZCTXABIH90,,"<img src=""img/set1/S4.jpg"" width=""540"" height = ""360"" style=""border:16px solid orange"">",null,,,,,,,,
null,,html-keyboard-response,357,205477,0.0-357.0,3JV9LGBJWU0TSCKFE2VW0L87YXCOG2,A1JVO7FLPATHUB,30OITAWPBQP2Z1DQ5HPUZCTXABIH90,,,null,,,,,,,,
559.5,,image-keyboard-response,358,206038,0.0-358.0,3JV9LGBJWU0TSCKFE2VW0L87YXCOG2,A1JVO7FLPATHUB,30OITAWPBQP2Z1DQ5HPUZCTXABIH90,,img/set1/S3.jpg,72,3,structured_normal,72,"structured_normal,random,structured_incentive","1,2,2,3",TRUE,,
null,,html-keyboard-response,359,206389,0.0-359.0,3JV9LGBJWU0TSCKFE2VW0L87YXCOG2,A1JVO7FLPATHUB,30OITAWPBQP2Z1DQ5HPUZCTXABIH90,,"<img src=""img/set1/S3.jpg"" width=""540"" height = ""360"" style=""border:16px solid orange"">",null,,,,,,,,
null,,html-keyboard-response,360,206590,0.0-360.0,3JV9LGBJWU0TSCKFE2VW0L87YXCOG2,A1JVO7FLPATHUB,30OITAWPBQP2Z1DQ5HPUZCTXABIH90,,,null,,,,,,,,
611.5,,image-keyboard-response,361,207203,0.0-361.0,3JV9LGBJWU0TSCKFE2VW0L87YXCOG2,A1JVO7FLPATHUB,30OITAWPBQP2Z1DQ5HPUZCTXABIH90,,img/set1/S1.jpg,83,1,structured_normal,83,"structured_normal,random,structured_incentive","1,2,2,3",TRUE,,
null,,html-keyboard-response,362,207554,0.0-362.0,3JV9LGBJWU0TSCKFE2VW0L87YXCOG2,A1JVO7FLPATHUB,30OITAWPBQP2Z1DQ5HPUZCTXABIH90,,"<img src=""img/set1/S1.jpg"" width=""540"" height = ""360"" style=""border:16px solid orange"">",null,,,,,,,,
null,,html-keyboard-response,363,207755,0.0-363.0,3JV9LGBJWU0TSCKFE2VW0L87YXCOG2,A1JVO7FLPATHUB,30OITAWPBQP2Z1DQ5HPUZCTXABIH90,,,null,,,,,,,,
348.80000000447,,image-keyboard-response,364,208105,0.0-364.0,3JV9LGBJWU0TSCKFE2VW0L87YXCOG2,A1JVO7FLPATHUB,30OITAWPBQP2Z1DQ5HPUZCTXABIH90,,img/set1/S2.jpg,68,2,structured_normal,68,"structured_normal,random,structured_incentive","1,2,2,3",TRUE,,
null,,html-keyboard-response,365,208460,0.0-365.0,3JV9LGBJWU0TSCKFE2VW0L87YXCOG2,A1JVO7FLPATHUB,30OITAWPBQP2Z1DQ5HPUZCTXABIH90,,"<img src=""img/set1/S2.jpg"" width=""540"" height = ""360"" style=""border:16px solid orange"">",null,,,,,,,,
null,,html-keyboard-response,366,208661,0.0-366.0,3JV9LGBJWU0TSCKFE2VW0L87YXCOG2,A1JVO7FLPATHUB,30OITAWPBQP2Z1DQ5HPUZCTXABIH90,,,null,,,,,,,,
528.80000000447,,image-keyboard-response,367,209191,0.0-367.0,3JV9LGBJWU0TSCKFE2VW0L87YXCOG2,A1JVO7FLPATHUB,30OITAWPBQP2Z1DQ5HPUZCTXABIH90,,img/set1/S1.jpg,68,1,structured_normal,83,"structured_normal,random,structured_incentive","1,2,2,3",FALSE,,
null,,html-keyboard-response,368,209542,0.0-368.0,3JV9LGBJWU0TSCKFE2VW0L87YXCOG2,A1JVO7FLPATHUB,30OITAWPBQP2Z1DQ5HPUZCTXABIH90,,"<img src=""img/set1/S1.jpg"" width=""540"" height = ""360"">",null,,,,,,,,
null,,html-keyboard-response,369,209744,0.0-369.0,3JV9LGBJWU0TSCKFE2VW0L87YXCOG2,A1JVO7FLPATHUB,30OITAWPBQP2Z1DQ5HPUZCTXABIH90,,,null,,,,,,,,
414.80000000447,,image-keyboard-response,370,210159,0.0-370.0,3JV9LGBJWU0TSCKFE2VW0L87YXCOG2,A1JVO7FLPATHUB,30OITAWPBQP2Z1DQ5HPUZCTXABIH90,,img/set1/S2.jpg,68,2,structured_normal,68,"structured_normal,random,structured_incentive","1,2,2,3",TRUE,,
null,,html-keyboard-response,371,210510,0.0-371.0,3JV9LGBJWU0TSCKFE2VW0L87YXCOG2,A1JVO7FLPATHUB,30OITAWPBQP2Z1DQ5HPUZCTXABIH90,,"<img src=""img/set1/S2.jpg"" width=""540"" height = ""360"" style=""border:16px solid orange"">",null,,,,,,,,
null,,html-keyboard-response,372,210712,0.0-372.0,3JV9LGBJWU0TSCKFE2VW0L87YXCOG2,A1JVO7FLPATHUB,30OITAWPBQP2Z1DQ5HPUZCTXABIH90,,,null,,,,,,,,
418.30000000447,,image-keyboard-response,373,211131,0.0-373.0,3JV9LGBJWU0TSCKFE2VW0L87YXCOG2,A1JVO7FLPATHUB,30OITAWPBQP2Z1DQ5HPUZCTXABIH90,,img/set1/S3.jpg,72,3,structured_normal,72,"structured_normal,random,structured_incentive","1,2,2,3",TRUE,,
null,,html-keyboard-response,374,211482,0.0-374.0,3JV9LGBJWU0TSCKFE2VW0L87YXCOG2,A1JVO7FLPATHUB,30OITAWPBQP2Z1DQ5HPUZCTXABIH90,,"<img src=""img/set1/S3.jpg"" width=""540"" height = ""360"" style=""border:16px solid orange"">",null,,,,,,,,
null,,html-keyboard-response,375,211684,0.0-375.0,3JV9LGBJWU0TSCKFE2VW0L87YXCOG2,A1JVO7FLPATHUB,30OITAWPBQP2Z1DQ5HPUZCTXABIH90,,,null,,,,,,,,
364.79999999702,,image-keyboard-response,376,212049,0.0-376.0,3JV9LGBJWU0TSCKFE2VW0L87YXCOG2,A1JVO7FLPATHUB,30OITAWPBQP2Z1DQ5HPUZCTXABIH90,,img/set1/S3.jpg,72,3,structured_normal,72,"structured_normal,random,structured_incentive","1,2,2,3",TRUE,,
null,,html-keyboard-response,377,212401,0.0-377.0,3JV9LGBJWU0TSCKFE2VW0L87YXCOG2,A1JVO7FLPATHUB,30OITAWPBQP2Z1DQ5HPUZCTXABIH90,,"<img src=""img/set1/S3.jpg"" width=""540"" height = ""360"" style=""border:16px solid orange"">",null,,,,,,,,
null,,html-keyboard-response,378,212603,0.0-378.0,3JV9LGBJWU0TSCKFE2VW0L87YXCOG2,A1JVO7FLPATHUB,30OITAWPBQP2Z1DQ5HPUZCTXABIH90,,,null,,,,,,,,
415.19999999553,,image-keyboard-response,379,213019,0.0-379.0,3JV9LGBJWU0TSCKFE2VW0L87YXCOG2,A1JVO7FLPATHUB,30OITAWPBQP2Z1DQ5HPUZCTXABIH90,,img/set1/S2.jpg,83,2,structured_normal,68,"structured_normal,random,structured_incentive","1,2,2,3",FALSE,,
null,,html-keyboard-response,380,213371,0.0-380.0,3JV9LGBJWU0TSCKFE2VW0L87YXCOG2,A1JVO7FLPATHUB,30OITAWPBQP2Z1DQ5HPUZCTXABIH90,,"<img src=""img/set1/S2.jpg"" width=""540"" height = ""360"">",null,,,,,,,,
null,,html-keyboard-response,381,213572,0.0-381.0,3JV9LGBJWU0TSCKFE2VW0L87YXCOG2,A1JVO7FLPATHUB,30OITAWPBQP2Z1DQ5HPUZCTXABIH90,,,null,,,,,,,,
539.29999999702,,image-keyboard-response,382,214113,0.0-382.0,3JV9LGBJWU0TSCKFE2VW0L87YXCOG2,A1JVO7FLPATHUB,30OITAWPBQP2Z1DQ5HPUZCTXABIH90,,img/set1/S3.jpg,72,3,structured_normal,72,"structured_normal,random,structured_incentive","1,2,2,3",TRUE,,
null,,html-keyboard-response,383,214464,0.0-383.0,3JV9LGBJWU0TSCKFE2VW0L87YXCOG2,A1JVO7FLPATHUB,30OITAWPBQP2Z1DQ5HPUZCTXABIH90,,"<img src=""img/set1/S3.jpg"" width=""540"" height = ""360"" style=""border:16px solid orange"">",null,,,,,,,,
null,,html-keyboard-response,384,214665,0.0-384.0,3JV9LGBJWU0TSCKFE2VW0L87YXCOG2,A1JVO7FLPATHUB,30OITAWPBQP2Z1DQ5HPUZCTXABIH90,,,null,,,,,,,,
563.20000000298,,image-keyboard-response,385,215229,0.0-385.0,3JV9LGBJWU0TSCKFE2VW0L87YXCOG2,A1JVO7FLPATHUB,30OITAWPBQP2Z1DQ5HPUZCTXABIH90,,img/set1/S4.jpg,74,4,structured_normal,74,"structured_normal,random,structured_incentive","1,2,2,3",TRUE,,
null,,html-keyboard-response,386,215581,0.0-386.0,3JV9LGBJWU0TSCKFE2VW0L87YXCOG2,A1JVO7FLPATHUB,30OITAWPBQP2Z1DQ5HPUZCTXABIH90,,"<img src=""img/set1/S4.jpg"" width=""540"" height = ""360"" style=""border:16px solid orange"">",null,,,,,,,,
null,,html-keyboard-response,387,215782,0.0-387.0,3JV9LGBJWU0TSCKFE2VW0L87YXCOG2,A1JVO7FLPATHUB,30OITAWPBQP2Z1DQ5HPUZCTXABIH90,,,null,,,,,,,,
697.89999999851,,image-keyboard-response,388,216481,0.0-388.0,3JV9LGBJWU0TSCKFE2VW0L87YXCOG2,A1JVO7FLPATHUB,30OITAWPBQP2Z1DQ5HPUZCTXABIH90,,img/set1/S3.jpg,72,3,structured_normal,72,"structured_normal,random,structured_incentive","1,2,2,3",TRUE,,
null,,html-keyboard-response,389,216833,0.0-389.0,3JV9LGBJWU0TSCKFE2VW0L87YXCOG2,A1JVO7FLPATHUB,30OITAWPBQP2Z1DQ5HPUZCTXABIH90,,"<img src=""img/set1/S3.jpg"" width=""540"" height = ""360"" style=""border:16px solid orange"">",null,,,,,,,,
null,,html-keyboard-response,390,217034,0.0-390.0,3JV9LGBJWU0TSCKFE2VW0L87YXCOG2,A1JVO7FLPATHUB,30OITAWPBQP2Z1DQ5HPUZCTXABIH90,,,null,,,,,,,,
346.29999999702,,image-keyboard-response,391,217381,0.0-391.0,3JV9LGBJWU0TSCKFE2VW0L87YXCOG2,A1JVO7FLPATHUB,30OITAWPBQP2Z1DQ5HPUZCTXABIH90,,img/set1/S3.jpg,72,3,structured_normal,72,"structured_normal,random,structured_incentive","1,2,2,3",TRUE,,
null,,html-keyboard-response,392,217733,0.0-392.0,3JV9LGBJWU0TSCKFE2VW0L87YXCOG2,A1JVO7FLPATHUB,30OITAWPBQP2Z1DQ5HPUZCTXABIH90,,"<img src=""img/set1/S3.jpg"" width=""540"" height = ""360"" style=""border:16px solid orange"">",null,,,,,,,,
null,,html-keyboard-response,393,217934,0.0-393.0,3JV9LGBJWU0TSCKFE2VW0L87YXCOG2,A1JVO7FLPATHUB,30OITAWPBQP2Z1DQ5HPUZCTXABIH90,,,null,,,,,,,,
495.10000000149,,image-keyboard-response,394,218430,0.0-394.0,3JV9LGBJWU0TSCKFE2VW0L87YXCOG2,A1JVO7FLPATHUB,30OITAWPBQP2Z1DQ5HPUZCTXABIH90,,img/set1/S4.jpg,74,4,structured_normal,74,"structured_normal,random,structured_incentive","1,2,2,3",TRUE,,
null,,html-keyboard-response,395,218782,0.0-395.0,3JV9LGBJWU0TSCKFE2VW0L87YXCOG2,A1JVO7FLPATHUB,30OITAWPBQP2Z1DQ5HPUZCTXABIH90,,"<img src=""img/set1/S4.jpg"" width=""540"" height = ""360"" style=""border:16px solid orange"">",null,,,,,,,,
null,,html-keyboard-response,396,218984,0.0-396.0,3JV9LGBJWU0TSCKFE2VW0L87YXCOG2,A1JVO7FLPATHUB,30OITAWPBQP2Z1DQ5HPUZCTXABIH90,,,null,,,,,,,,
633.70000000298,,image-keyboard-response,397,219618,0.0-397.0,3JV9LGBJWU0TSCKFE2VW0L87YXCOG2,A1JVO7FLPATHUB,30OITAWPBQP2Z1DQ5HPUZCTXABIH90,,img/set1/S3.jpg,72,3,structured_normal,72,"structured_normal,random,structured_incentive","1,2,2,3",TRUE,,
null,,html-keyboard-response,398,219970,0.0-398.0,3JV9LGBJWU0TSCKFE2VW0L87YXCOG2,A1JVO7FLPATHUB,30OITAWPBQP2Z1DQ5HPUZCTXABIH90,,"<img src=""img/set1/S3.jpg"" width=""540"" height = ""360"" style=""border:16px solid orange"">",null,,,,,,,,
null,,html-keyboard-response,399,220171,0.0-399.0,3JV9LGBJWU0TSCKFE2VW0L87YXCOG2,A1JVO7FLPATHUB,30OITAWPBQP2Z1DQ5HPUZCTXABIH90,,,null,,,,,,,,
345,,image-keyboard-response,400,220516,0.0-400.0,3JV9LGBJWU0TSCKFE2VW0L87YXCOG2,A1JVO7FLPATHUB,30OITAWPBQP2Z1DQ5HPUZCTXABIH90,,img/set1/S3.jpg,72,3,structured_normal,72,"structured_normal,random,structured_incentive","1,2,2,3",TRUE,,
null,,html-keyboard-response,401,220867,0.0-401.0,3JV9LGBJWU0TSCKFE2VW0L87YXCOG2,A1JVO7FLPATHUB,30OITAWPBQP2Z1DQ5HPUZCTXABIH90,,"<img src=""img/set1/S3.jpg"" width=""540"" height = ""360"" style=""border:16px solid orange"">",null,,,,,,,,
null,,html-keyboard-response,402,221069,0.0-402.0,3JV9LGBJWU0TSCKFE2VW0L87YXCOG2,A1JVO7FLPATHUB,30OITAWPBQP2Z1DQ5HPUZCTXABIH90,,,null,,,,,,,,
337.09999999404,,image-keyboard-response,403,221406,0.0-403.0,3JV9LGBJWU0TSCKFE2VW0L87YXCOG2,A1JVO7FLPATHUB,30OITAWPBQP2Z1DQ5HPUZCTXABIH90,,img/set1/S3.jpg,72,3,structured_normal,72,"structured_normal,random,structured_incentive","1,2,2,3",TRUE,,
null,,html-keyboard-response,404,221757,0.0-404.0,3JV9LGBJWU0TSCKFE2VW0L87YXCOG2,A1JVO7FLPATHUB,30OITAWPBQP2Z1DQ5HPUZCTXABIH90,,"<img src=""img/set1/S3.jpg"" width=""540"" height = ""360"" style=""border:16px solid orange"">",null,,,,,,,,
null,,html-keyboard-response,405,221958,0.0-405.0,3JV9LGBJWU0TSCKFE2VW0L87YXCOG2,A1JVO7FLPATHUB,30OITAWPBQP2Z1DQ5HPUZCTXABIH90,,,null,,,,,,,,
595.70000000298,,image-keyboard-response,406,222555,0.0-406.0,3JV9LGBJWU0TSCKFE2VW0L87YXCOG2,A1JVO7FLPATHUB,30OITAWPBQP2Z1DQ5HPUZCTXABIH90,,img/set1/S1.jpg,83,1,structured_normal,83,"structured_normal,random,structured_incentive","1,2,2,3",TRUE,,
null,,html-keyboard-response,407,222906,0.0-407.0,3JV9LGBJWU0TSCKFE2VW0L87YXCOG2,A1JVO7FLPATHUB,30OITAWPBQP2Z1DQ5HPUZCTXABIH90,,"<img src=""img/set1/S1.jpg"" width=""540"" height = ""360"" style=""border:16px solid orange"">",null,,,,,,,,
null,,html-keyboard-response,408,223108,0.0-408.0,3JV9LGBJWU0TSCKFE2VW0L87YXCOG2,A1JVO7FLPATHUB,30OITAWPBQP2Z1DQ5HPUZCTXABIH90,,,null,,,,,,,,
379.5,,image-keyboard-response,409,223488,0.0-409.0,3JV9LGBJWU0TSCKFE2VW0L87YXCOG2,A1JVO7FLPATHUB,30OITAWPBQP2Z1DQ5HPUZCTXABIH90,,img/set1/S2.jpg,68,2,structured_normal,68,"structured_normal,random,structured_incentive","1,2,2,3",TRUE,,
null,,html-keyboard-response,410,223842,0.0-410.0,3JV9LGBJWU0TSCKFE2VW0L87YXCOG2,A1JVO7FLPATHUB,30OITAWPBQP2Z1DQ5HPUZCTXABIH90,,"<img src=""img/set1/S2.jpg"" width=""540"" height = ""360"" style=""border:16px solid orange"">",null,,,,,,,,
null,,html-keyboard-response,411,224043,0.0-411.0,3JV9LGBJWU0TSCKFE2VW0L87YXCOG2,A1JVO7FLPATHUB,30OITAWPBQP2Z1DQ5HPUZCTXABIH90,,,null,,,,,,,,
674.29999999702,,image-keyboard-response,412,224718,0.0-412.0,3JV9LGBJWU0TSCKFE2VW0L87YXCOG2,A1JVO7FLPATHUB,30OITAWPBQP2Z1DQ5HPUZCTXABIH90,,img/set1/S4.jpg,74,4,structured_normal,74,"structured_normal,random,structured_incentive","1,2,2,3",TRUE,,
null,,html-keyboard-response,413,225070,0.0-413.0,3JV9LGBJWU0TSCKFE2VW0L87YXCOG2,A1JVO7FLPATHUB,30OITAWPBQP2Z1DQ5HPUZCTXABIH90,,"<img src=""img/set1/S4.jpg"" width=""540"" height = ""360"" style=""border:16px solid orange"">",null,,,,,,,,
null,,html-keyboard-response,414,225272,0.0-414.0,3JV9LGBJWU0TSCKFE2VW0L87YXCOG2,A1JVO7FLPATHUB,30OITAWPBQP2Z1DQ5HPUZCTXABIH90,,,null,,,,,,,,
530.60000000149,,image-keyboard-response,415,225804,0.0-415.0,3JV9LGBJWU0TSCKFE2VW0L87YXCOG2,A1JVO7FLPATHUB,30OITAWPBQP2Z1DQ5HPUZCTXABIH90,,img/set1/S3.jpg,72,3,structured_normal,72,"structured_normal,random,structured_incentive","1,2,2,3",TRUE,,
null,,html-keyboard-response,416,226156,0.0-416.0,3JV9LGBJWU0TSCKFE2VW0L87YXCOG2,A1JVO7FLPATHUB,30OITAWPBQP2Z1DQ5HPUZCTXABIH90,,"<img src=""img/set1/S3.jpg"" width=""540"" height = ""360"" style=""border:16px solid orange"">",null,,,,,,,,
null,,html-keyboard-response,417,226358,0.0-417.0,3JV9LGBJWU0TSCKFE2VW0L87YXCOG2,A1JVO7FLPATHUB,30OITAWPBQP2Z1DQ5HPUZCTXABIH90,,,null,,,,,,,,
459.60000000149,,image-keyboard-response,418,226818,0.0-418.0,3JV9LGBJWU0TSCKFE2VW0L87YXCOG2,A1JVO7FLPATHUB,30OITAWPBQP2Z1DQ5HPUZCTXABIH90,,img/set1/S4.jpg,72,4,structured_normal,74,"structured_normal,random,structured_incentive","1,2,2,3",FALSE,,
null,,html-keyboard-response,419,227176,0.0-419.0,3JV9LGBJWU0TSCKFE2VW0L87YXCOG2,A1JVO7FLPATHUB,30OITAWPBQP2Z1DQ5HPUZCTXABIH90,,"<img src=""img/set1/S4.jpg"" width=""540"" height = ""360"">",null,,,,,,,,
null,,html-keyboard-response,420,227377,0.0-420.0,3JV9LGBJWU0TSCKFE2VW0L87YXCOG2,A1JVO7FLPATHUB,30OITAWPBQP2Z1DQ5HPUZCTXABIH90,,,null,,,,,,,,
660.79999999702,,image-keyboard-response,421,228038,0.0-421.0,3JV9LGBJWU0TSCKFE2VW0L87YXCOG2,A1JVO7FLPATHUB,30OITAWPBQP2Z1DQ5HPUZCTXABIH90,,img/set1/S1.jpg,83,1,structured_normal,83,"structured_normal,random,structured_incentive","1,2,2,3",TRUE,,
null,,html-keyboard-response,422,228390,0.0-422.0,3JV9LGBJWU0TSCKFE2VW0L87YXCOG2,A1JVO7FLPATHUB,30OITAWPBQP2Z1DQ5HPUZCTXABIH90,,"<img src=""img/set1/S1.jpg"" width=""540"" height = ""360"" style=""border:16px solid orange"">",null,,,,,,,,
null,,html-keyboard-response,423,228591,0.0-423.0,3JV9LGBJWU0TSCKFE2VW0L87YXCOG2,A1JVO7FLPATHUB,30OITAWPBQP2Z1DQ5HPUZCTXABIH90,,,null,,,,,,,,
380.60000000149,,image-keyboard-response,424,228972,0.0-424.0,3JV9LGBJWU0TSCKFE2VW0L87YXCOG2,A1JVO7FLPATHUB,30OITAWPBQP2Z1DQ5HPUZCTXABIH90,,img/set1/S2.jpg,68,2,structured_normal,68,"structured_normal,random,structured_incentive","1,2,2,3",TRUE,,
null,,html-keyboard-response,425,229324,0.0-425.0,3JV9LGBJWU0TSCKFE2VW0L87YXCOG2,A1JVO7FLPATHUB,30OITAWPBQP2Z1DQ5HPUZCTXABIH90,,"<img src=""img/set1/S2.jpg"" width=""540"" height = ""360"" style=""border:16px solid orange"">",null,,,,,,,,
null,,html-keyboard-response,426,229525,0.0-426.0,3JV9LGBJWU0TSCKFE2VW0L87YXCOG2,A1JVO7FLPATHUB,30OITAWPBQP2Z1DQ5HPUZCTXABIH90,,,null,,,,,,,,
585.39999999851,,image-keyboard-response,427,230111,0.0-427.0,3JV9LGBJWU0TSCKFE2VW0L87YXCOG2,A1JVO7FLPATHUB,30OITAWPBQP2Z1DQ5HPUZCTXABIH90,,img/set1/S4.jpg,74,4,structured_normal,74,"structured_normal,random,structured_incentive","1,2,2,3",TRUE,,
null,,html-keyboard-response,428,230463,0.0-428.0,3JV9LGBJWU0TSCKFE2VW0L87YXCOG2,A1JVO7FLPATHUB,30OITAWPBQP2Z1DQ5HPUZCTXABIH90,,"<img src=""img/set1/S4.jpg"" width=""540"" height = ""360"" style=""border:16px solid orange"">",null,,,,,,,,
null,,html-keyboard-response,429,230664,0.0-429.0,3JV9LGBJWU0TSCKFE2VW0L87YXCOG2,A1JVO7FLPATHUB,30OITAWPBQP2Z1DQ5HPUZCTXABIH90,,,null,,,,,,,,
363,,image-keyboard-response,430,231028,0.0-430.0,3JV9LGBJWU0TSCKFE2VW0L87YXCOG2,A1JVO7FLPATHUB,30OITAWPBQP2Z1DQ5HPUZCTXABIH90,,img/set1/S4.jpg,74,4,structured_normal,74,"structured_normal,random,structured_incentive","1,2,2,3",TRUE,,
null,,html-keyboard-response,431,231379,0.0-431.0,3JV9LGBJWU0TSCKFE2VW0L87YXCOG2,A1JVO7FLPATHUB,30OITAWPBQP2Z1DQ5HPUZCTXABIH90,,"<img src=""img/set1/S4.jpg"" width=""540"" height = ""360"" style=""border:16px solid orange"">",null,,,,,,,,
null,,html-keyboard-response,432,231580,0.0-432.0,3JV9LGBJWU0TSCKFE2VW0L87YXCOG2,A1JVO7FLPATHUB,30OITAWPBQP2Z1DQ5HPUZCTXABIH90,,,null,,,,,,,,
282.89999999851,,image-keyboard-response,433,231864,0.0-433.0,3JV9LGBJWU0TSCKFE2VW0L87YXCOG2,A1JVO7FLPATHUB,30OITAWPBQP2Z1DQ5HPUZCTXABIH90,,img/set1/S4.jpg,74,4,structured_normal,74,"structured_normal,random,structured_incentive","1,2,2,3",TRUE,,
null,,html-keyboard-response,434,232215,0.0-434.0,3JV9LGBJWU0TSCKFE2VW0L87YXCOG2,A1JVO7FLPATHUB,30OITAWPBQP2Z1DQ5HPUZCTXABIH90,,"<img src=""img/set1/S4.jpg"" width=""540"" height = ""360"" style=""border:16px solid orange"">",null,,,,,,,,
null,,html-keyboard-response,435,232416,0.0-435.0,3JV9LGBJWU0TSCKFE2VW0L87YXCOG2,A1JVO7FLPATHUB,30OITAWPBQP2Z1DQ5HPUZCTXABIH90,,,null,,,,,,,,
479,,image-keyboard-response,436,232896,0.0-436.0,3JV9LGBJWU0TSCKFE2VW0L87YXCOG2,A1JVO7FLPATHUB,30OITAWPBQP2Z1DQ5HPUZCTXABIH90,,img/set1/S1.jpg,83,1,structured_normal,83,"structured_normal,random,structured_incentive","1,2,2,3",TRUE,,
null,,html-keyboard-response,437,233248,0.0-437.0,3JV9LGBJWU0TSCKFE2VW0L87YXCOG2,A1JVO7FLPATHUB,30OITAWPBQP2Z1DQ5HPUZCTXABIH90,,"<img src=""img/set1/S1.jpg"" width=""540"" height = ""360"" style=""border:16px solid orange"">",null,,,,,,,,
null,,html-keyboard-response,438,233449,0.0-438.0,3JV9LGBJWU0TSCKFE2VW0L87YXCOG2,A1JVO7FLPATHUB,30OITAWPBQP2Z1DQ5HPUZCTXABIH90,,,null,,,,,,,,
380.30000000447,,image-keyboard-response,439,233830,0.0-439.0,3JV9LGBJWU0TSCKFE2VW0L87YXCOG2,A1JVO7FLPATHUB,30OITAWPBQP2Z1DQ5HPUZCTXABIH90,,img/set1/S2.jpg,68,2,structured_normal,68,"structured_normal,random,structured_incentive","1,2,2,3",TRUE,,
null,,html-keyboard-response,440,234181,0.0-440.0,3JV9LGBJWU0TSCKFE2VW0L87YXCOG2,A1JVO7FLPATHUB,30OITAWPBQP2Z1DQ5HPUZCTXABIH90,,"<img src=""img/set1/S2.jpg"" width=""540"" height = ""360"" style=""border:16px solid orange"">",null,,,,,,,,
null,,html-keyboard-response,441,234383,0.0-441.0,3JV9LGBJWU0TSCKFE2VW0L87YXCOG2,A1JVO7FLPATHUB,30OITAWPBQP2Z1DQ5HPUZCTXABIH90,,,null,,,,,,,,
587.69999999553,,image-keyboard-response,442,234971,0.0-442.0,3JV9LGBJWU0TSCKFE2VW0L87YXCOG2,A1JVO7FLPATHUB,30OITAWPBQP2Z1DQ5HPUZCTXABIH90,,img/set1/S1.jpg,83,1,structured_normal,83,"structured_normal,random,structured_incentive","1,2,2,3",TRUE,,
null,,html-keyboard-response,443,235322,0.0-443.0,3JV9LGBJWU0TSCKFE2VW0L87YXCOG2,A1JVO7FLPATHUB,30OITAWPBQP2Z1DQ5HPUZCTXABIH90,,"<img src=""img/set1/S1.jpg"" width=""540"" height = ""360"" style=""border:16px solid orange"">",null,,,,,,,,
null,,html-keyboard-response,444,235529,0.0-444.0,3JV9LGBJWU0TSCKFE2VW0L87YXCOG2,A1JVO7FLPATHUB,30OITAWPBQP2Z1DQ5HPUZCTXABIH90,,,null,,,,,,,,
369,,image-keyboard-response,445,235899,0.0-445.0,3JV9LGBJWU0TSCKFE2VW0L87YXCOG2,A1JVO7FLPATHUB,30OITAWPBQP2Z1DQ5HPUZCTXABIH90,,img/set1/S2.jpg,68,2,structured_normal,68,"structured_normal,random,structured_incentive","1,2,2,3",TRUE,,
null,,html-keyboard-response,446,236252,0.0-446.0,3JV9LGBJWU0TSCKFE2VW0L87YXCOG2,A1JVO7FLPATHUB,30OITAWPBQP2Z1DQ5HPUZCTXABIH90,,"<img src=""img/set1/S2.jpg"" width=""540"" height = ""360"" style=""border:16px solid orange"">",null,,,,,,,,
null,,html-keyboard-response,447,236453,0.0-447.0,3JV9LGBJWU0TSCKFE2VW0L87YXCOG2,A1JVO7FLPATHUB,30OITAWPBQP2Z1DQ5HPUZCTXABIH90,,,null,,,,,,,,
481.89999999851,,image-keyboard-response,448,236935,0.0-448.0,3JV9LGBJWU0TSCKFE2VW0L87YXCOG2,A1JVO7FLPATHUB,30OITAWPBQP2Z1DQ5HPUZCTXABIH90,,img/set1/S3.jpg,72,3,structured_normal,72,"structured_normal,random,structured_incentive","1,2,2,3",TRUE,,
null,,html-keyboard-response,449,237287,0.0-449.0,3JV9LGBJWU0TSCKFE2VW0L87YXCOG2,A1JVO7FLPATHUB,30OITAWPBQP2Z1DQ5HPUZCTXABIH90,,"<img src=""img/set1/S3.jpg"" width=""540"" height = ""360"" style=""border:16px solid orange"">",null,,,,,,,,
null,,html-keyboard-response,450,237488,0.0-450.0,3JV9LGBJWU0TSCKFE2VW0L87YXCOG2,A1JVO7FLPATHUB,30OITAWPBQP2Z1DQ5HPUZCTXABIH90,,,null,,,,,,,,
461,,image-keyboard-response,451,237949,0.0-451.0,3JV9LGBJWU0TSCKFE2VW0L87YXCOG2,A1JVO7FLPATHUB,30OITAWPBQP2Z1DQ5HPUZCTXABIH90,,img/set1/S1.jpg,83,1,structured_normal,83,"structured_normal,random,structured_incentive","1,2,2,3",TRUE,,
null,,html-keyboard-response,452,238301,0.0-452.0,3JV9LGBJWU0TSCKFE2VW0L87YXCOG2,A1JVO7FLPATHUB,30OITAWPBQP2Z1DQ5HPUZCTXABIH90,,"<img src=""img/set1/S1.jpg"" width=""540"" height = ""360"" style=""border:16px solid orange"">",null,,,,,,,,
null,,html-keyboard-response,453,238502,0.0-453.0,3JV9LGBJWU0TSCKFE2VW0L87YXCOG2,A1JVO7FLPATHUB,30OITAWPBQP2Z1DQ5HPUZCTXABIH90,,,null,,,,,,,,
420.19999999553,,image-keyboard-response,454,238924,0.0-454.0,3JV9LGBJWU0TSCKFE2VW0L87YXCOG2,A1JVO7FLPATHUB,30OITAWPBQP2Z1DQ5HPUZCTXABIH90,,img/set1/S2.jpg,68,2,structured_normal,68,"structured_normal,random,structured_incentive","1,2,2,3",TRUE,,
null,,html-keyboard-response,455,239275,0.0-455.0,3JV9LGBJWU0TSCKFE2VW0L87YXCOG2,A1JVO7FLPATHUB,30OITAWPBQP2Z1DQ5HPUZCTXABIH90,,"<img src=""img/set1/S2.jpg"" width=""540"" height = ""360"" style=""border:16px solid orange"">",null,,,,,,,,
null,,html-keyboard-response,456,239476,0.0-456.0,3JV9LGBJWU0TSCKFE2VW0L87YXCOG2,A1JVO7FLPATHUB,30OITAWPBQP2Z1DQ5HPUZCTXABIH90,,,null,,,,,,,,
441.80000000447,,image-keyboard-response,457,239919,0.0-457.0,3JV9LGBJWU0TSCKFE2VW0L87YXCOG2,A1JVO7FLPATHUB,30OITAWPBQP2Z1DQ5HPUZCTXABIH90,,img/set1/S4.jpg,72,4,structured_normal,74,"structured_normal,random,structured_incentive","1,2,2,3",FALSE,,
null,,html-keyboard-response,458,240271,0.0-458.0,3JV9LGBJWU0TSCKFE2VW0L87YXCOG2,A1JVO7FLPATHUB,30OITAWPBQP2Z1DQ5HPUZCTXABIH90,,"<img src=""img/set1/S4.jpg"" width=""540"" height = ""360"">",null,,,,,,,,
null,,html-keyboard-response,459,240472,0.0-459.0,3JV9LGBJWU0TSCKFE2VW0L87YXCOG2,A1JVO7FLPATHUB,30OITAWPBQP2Z1DQ5HPUZCTXABIH90,,,null,,,,,,,,
583.60000000149,,image-keyboard-response,460,241057,0.0-460.0,3JV9LGBJWU0TSCKFE2VW0L87YXCOG2,A1JVO7FLPATHUB,30OITAWPBQP2Z1DQ5HPUZCTXABIH90,,img/set1/S1.jpg,83,1,structured_normal,83,"structured_normal,random,structured_incentive","1,2,2,3",TRUE,,
null,,html-keyboard-response,461,241408,0.0-461.0,3JV9LGBJWU0TSCKFE2VW0L87YXCOG2,A1JVO7FLPATHUB,30OITAWPBQP2Z1DQ5HPUZCTXABIH90,,"<img src=""img/set1/S1.jpg"" width=""540"" height = ""360"" style=""border:16px solid orange"">",null,,,,,,,,
null,,html-keyboard-response,462,241609,0.0-462.0,3JV9LGBJWU0TSCKFE2VW0L87YXCOG2,A1JVO7FLPATHUB,30OITAWPBQP2Z1DQ5HPUZCTXABIH90,,,null,,,,,,,,
577.19999999553,,image-keyboard-response,463,242187,0.0-463.0,3JV9LGBJWU0TSCKFE2VW0L87YXCOG2,A1JVO7FLPATHUB,30OITAWPBQP2Z1DQ5HPUZCTXABIH90,,img/set1/S3.jpg,72,3,structured_normal,72,"structured_normal,random,structured_incentive","1,2,2,3",TRUE,,
null,,html-keyboard-response,464,242539,0.0-464.0,3JV9LGBJWU0TSCKFE2VW0L87YXCOG2,A1JVO7FLPATHUB,30OITAWPBQP2Z1DQ5HPUZCTXABIH90,,"<img src=""img/set1/S3.jpg"" width=""540"" height = ""360"" style=""border:16px solid orange"">",null,,,,,,,,
null,,html-keyboard-response,465,242740,0.0-465.0,3JV9LGBJWU0TSCKFE2VW0L87YXCOG2,A1JVO7FLPATHUB,30OITAWPBQP2Z1DQ5HPUZCTXABIH90,,,null,,,,,,,,
457.89999999851,,image-keyboard-response,466,243199,0.0-466.0,3JV9LGBJWU0TSCKFE2VW0L87YXCOG2,A1JVO7FLPATHUB,30OITAWPBQP2Z1DQ5HPUZCTXABIH90,,img/set1/S1.jpg,74,1,structured_normal,83,"structured_normal,random,structured_incentive","1,2,2,3",FALSE,,
null,,html-keyboard-response,467,243551,0.0-467.0,3JV9LGBJWU0TSCKFE2VW0L87YXCOG2,A1JVO7FLPATHUB,30OITAWPBQP2Z1DQ5HPUZCTXABIH90,,"<img src=""img/set1/S1.jpg"" width=""540"" height = ""360"">",null,,,,,,,,
null,,html-keyboard-response,468,243752,0.0-468.0,3JV9LGBJWU0TSCKFE2VW0L87YXCOG2,A1JVO7FLPATHUB,30OITAWPBQP2Z1DQ5HPUZCTXABIH90,,,null,,,,,,,,
552.10000000149,,image-keyboard-response,469,244305,0.0-469.0,3JV9LGBJWU0TSCKFE2VW0L87YXCOG2,A1JVO7FLPATHUB,30OITAWPBQP2Z1DQ5HPUZCTXABIH90,,img/set1/S3.jpg,72,3,structured_normal,72,"structured_normal,random,structured_incentive","1,2,2,3",TRUE,,
null,,html-keyboard-response,470,244657,0.0-470.0,3JV9LGBJWU0TSCKFE2VW0L87YXCOG2,A1JVO7FLPATHUB,30OITAWPBQP2Z1DQ5HPUZCTXABIH90,,"<img src=""img/set1/S3.jpg"" width=""540"" height = ""360"" style=""border:16px solid orange"">",null,,,,,,,,
null,,html-keyboard-response,471,244859,0.0-471.0,3JV9LGBJWU0TSCKFE2VW0L87YXCOG2,A1JVO7FLPATHUB,30OITAWPBQP2Z1DQ5HPUZCTXABIH90,,,null,,,,,,,,
367,,image-keyboard-response,472,245227,0.0-472.0,3JV9LGBJWU0TSCKFE2VW0L87YXCOG2,A1JVO7FLPATHUB,30OITAWPBQP2Z1DQ5HPUZCTXABIH90,,img/set1/S3.jpg,72,3,structured_normal,72,"structured_normal,random,structured_incentive","1,2,2,3",TRUE,,
null,,html-keyboard-response,473,245579,0.0-473.0,3JV9LGBJWU0TSCKFE2VW0L87YXCOG2,A1JVO7FLPATHUB,30OITAWPBQP2Z1DQ5HPUZCTXABIH90,,"<img src=""img/set1/S3.jpg"" width=""540"" height = ""360"" style=""border:16px solid orange"">",null,,,,,,,,
null,,html-keyboard-response,474,245780,0.0-474.0,3JV9LGBJWU0TSCKFE2VW0L87YXCOG2,A1JVO7FLPATHUB,30OITAWPBQP2Z1DQ5HPUZCTXABIH90,,,null,,,,,,,,
474.10000000149,,image-keyboard-response,475,246254,0.0-475.0,3JV9LGBJWU0TSCKFE2VW0L87YXCOG2,A1JVO7FLPATHUB,30OITAWPBQP2Z1DQ5HPUZCTXABIH90,,img/set1/S4.jpg,74,4,structured_normal,74,"structured_normal,random,structured_incentive","1,2,2,3",TRUE,,
null,,html-keyboard-response,476,246606,0.0-476.0,3JV9LGBJWU0TSCKFE2VW0L87YXCOG2,A1JVO7FLPATHUB,30OITAWPBQP2Z1DQ5HPUZCTXABIH90,,"<img src=""img/set1/S4.jpg"" width=""540"" height = ""360"" style=""border:16px solid orange"">",null,,,,,,,,
null,,html-keyboard-response,477,246806,0.0-477.0,3JV9LGBJWU0TSCKFE2VW0L87YXCOG2,A1JVO7FLPATHUB,30OITAWPBQP2Z1DQ5HPUZCTXABIH90,,,null,,,,,,,,
605.5,,image-keyboard-response,478,247413,0.0-478.0,3JV9LGBJWU0TSCKFE2VW0L87YXCOG2,A1JVO7FLPATHUB,30OITAWPBQP2Z1DQ5HPUZCTXABIH90,,img/set1/S1.jpg,83,1,structured_normal,83,"structured_normal,random,structured_incentive","1,2,2,3",TRUE,,
null,,html-keyboard-response,479,247764,0.0-479.0,3JV9LGBJWU0TSCKFE2VW0L87YXCOG2,A1JVO7FLPATHUB,30OITAWPBQP2Z1DQ5HPUZCTXABIH90,,"<img src=""img/set1/S1.jpg"" width=""540"" height = ""360"" style=""border:16px solid orange"">",null,,,,,,,,
null,,html-keyboard-response,480,247965,0.0-480.0,3JV9LGBJWU0TSCKFE2VW0L87YXCOG2,A1JVO7FLPATHUB,30OITAWPBQP2Z1DQ5HPUZCTXABIH90,,,null,,,,,,,,
656.79999999702,,image-keyboard-response,481,248623,0.0-481.0,3JV9LGBJWU0TSCKFE2VW0L87YXCOG2,A1JVO7FLPATHUB,30OITAWPBQP2Z1DQ5HPUZCTXABIH90,,img/set1/S2.jpg,68,2,structured_normal,68,"structured_normal,random,structured_incentive","1,2,2,3",TRUE,,
null,,html-keyboard-response,482,248975,0.0-482.0,3JV9LGBJWU0TSCKFE2VW0L87YXCOG2,A1JVO7FLPATHUB,30OITAWPBQP2Z1DQ5HPUZCTXABIH90,,"<img src=""img/set1/S2.jpg"" width=""540"" height = ""360"" style=""border:16px solid orange"">",null,,,,,,,,
null,,html-keyboard-response,483,249176,0.0-483.0,3JV9LGBJWU0TSCKFE2VW0L87YXCOG2,A1JVO7FLPATHUB,30OITAWPBQP2Z1DQ5HPUZCTXABIH90,,,null,,,,,,,,
