"rt","url","trial_type","trial_index","time_elapsed","internal_node_id","assignmentID","mturkID","hitID","view_history","stimulus","key_press","state","test_part","correct_response","order_block","order_chunk","order_freq","correct","responses","question_order","bonus"
"8100.5","consent.html","external-html","0","8567","0.0-0.0","3KV0LJBBH37WHZ8HHXAV7LX941ERMH","A1K8VUKRL53OX","3RKHNXPHGWIRLJ219DNI80W3E6SKUF","","","","","","","","","","","","",""
"175970.09999999963","","instructions","1","184541","0.0-1.0","3KV0LJBBH37WHZ8HHXAV7LX941ERMH","A1K8VUKRL53OX","3RKHNXPHGWIRLJ219DNI80W3E6SKUF","[{""page_index"":0,""viewing_time"":7329},{""page_index"":1,""viewing_time"":12952.299999999814},{""page_index"":2,""viewing_time"":12991.799999999814},{""page_index"":3,""viewing_time"":18120},{""page_index"":4,""viewing_time"":2687.9000000003725},{""page_index"":3,""viewing_time"":3848},{""page_index"":4,""viewing_time"":8792},{""page_index"":5,""viewing_time"":17840.099999999627},{""page_index"":6,""viewing_time"":91407.80000000075}]","","","","","","","","","","","",""
"11725.100000000559","","instructions","2","196269","0.0-2.0","3KV0LJBBH37WHZ8HHXAV7LX941ERMH","A1K8VUKRL53OX","3RKHNXPHGWIRLJ219DNI80W3E6SKUF","[{""page_index"":0,""viewing_time"":11724.700000000186}]","","","","","","","","","","","",""
"21014.5","","instructions","3","217285","0.0-3.0","3KV0LJBBH37WHZ8HHXAV7LX941ERMH","A1K8VUKRL53OX","3RKHNXPHGWIRLJ219DNI80W3E6SKUF","[{""page_index"":0,""viewing_time"":14990.300000000745},{""page_index"":1,""viewing_time"":6023.9000000003725}]","","","","","","","","","","","",""
"null","","image-keyboard-response","4","219796","0.0-4.0","3KV0LJBBH37WHZ8HHXAV7LX941ERMH","A1K8VUKRL53OX","3RKHNXPHGWIRLJ219DNI80W3E6SKUF","","img/set1/S1.jpg","null","1","structured_load","83","structured_load,random,structured_incentive,structured_normal","","1,3,4,2","false","","",""
"null","","html-keyboard-response","5","220156","0.0-5.0","3KV0LJBBH37WHZ8HHXAV7LX941ERMH","A1K8VUKRL53OX","3RKHNXPHGWIRLJ219DNI80W3E6SKUF","","<img src=""img/set1/S1.jpg"" width=""540"" height = ""360"">","null","","","","","","","","","",""
"null","","html-keyboard-response","6","220363","0.0-6.0","3KV0LJBBH37WHZ8HHXAV7LX941ERMH","A1K8VUKRL53OX","3RKHNXPHGWIRLJ219DNI80W3E6SKUF","","","null","","","","","","","","","",""
"null","","image-keyboard-response","7","222874","0.0-7.0","3KV0LJBBH37WHZ8HHXAV7LX941ERMH","A1K8VUKRL53OX","3RKHNXPHGWIRLJ219DNI80W3E6SKUF","","img/set1/S3.jpg","null","3","structured_load","72","structured_load,random,structured_incentive,structured_normal","","1,3,4,2","false","","",""
"null","","html-keyboard-response","8","223229","0.0-8.0","3KV0LJBBH37WHZ8HHXAV7LX941ERMH","A1K8VUKRL53OX","3RKHNXPHGWIRLJ219DNI80W3E6SKUF","","<img src=""img/set1/S3.jpg"" width=""540"" height = ""360"">","null","","","","","","","","","",""
"null","","html-keyboard-response","9","223439","0.0-9.0","3KV0LJBBH37WHZ8HHXAV7LX941ERMH","A1K8VUKRL53OX","3RKHNXPHGWIRLJ219DNI80W3E6SKUF","","","null","","","","","","","","","",""
"null","","image-keyboard-response","10","226301","0.0-10.0","3KV0LJBBH37WHZ8HHXAV7LX941ERMH","A1K8VUKRL53OX","3RKHNXPHGWIRLJ219DNI80W3E6SKUF","","img/set1/S2.jpg","null","2","structured_load","68","structured_load,random,structured_incentive,structured_normal","","1,3,4,2","false","","",""
"null","","html-keyboard-response","11","227311","0.0-11.0","3KV0LJBBH37WHZ8HHXAV7LX941ERMH","A1K8VUKRL53OX","3RKHNXPHGWIRLJ219DNI80W3E6SKUF","","<img src=""img/set1/S2.jpg"" width=""540"" height = ""360"">","null","","","","","","","","","",""
"null","","html-keyboard-response","12","228133","0.0-12.0","3KV0LJBBH37WHZ8HHXAV7LX941ERMH","A1K8VUKRL53OX","3RKHNXPHGWIRLJ219DNI80W3E6SKUF","","","null","","","","","","","","","",""
"null","","image-keyboard-response","13","231296","0.0-13.0","3KV0LJBBH37WHZ8HHXAV7LX941ERMH","A1K8VUKRL53OX","3RKHNXPHGWIRLJ219DNI80W3E6SKUF","","img/set1/S3.jpg","null","3","structured_load","72","structured_load,random,structured_incentive,structured_normal","","1,3,4,2","false","","",""
"null","","html-keyboard-response","14","232298","0.0-14.0","3KV0LJBBH37WHZ8HHXAV7LX941ERMH","A1K8VUKRL53OX","3RKHNXPHGWIRLJ219DNI80W3E6SKUF","","<img src=""img/set1/S3.jpg"" width=""540"" height = ""360"">","null","","","","","","","","","",""
"null","","html-keyboard-response","15","233293","0.0-15.0","3KV0LJBBH37WHZ8HHXAV7LX941ERMH","A1K8VUKRL53OX","3RKHNXPHGWIRLJ219DNI80W3E6SKUF","","","null","","","","","","","","","",""
"null","","image-keyboard-response","16","235797","0.0-16.0","3KV0LJBBH37WHZ8HHXAV7LX941ERMH","A1K8VUKRL53OX","3RKHNXPHGWIRLJ219DNI80W3E6SKUF","","img/set1/S4.jpg","null","4","structured_load","74","structured_load,random,structured_incentive,structured_normal","","1,3,4,2","false","","",""
"null","","html-keyboard-response","17","236160","0.0-17.0","3KV0LJBBH37WHZ8HHXAV7LX941ERMH","A1K8VUKRL53OX","3RKHNXPHGWIRLJ219DNI80W3E6SKUF","","<img src=""img/set1/S4.jpg"" width=""540"" height = ""360"">","null","","","","","","","","","",""
"null","","html-keyboard-response","18","236367","0.0-18.0","3KV0LJBBH37WHZ8HHXAV7LX941ERMH","A1K8VUKRL53OX","3RKHNXPHGWIRLJ219DNI80W3E6SKUF","","","null","","","","","","","","","",""
"1744.699999999255","","image-keyboard-response","19","238114","0.0-19.0","3KV0LJBBH37WHZ8HHXAV7LX941ERMH","A1K8VUKRL53OX","3RKHNXPHGWIRLJ219DNI80W3E6SKUF","","img/set1/S2.jpg","72","2","structured_load","68","structured_load,random,structured_incentive,structured_normal","","1,3,4,2","false","","",""
"null","","html-keyboard-response","20","238475","0.0-20.0","3KV0LJBBH37WHZ8HHXAV7LX941ERMH","A1K8VUKRL53OX","3RKHNXPHGWIRLJ219DNI80W3E6SKUF","","<img src=""img/set1/S2.jpg"" width=""540"" height = ""360"">","null","","","","","","","","","",""
"null","","html-keyboard-response","21","238682","0.0-21.0","3KV0LJBBH37WHZ8HHXAV7LX941ERMH","A1K8VUKRL53OX","3RKHNXPHGWIRLJ219DNI80W3E6SKUF","","","null","","","","","","","","","",""
"null","","image-keyboard-response","22","241190","0.0-22.0","3KV0LJBBH37WHZ8HHXAV7LX941ERMH","A1K8VUKRL53OX","3RKHNXPHGWIRLJ219DNI80W3E6SKUF","","img/set1/S3.jpg","null","3","structured_load","72","structured_load,random,structured_incentive,structured_normal","","1,3,4,2","false","","",""
"null","","html-keyboard-response","23","241546","0.0-23.0","3KV0LJBBH37WHZ8HHXAV7LX941ERMH","A1K8VUKRL53OX","3RKHNXPHGWIRLJ219DNI80W3E6SKUF","","<img src=""img/set1/S3.jpg"" width=""540"" height = ""360"">","null","","","","","","","","","",""
"null","","html-keyboard-response","24","241755","0.0-24.0","3KV0LJBBH37WHZ8HHXAV7LX941ERMH","A1K8VUKRL53OX","3RKHNXPHGWIRLJ219DNI80W3E6SKUF","","","null","","","","","","","","","",""
"1716","","image-keyboard-response","25","243473","0.0-25.0","3KV0LJBBH37WHZ8HHXAV7LX941ERMH","A1K8VUKRL53OX","3RKHNXPHGWIRLJ219DNI80W3E6SKUF","","img/set1/S4.jpg","72","4","structured_load","74","structured_load,random,structured_incentive,structured_normal","","1,3,4,2","false","","",""
"null","","html-keyboard-response","26","243832","0.0-26.0","3KV0LJBBH37WHZ8HHXAV7LX941ERMH","A1K8VUKRL53OX","3RKHNXPHGWIRLJ219DNI80W3E6SKUF","","<img src=""img/set1/S4.jpg"" width=""540"" height = ""360"">","null","","","","","","","","","",""
"null","","html-keyboard-response","27","244038","0.0-27.0","3KV0LJBBH37WHZ8HHXAV7LX941ERMH","A1K8VUKRL53OX","3RKHNXPHGWIRLJ219DNI80W3E6SKUF","","","null","","","","","","","","","",""
"490.2000000011176","","image-keyboard-response","28","244532","0.0-28.0","3KV0LJBBH37WHZ8HHXAV7LX941ERMH","A1K8VUKRL53OX","3RKHNXPHGWIRLJ219DNI80W3E6SKUF","","img/set1/S4.jpg","68","4","structured_load","74","structured_load,random,structured_incentive,structured_normal","","1,3,4,2","false","","",""
"null","","html-keyboard-response","29","244886","0.0-29.0","3KV0LJBBH37WHZ8HHXAV7LX941ERMH","A1K8VUKRL53OX","3RKHNXPHGWIRLJ219DNI80W3E6SKUF","","<img src=""img/set1/S4.jpg"" width=""540"" height = ""360"">","null","","","","","","","","","",""
"null","","html-keyboard-response","30","245093","0.0-30.0","3KV0LJBBH37WHZ8HHXAV7LX941ERMH","A1K8VUKRL53OX","3RKHNXPHGWIRLJ219DNI80W3E6SKUF","","","null","","","","","","","","","",""
"525","","image-keyboard-response","31","245620","0.0-31.0","3KV0LJBBH37WHZ8HHXAV7LX941ERMH","A1K8VUKRL53OX","3RKHNXPHGWIRLJ219DNI80W3E6SKUF","","img/set1/S3.jpg","83","3","structured_load","72","structured_load,random,structured_incentive,structured_normal","","1,3,4,2","false","","",""
"null","","html-keyboard-response","32","245976","0.0-32.0","3KV0LJBBH37WHZ8HHXAV7LX941ERMH","A1K8VUKRL53OX","3RKHNXPHGWIRLJ219DNI80W3E6SKUF","","<img src=""img/set1/S3.jpg"" width=""540"" height = ""360"">","null","","","","","","","","","",""
"null","","html-keyboard-response","33","246181","0.0-33.0","3KV0LJBBH37WHZ8HHXAV7LX941ERMH","A1K8VUKRL53OX","3RKHNXPHGWIRLJ219DNI80W3E6SKUF","","","null","","","","","","","","","",""
"478","","image-keyboard-response","34","246661","0.0-34.0","3KV0LJBBH37WHZ8HHXAV7LX941ERMH","A1K8VUKRL53OX","3RKHNXPHGWIRLJ219DNI80W3E6SKUF","","img/set1/S4.jpg","68","4","structured_load","74","structured_load,random,structured_incentive,structured_normal","","1,3,4,2","false","","",""
"null","","html-keyboard-response","35","247019","0.0-35.0","3KV0LJBBH37WHZ8HHXAV7LX941ERMH","A1K8VUKRL53OX","3RKHNXPHGWIRLJ219DNI80W3E6SKUF","","<img src=""img/set1/S4.jpg"" width=""540"" height = ""360"">","null","","","","","","","","","",""
"null","","html-keyboard-response","36","247226","0.0-36.0","3KV0LJBBH37WHZ8HHXAV7LX941ERMH","A1K8VUKRL53OX","3RKHNXPHGWIRLJ219DNI80W3E6SKUF","","","null","","","","","","","","","",""
"500.7999999988824","","image-keyboard-response","37","247728","0.0-37.0","3KV0LJBBH37WHZ8HHXAV7LX941ERMH","A1K8VUKRL53OX","3RKHNXPHGWIRLJ219DNI80W3E6SKUF","","img/set1/S3.jpg","72","3","structured_load","72","structured_load,random,structured_incentive,structured_normal","","1,3,4,2","true","","",""
"null","","html-keyboard-response","38","248085","0.0-38.0","3KV0LJBBH37WHZ8HHXAV7LX941ERMH","A1K8VUKRL53OX","3RKHNXPHGWIRLJ219DNI80W3E6SKUF","","<img src=""img/set1/S3.jpg"" width=""540"" height = ""360"" style=""border:16px solid orange"">","null","","","","","","","","","",""
"null","","html-keyboard-response","39","248291","0.0-39.0","3KV0LJBBH37WHZ8HHXAV7LX941ERMH","A1K8VUKRL53OX","3RKHNXPHGWIRLJ219DNI80W3E6SKUF","","","null","","","","","","","","","",""
"334.30000000074506","","image-keyboard-response","40","248628","0.0-40.0","3KV0LJBBH37WHZ8HHXAV7LX941ERMH","A1K8VUKRL53OX","3RKHNXPHGWIRLJ219DNI80W3E6SKUF","","img/set1/S1.jpg","83","1","structured_load","83","structured_load,random,structured_incentive,structured_normal","","1,3,4,2","true","","",""
"null","","html-keyboard-response","41","248996","0.0-41.0","3KV0LJBBH37WHZ8HHXAV7LX941ERMH","A1K8VUKRL53OX","3RKHNXPHGWIRLJ219DNI80W3E6SKUF","","<img src=""img/set1/S1.jpg"" width=""540"" height = ""360"" style=""border:16px solid orange"">","null","","","","","","","","","",""
"null","","html-keyboard-response","42","249205","0.0-42.0","3KV0LJBBH37WHZ8HHXAV7LX941ERMH","A1K8VUKRL53OX","3RKHNXPHGWIRLJ219DNI80W3E6SKUF","","","null","","","","","","","","","",""
"591.0999999996275","","image-keyboard-response","43","249800","0.0-43.0","3KV0LJBBH37WHZ8HHXAV7LX941ERMH","A1K8VUKRL53OX","3RKHNXPHGWIRLJ219DNI80W3E6SKUF","","img/set1/S1.jpg","83","1","structured_load","83","structured_load,random,structured_incentive,structured_normal","","1,3,4,2","true","","",""
"null","","html-keyboard-response","44","250174","0.0-44.0","3KV0LJBBH37WHZ8HHXAV7LX941ERMH","A1K8VUKRL53OX","3RKHNXPHGWIRLJ219DNI80W3E6SKUF","","<img src=""img/set1/S1.jpg"" width=""540"" height = ""360"" style=""border:16px solid orange"">","null","","","","","","","","","",""
"null","","html-keyboard-response","45","250381","0.0-45.0","3KV0LJBBH37WHZ8HHXAV7LX941ERMH","A1K8VUKRL53OX","3RKHNXPHGWIRLJ219DNI80W3E6SKUF","","","null","","","","","","","","","",""
"421.69999999925494","","image-keyboard-response","46","250806","0.0-46.0","3KV0LJBBH37WHZ8HHXAV7LX941ERMH","A1K8VUKRL53OX","3RKHNXPHGWIRLJ219DNI80W3E6SKUF","","img/set1/S3.jpg","68","3","structured_load","72","structured_load,random,structured_incentive,structured_normal","","1,3,4,2","false","","",""
"null","","html-keyboard-response","47","251161","0.0-47.0","3KV0LJBBH37WHZ8HHXAV7LX941ERMH","A1K8VUKRL53OX","3RKHNXPHGWIRLJ219DNI80W3E6SKUF","","<img src=""img/set1/S3.jpg"" width=""540"" height = ""360"">","null","","","","","","","","","",""
"null","","html-keyboard-response","48","251367","0.0-48.0","3KV0LJBBH37WHZ8HHXAV7LX941ERMH","A1K8VUKRL53OX","3RKHNXPHGWIRLJ219DNI80W3E6SKUF","","","null","","","","","","","","","",""
"415.2000000011176","","image-keyboard-response","49","251785","0.0-49.0","3KV0LJBBH37WHZ8HHXAV7LX941ERMH","A1K8VUKRL53OX","3RKHNXPHGWIRLJ219DNI80W3E6SKUF","","img/set1/S1.jpg","83","1","structured_load","83","structured_load,random,structured_incentive,structured_normal","","1,3,4,2","true","","",""
"null","","html-keyboard-response","50","252139","0.0-50.0","3KV0LJBBH37WHZ8HHXAV7LX941ERMH","A1K8VUKRL53OX","3RKHNXPHGWIRLJ219DNI80W3E6SKUF","","<img src=""img/set1/S1.jpg"" width=""540"" height = ""360"" style=""border:16px solid orange"">","null","","","","","","","","","",""
"null","","html-keyboard-response","51","252347","0.0-51.0","3KV0LJBBH37WHZ8HHXAV7LX941ERMH","A1K8VUKRL53OX","3RKHNXPHGWIRLJ219DNI80W3E6SKUF","","","null","","","","","","","","","",""
"382.2999999988824","","image-keyboard-response","52","252733","0.0-52.0","3KV0LJBBH37WHZ8HHXAV7LX941ERMH","A1K8VUKRL53OX","3RKHNXPHGWIRLJ219DNI80W3E6SKUF","","img/set1/S4.jpg","83","4","structured_load","74","structured_load,random,structured_incentive,structured_normal","","1,3,4,2","false","","",""
"null","","html-keyboard-response","53","253092","0.0-53.0","3KV0LJBBH37WHZ8HHXAV7LX941ERMH","A1K8VUKRL53OX","3RKHNXPHGWIRLJ219DNI80W3E6SKUF","","<img src=""img/set1/S4.jpg"" width=""540"" height = ""360"">","null","","","","","","","","","",""
"null","","html-keyboard-response","54","253303","0.0-54.0","3KV0LJBBH37WHZ8HHXAV7LX941ERMH","A1K8VUKRL53OX","3RKHNXPHGWIRLJ219DNI80W3E6SKUF","","","null","","","","","","","","","",""
"81.59999999962747","","image-keyboard-response","55","253387","0.0-55.0","3KV0LJBBH37WHZ8HHXAV7LX941ERMH","A1K8VUKRL53OX","3RKHNXPHGWIRLJ219DNI80W3E6SKUF","","img/set1/S1.jpg","68","1","structured_load","83","structured_load,random,structured_incentive,structured_normal","","1,3,4,2","false","","",""
"null","","html-keyboard-response","56","253747","0.0-56.0","3KV0LJBBH37WHZ8HHXAV7LX941ERMH","A1K8VUKRL53OX","3RKHNXPHGWIRLJ219DNI80W3E6SKUF","","<img src=""img/set1/S1.jpg"" width=""540"" height = ""360"">","null","","","","","","","","","",""
"null","","html-keyboard-response","57","253953","0.0-57.0","3KV0LJBBH37WHZ8HHXAV7LX941ERMH","A1K8VUKRL53OX","3RKHNXPHGWIRLJ219DNI80W3E6SKUF","","","null","","","","","","","","","",""
"91.69999999925494","","image-keyboard-response","58","254048","0.0-58.0","3KV0LJBBH37WHZ8HHXAV7LX941ERMH","A1K8VUKRL53OX","3RKHNXPHGWIRLJ219DNI80W3E6SKUF","","img/set1/S4.jpg","74","4","structured_load","74","structured_load,random,structured_incentive,structured_normal","","1,3,4,2","true","","",""
"null","","html-keyboard-response","59","254418","0.0-59.0","3KV0LJBBH37WHZ8HHXAV7LX941ERMH","A1K8VUKRL53OX","3RKHNXPHGWIRLJ219DNI80W3E6SKUF","","<img src=""img/set1/S4.jpg"" width=""540"" height = ""360"" style=""border:16px solid orange"">","null","","","","","","","","","",""
"null","","html-keyboard-response","60","254634","0.0-60.0","3KV0LJBBH37WHZ8HHXAV7LX941ERMH","A1K8VUKRL53OX","3RKHNXPHGWIRLJ219DNI80W3E6SKUF","","","null","","","","","","","","","",""
"457.5","","image-keyboard-response","61","255094","0.0-61.0","3KV0LJBBH37WHZ8HHXAV7LX941ERMH","A1K8VUKRL53OX","3RKHNXPHGWIRLJ219DNI80W3E6SKUF","","img/set1/S1.jpg","72","1","structured_load","83","structured_load,random,structured_incentive,structured_normal","","1,3,4,2","false","","",""
"null","","html-keyboard-response","62","255451","0.0-62.0","3KV0LJBBH37WHZ8HHXAV7LX941ERMH","A1K8VUKRL53OX","3RKHNXPHGWIRLJ219DNI80W3E6SKUF","","<img src=""img/set1/S1.jpg"" width=""540"" height = ""360"">","null","","","","","","","","","",""
"null","","html-keyboard-response","63","255668","0.0-63.0","3KV0LJBBH37WHZ8HHXAV7LX941ERMH","A1K8VUKRL53OX","3RKHNXPHGWIRLJ219DNI80W3E6SKUF","","","null","","","","","","","","","",""
"95","","image-keyboard-response","64","255768","0.0-64.0","3KV0LJBBH37WHZ8HHXAV7LX941ERMH","A1K8VUKRL53OX","3RKHNXPHGWIRLJ219DNI80W3E6SKUF","","img/set1/S1.jpg","83","1","structured_load","83","structured_load,random,structured_incentive,structured_normal","","1,3,4,2","true","","",""
"null","","html-keyboard-response","65","256126","0.0-65.0","3KV0LJBBH37WHZ8HHXAV7LX941ERMH","A1K8VUKRL53OX","3RKHNXPHGWIRLJ219DNI80W3E6SKUF","","<img src=""img/set1/S1.jpg"" width=""540"" height = ""360"" style=""border:16px solid orange"">","null","","","","","","","","","",""
"null","","html-keyboard-response","66","256336","0.0-66.0","3KV0LJBBH37WHZ8HHXAV7LX941ERMH","A1K8VUKRL53OX","3RKHNXPHGWIRLJ219DNI80W3E6SKUF","","","null","","","","","","","","","",""
"438.5","","image-keyboard-response","67","256778","0.0-67.0","3KV0LJBBH37WHZ8HHXAV7LX941ERMH","A1K8VUKRL53OX","3RKHNXPHGWIRLJ219DNI80W3E6SKUF","","img/set1/S4.jpg","68","4","structured_load","74","structured_load,random,structured_incentive,structured_normal","","1,3,4,2","false","","",""
"null","","html-keyboard-response","68","257138","0.0-68.0","3KV0LJBBH37WHZ8HHXAV7LX941ERMH","A1K8VUKRL53OX","3RKHNXPHGWIRLJ219DNI80W3E6SKUF","","<img src=""img/set1/S4.jpg"" width=""540"" height = ""360"">","null","","","","","","","","","",""
"null","","html-keyboard-response","69","257344","0.0-69.0","3KV0LJBBH37WHZ8HHXAV7LX941ERMH","A1K8VUKRL53OX","3RKHNXPHGWIRLJ219DNI80W3E6SKUF","","","null","","","","","","","","","",""
"466.19999999925494","","image-keyboard-response","70","257817","0.0-70.0","3KV0LJBBH37WHZ8HHXAV7LX941ERMH","A1K8VUKRL53OX","3RKHNXPHGWIRLJ219DNI80W3E6SKUF","","img/set1/S1.jpg","83","1","structured_load","83","structured_load,random,structured_incentive,structured_normal","","1,3,4,2","true","","",""
"null","","html-keyboard-response","71","258178","0.0-71.0","3KV0LJBBH37WHZ8HHXAV7LX941ERMH","A1K8VUKRL53OX","3RKHNXPHGWIRLJ219DNI80W3E6SKUF","","<img src=""img/set1/S1.jpg"" width=""540"" height = ""360"" style=""border:16px solid orange"">","null","","","","","","","","","",""
"null","","html-keyboard-response","72","258394","0.0-72.0","3KV0LJBBH37WHZ8HHXAV7LX941ERMH","A1K8VUKRL53OX","3RKHNXPHGWIRLJ219DNI80W3E6SKUF","","","null","","","","","","","","","",""
"75.60000000149012","","image-keyboard-response","73","258472","0.0-73.0","3KV0LJBBH37WHZ8HHXAV7LX941ERMH","A1K8VUKRL53OX","3RKHNXPHGWIRLJ219DNI80W3E6SKUF","","img/set1/S1.jpg","83","1","structured_load","83","structured_load,random,structured_incentive,structured_normal","","1,3,4,2","true","","",""
"null","","html-keyboard-response","74","258841","0.0-74.0","3KV0LJBBH37WHZ8HHXAV7LX941ERMH","A1K8VUKRL53OX","3RKHNXPHGWIRLJ219DNI80W3E6SKUF","","<img src=""img/set1/S1.jpg"" width=""540"" height = ""360"" style=""border:16px solid orange"">","null","","","","","","","","","",""
"null","","html-keyboard-response","75","259047","0.0-75.0","3KV0LJBBH37WHZ8HHXAV7LX941ERMH","A1K8VUKRL53OX","3RKHNXPHGWIRLJ219DNI80W3E6SKUF","","","null","","","","","","","","","",""
"330","","image-keyboard-response","76","259380","0.0-76.0","3KV0LJBBH37WHZ8HHXAV7LX941ERMH","A1K8VUKRL53OX","3RKHNXPHGWIRLJ219DNI80W3E6SKUF","","img/set1/S1.jpg","83","1","structured_load","83","structured_load,random,structured_incentive,structured_normal","","1,3,4,2","true","","",""
"null","","html-keyboard-response","77","259737","0.0-77.0","3KV0LJBBH37WHZ8HHXAV7LX941ERMH","A1K8VUKRL53OX","3RKHNXPHGWIRLJ219DNI80W3E6SKUF","","<img src=""img/set1/S1.jpg"" width=""540"" height = ""360"" style=""border:16px solid orange"">","null","","","","","","","","","",""
"null","","html-keyboard-response","78","259945","0.0-78.0","3KV0LJBBH37WHZ8HHXAV7LX941ERMH","A1K8VUKRL53OX","3RKHNXPHGWIRLJ219DNI80W3E6SKUF","","","null","","","","","","","","","",""
"362.09999999962747","","image-keyboard-response","79","260310","0.0-79.0","3KV0LJBBH37WHZ8HHXAV7LX941ERMH","A1K8VUKRL53OX","3RKHNXPHGWIRLJ219DNI80W3E6SKUF","","img/set1/S4.jpg","83","4","structured_load","74","structured_load,random,structured_incentive,structured_normal","","1,3,4,2","false","","",""
"null","","html-keyboard-response","80","260674","0.0-80.0","3KV0LJBBH37WHZ8HHXAV7LX941ERMH","A1K8VUKRL53OX","3RKHNXPHGWIRLJ219DNI80W3E6SKUF","","<img src=""img/set1/S4.jpg"" width=""540"" height = ""360"">","null","","","","","","","","","",""
"null","","html-keyboard-response","81","260884","0.0-81.0","3KV0LJBBH37WHZ8HHXAV7LX941ERMH","A1K8VUKRL53OX","3RKHNXPHGWIRLJ219DNI80W3E6SKUF","","","null","","","","","","","","","",""
"77.59999999962747","","image-keyboard-response","82","260964","0.0-82.0","3KV0LJBBH37WHZ8HHXAV7LX941ERMH","A1K8VUKRL53OX","3RKHNXPHGWIRLJ219DNI80W3E6SKUF","","img/set1/S2.jpg","83","2","structured_load","68","structured_load,random,structured_incentive,structured_normal","","1,3,4,2","false","","",""
"null","","html-keyboard-response","83","261322","0.0-83.0","3KV0LJBBH37WHZ8HHXAV7LX941ERMH","A1K8VUKRL53OX","3RKHNXPHGWIRLJ219DNI80W3E6SKUF","","<img src=""img/set1/S2.jpg"" width=""540"" height = ""360"">","null","","","","","","","","","",""
"null","","html-keyboard-response","84","261537","0.0-84.0","3KV0LJBBH37WHZ8HHXAV7LX941ERMH","A1K8VUKRL53OX","3RKHNXPHGWIRLJ219DNI80W3E6SKUF","","","null","","","","","","","","","",""
"312.40000000037253","","image-keyboard-response","85","261852","0.0-85.0","3KV0LJBBH37WHZ8HHXAV7LX941ERMH","A1K8VUKRL53OX","3RKHNXPHGWIRLJ219DNI80W3E6SKUF","","img/set1/S3.jpg","68","3","structured_load","72","structured_load,random,structured_incentive,structured_normal","","1,3,4,2","false","","",""
"null","","html-keyboard-response","86","262211","0.0-86.0","3KV0LJBBH37WHZ8HHXAV7LX941ERMH","A1K8VUKRL53OX","3RKHNXPHGWIRLJ219DNI80W3E6SKUF","","<img src=""img/set1/S3.jpg"" width=""540"" height = ""360"">","null","","","","","","","","","",""
"null","","html-keyboard-response","87","262419","0.0-87.0","3KV0LJBBH37WHZ8HHXAV7LX941ERMH","A1K8VUKRL53OX","3RKHNXPHGWIRLJ219DNI80W3E6SKUF","","","null","","","","","","","","","",""
"418.3999999985099","","image-keyboard-response","88","262840","0.0-88.0","3KV0LJBBH37WHZ8HHXAV7LX941ERMH","A1K8VUKRL53OX","3RKHNXPHGWIRLJ219DNI80W3E6SKUF","","img/set1/S4.jpg","68","4","structured_load","74","structured_load,random,structured_incentive,structured_normal","","1,3,4,2","false","","",""
"null","","html-keyboard-response","89","263195","0.0-89.0","3KV0LJBBH37WHZ8HHXAV7LX941ERMH","A1K8VUKRL53OX","3RKHNXPHGWIRLJ219DNI80W3E6SKUF","","<img src=""img/set1/S4.jpg"" width=""540"" height = ""360"">","null","","","","","","","","","",""
"null","","html-keyboard-response","90","263402","0.0-90.0","3KV0LJBBH37WHZ8HHXAV7LX941ERMH","A1K8VUKRL53OX","3RKHNXPHGWIRLJ219DNI80W3E6SKUF","","","null","","","","","","","","","",""
"175.09999999962747","","image-keyboard-response","91","263579","0.0-91.0","3KV0LJBBH37WHZ8HHXAV7LX941ERMH","A1K8VUKRL53OX","3RKHNXPHGWIRLJ219DNI80W3E6SKUF","","img/set1/S1.jpg","72","1","structured_load","83","structured_load,random,structured_incentive,structured_normal","","1,3,4,2","false","","",""
"null","","html-keyboard-response","92","263941","0.0-92.0","3KV0LJBBH37WHZ8HHXAV7LX941ERMH","A1K8VUKRL53OX","3RKHNXPHGWIRLJ219DNI80W3E6SKUF","","<img src=""img/set1/S1.jpg"" width=""540"" height = ""360"">","null","","","","","","","","","",""
"null","","html-keyboard-response","93","264149","0.0-93.0","3KV0LJBBH37WHZ8HHXAV7LX941ERMH","A1K8VUKRL53OX","3RKHNXPHGWIRLJ219DNI80W3E6SKUF","","","null","","","","","","","","","",""
"364.80000000074506","","image-keyboard-response","94","264517","0.0-94.0","3KV0LJBBH37WHZ8HHXAV7LX941ERMH","A1K8VUKRL53OX","3RKHNXPHGWIRLJ219DNI80W3E6SKUF","","img/set1/S4.jpg","74","4","structured_load","74","structured_load,random,structured_incentive,structured_normal","","1,3,4,2","true","","",""
"null","","html-keyboard-response","95","264877","0.0-95.0","3KV0LJBBH37WHZ8HHXAV7LX941ERMH","A1K8VUKRL53OX","3RKHNXPHGWIRLJ219DNI80W3E6SKUF","","<img src=""img/set1/S4.jpg"" width=""540"" height = ""360"" style=""border:16px solid orange"">","null","","","","","","","","","",""
"null","","html-keyboard-response","96","265094","0.0-96.0","3KV0LJBBH37WHZ8HHXAV7LX941ERMH","A1K8VUKRL53OX","3RKHNXPHGWIRLJ219DNI80W3E6SKUF","","","null","","","","","","","","","",""
"307.40000000037253","","image-keyboard-response","97","265404","0.0-97.0","3KV0LJBBH37WHZ8HHXAV7LX941ERMH","A1K8VUKRL53OX","3RKHNXPHGWIRLJ219DNI80W3E6SKUF","","img/set1/S1.jpg","72","1","structured_load","83","structured_load,random,structured_incentive,structured_normal","","1,3,4,2","false","","",""
"null","","html-keyboard-response","98","265758","0.0-98.0","3KV0LJBBH37WHZ8HHXAV7LX941ERMH","A1K8VUKRL53OX","3RKHNXPHGWIRLJ219DNI80W3E6SKUF","","<img src=""img/set1/S1.jpg"" width=""540"" height = ""360"">","null","","","","","","","","","",""
"null","","html-keyboard-response","99","265960","0.0-99.0","3KV0LJBBH37WHZ8HHXAV7LX941ERMH","A1K8VUKRL53OX","3RKHNXPHGWIRLJ219DNI80W3E6SKUF","","","null","","","","","","","","","",""
"108","","image-keyboard-response","100","266071","0.0-100.0","3KV0LJBBH37WHZ8HHXAV7LX941ERMH","A1K8VUKRL53OX","3RKHNXPHGWIRLJ219DNI80W3E6SKUF","","img/set1/S1.jpg","74","1","structured_load","83","structured_load,random,structured_incentive,structured_normal","","1,3,4,2","false","","",""
"null","","html-keyboard-response","101","266425","0.0-101.0","3KV0LJBBH37WHZ8HHXAV7LX941ERMH","A1K8VUKRL53OX","3RKHNXPHGWIRLJ219DNI80W3E6SKUF","","<img src=""img/set1/S1.jpg"" width=""540"" height = ""360"">","null","","","","","","","","","",""
"null","","html-keyboard-response","102","266632","0.0-102.0","3KV0LJBBH37WHZ8HHXAV7LX941ERMH","A1K8VUKRL53OX","3RKHNXPHGWIRLJ219DNI80W3E6SKUF","","","null","","","","","","","","","",""
"81.5","","image-keyboard-response","103","266715","0.0-103.0","3KV0LJBBH37WHZ8HHXAV7LX941ERMH","A1K8VUKRL53OX","3RKHNXPHGWIRLJ219DNI80W3E6SKUF","","img/set1/S2.jpg","83","2","structured_load","68","structured_load,random,structured_incentive,structured_normal","","1,3,4,2","false","","",""
"null","","html-keyboard-response","104","267070","0.0-104.0","3KV0LJBBH37WHZ8HHXAV7LX941ERMH","A1K8VUKRL53OX","3RKHNXPHGWIRLJ219DNI80W3E6SKUF","","<img src=""img/set1/S2.jpg"" width=""540"" height = ""360"">","null","","","","","","","","","",""
"null","","html-keyboard-response","105","267287","0.0-105.0","3KV0LJBBH37WHZ8HHXAV7LX941ERMH","A1K8VUKRL53OX","3RKHNXPHGWIRLJ219DNI80W3E6SKUF","","","null","","","","","","","","","",""
"183.5","","image-keyboard-response","106","267473","0.0-106.0","3KV0LJBBH37WHZ8HHXAV7LX941ERMH","A1K8VUKRL53OX","3RKHNXPHGWIRLJ219DNI80W3E6SKUF","","img/set1/S3.jpg","83","3","structured_load","72","structured_load,random,structured_incentive,structured_normal","","1,3,4,2","false","","",""
"null","","html-keyboard-response","107","267827","0.0-107.0","3KV0LJBBH37WHZ8HHXAV7LX941ERMH","A1K8VUKRL53OX","3RKHNXPHGWIRLJ219DNI80W3E6SKUF","","<img src=""img/set1/S3.jpg"" width=""540"" height = ""360"">","null","","","","","","","","","",""
"null","","html-keyboard-response","108","268035","0.0-108.0","3KV0LJBBH37WHZ8HHXAV7LX941ERMH","A1K8VUKRL53OX","3RKHNXPHGWIRLJ219DNI80W3E6SKUF","","","null","","","","","","","","","",""
"51.70000000111759","","image-keyboard-response","109","268089","0.0-109.0","3KV0LJBBH37WHZ8HHXAV7LX941ERMH","A1K8VUKRL53OX","3RKHNXPHGWIRLJ219DNI80W3E6SKUF","","img/set1/S4.jpg","72","4","structured_load","74","structured_load,random,structured_incentive,structured_normal","","1,3,4,2","false","","",""
"null","","html-keyboard-response","110","268449","0.0-110.0","3KV0LJBBH37WHZ8HHXAV7LX941ERMH","A1K8VUKRL53OX","3RKHNXPHGWIRLJ219DNI80W3E6SKUF","","<img src=""img/set1/S4.jpg"" width=""540"" height = ""360"">","null","","","","","","","","","",""
"null","","html-keyboard-response","111","268659","0.0-111.0","3KV0LJBBH37WHZ8HHXAV7LX941ERMH","A1K8VUKRL53OX","3RKHNXPHGWIRLJ219DNI80W3E6SKUF","","","null","","","","","","","","","",""
"12.599999999627471","","image-keyboard-response","112","268674","0.0-112.0","3KV0LJBBH37WHZ8HHXAV7LX941ERMH","A1K8VUKRL53OX","3RKHNXPHGWIRLJ219DNI80W3E6SKUF","","img/set1/S1.jpg","74","1","structured_load","83","structured_load,random,structured_incentive,structured_normal","","1,3,4,2","false","","",""
"null","","html-keyboard-response","113","269042","0.0-113.0","3KV0LJBBH37WHZ8HHXAV7LX941ERMH","A1K8VUKRL53OX","3RKHNXPHGWIRLJ219DNI80W3E6SKUF","","<img src=""img/set1/S1.jpg"" width=""540"" height = ""360"">","null","","","","","","","","","",""
"null","","html-keyboard-response","114","269256","0.0-114.0","3KV0LJBBH37WHZ8HHXAV7LX941ERMH","A1K8VUKRL53OX","3RKHNXPHGWIRLJ219DNI80W3E6SKUF","","","null","","","","","","","","","",""
"2.5","","image-keyboard-response","115","269261","0.0-115.0","3KV0LJBBH37WHZ8HHXAV7LX941ERMH","A1K8VUKRL53OX","3RKHNXPHGWIRLJ219DNI80W3E6SKUF","","img/set1/S1.jpg","72","1","structured_load","83","structured_load,random,structured_incentive,structured_normal","","1,3,4,2","false","","",""
"null","","html-keyboard-response","116","269620","0.0-116.0","3KV0LJBBH37WHZ8HHXAV7LX941ERMH","A1K8VUKRL53OX","3RKHNXPHGWIRLJ219DNI80W3E6SKUF","","<img src=""img/set1/S1.jpg"" width=""540"" height = ""360"">","null","","","","","","","","","",""
"null","","html-keyboard-response","117","269829","0.0-117.0","3KV0LJBBH37WHZ8HHXAV7LX941ERMH","A1K8VUKRL53OX","3RKHNXPHGWIRLJ219DNI80W3E6SKUF","","","null","","","","","","","","","",""
"576.4000000003725","","image-keyboard-response","118","270408","0.0-118.0","3KV0LJBBH37WHZ8HHXAV7LX941ERMH","A1K8VUKRL53OX","3RKHNXPHGWIRLJ219DNI80W3E6SKUF","","img/set1/S2.jpg","83","2","structured_load","68","structured_load,random,structured_incentive,structured_normal","","1,3,4,2","false","","",""
"null","","html-keyboard-response","119","270761","0.0-119.0","3KV0LJBBH37WHZ8HHXAV7LX941ERMH","A1K8VUKRL53OX","3RKHNXPHGWIRLJ219DNI80W3E6SKUF","","<img src=""img/set1/S2.jpg"" width=""540"" height = ""360"">","null","","","","","","","","","",""
"null","","html-keyboard-response","120","270968","0.0-120.0","3KV0LJBBH37WHZ8HHXAV7LX941ERMH","A1K8VUKRL53OX","3RKHNXPHGWIRLJ219DNI80W3E6SKUF","","","null","","","","","","","","","",""
"315.19999999925494","","image-keyboard-response","121","271286","0.0-121.0","3KV0LJBBH37WHZ8HHXAV7LX941ERMH","A1K8VUKRL53OX","3RKHNXPHGWIRLJ219DNI80W3E6SKUF","","img/set1/S3.jpg","74","3","structured_load","72","structured_load,random,structured_incentive,structured_normal","","1,3,4,2","false","","",""
"null","","html-keyboard-response","122","271643","0.0-122.0","3KV0LJBBH37WHZ8HHXAV7LX941ERMH","A1K8VUKRL53OX","3RKHNXPHGWIRLJ219DNI80W3E6SKUF","","<img src=""img/set1/S3.jpg"" width=""540"" height = ""360"">","null","","","","","","","","","",""
"null","","html-keyboard-response","123","271846","0.0-123.0","3KV0LJBBH37WHZ8HHXAV7LX941ERMH","A1K8VUKRL53OX","3RKHNXPHGWIRLJ219DNI80W3E6SKUF","","","null","","","","","","","","","",""
"183.5","","image-keyboard-response","124","272032","0.0-124.0","3KV0LJBBH37WHZ8HHXAV7LX941ERMH","A1K8VUKRL53OX","3RKHNXPHGWIRLJ219DNI80W3E6SKUF","","img/set1/S2.jpg","72","2","structured_load","68","structured_load,random,structured_incentive,structured_normal","","1,3,4,2","false","","",""
"null","","html-keyboard-response","125","272393","0.0-125.0","3KV0LJBBH37WHZ8HHXAV7LX941ERMH","A1K8VUKRL53OX","3RKHNXPHGWIRLJ219DNI80W3E6SKUF","","<img src=""img/set1/S2.jpg"" width=""540"" height = ""360"">","null","","","","","","","","","",""
"null","","html-keyboard-response","126","272601","0.0-126.0","3KV0LJBBH37WHZ8HHXAV7LX941ERMH","A1K8VUKRL53OX","3RKHNXPHGWIRLJ219DNI80W3E6SKUF","","","null","","","","","","","","","",""
"33.899999998509884","","image-keyboard-response","127","272637","0.0-127.0","3KV0LJBBH37WHZ8HHXAV7LX941ERMH","A1K8VUKRL53OX","3RKHNXPHGWIRLJ219DNI80W3E6SKUF","","img/set1/S3.jpg","68","3","structured_load","72","structured_load,random,structured_incentive,structured_normal","","1,3,4,2","false","","",""
"null","","html-keyboard-response","128","272995","0.0-128.0","3KV0LJBBH37WHZ8HHXAV7LX941ERMH","A1K8VUKRL53OX","3RKHNXPHGWIRLJ219DNI80W3E6SKUF","","<img src=""img/set1/S3.jpg"" width=""540"" height = ""360"">","null","","","","","","","","","",""
"null","","html-keyboard-response","129","273202","0.0-129.0","3KV0LJBBH37WHZ8HHXAV7LX941ERMH","A1K8VUKRL53OX","3RKHNXPHGWIRLJ219DNI80W3E6SKUF","","","null","","","","","","","","","",""
"129.40000000037253","","image-keyboard-response","130","273335","0.0-130.0","3KV0LJBBH37WHZ8HHXAV7LX941ERMH","A1K8VUKRL53OX","3RKHNXPHGWIRLJ219DNI80W3E6SKUF","","img/set1/S2.jpg","83","2","structured_load","68","structured_load,random,structured_incentive,structured_normal","","1,3,4,2","false","","",""
"null","","html-keyboard-response","131","273698","0.0-131.0","3KV0LJBBH37WHZ8HHXAV7LX941ERMH","A1K8VUKRL53OX","3RKHNXPHGWIRLJ219DNI80W3E6SKUF","","<img src=""img/set1/S2.jpg"" width=""540"" height = ""360"">","null","","","","","","","","","",""
"null","","html-keyboard-response","132","273901","0.0-132.0","3KV0LJBBH37WHZ8HHXAV7LX941ERMH","A1K8VUKRL53OX","3RKHNXPHGWIRLJ219DNI80W3E6SKUF","","","null","","","","","","","","","",""
"449.19999999925494","","image-keyboard-response","133","274352","0.0-133.0","3KV0LJBBH37WHZ8HHXAV7LX941ERMH","A1K8VUKRL53OX","3RKHNXPHGWIRLJ219DNI80W3E6SKUF","","img/set1/S4.jpg","68","4","structured_load","74","structured_load,random,structured_incentive,structured_normal","","1,3,4,2","false","","",""
"null","","html-keyboard-response","134","274709","0.0-134.0","3KV0LJBBH37WHZ8HHXAV7LX941ERMH","A1K8VUKRL53OX","3RKHNXPHGWIRLJ219DNI80W3E6SKUF","","<img src=""img/set1/S4.jpg"" width=""540"" height = ""360"">","null","","","","","","","","","",""
"null","","html-keyboard-response","135","274917","0.0-135.0","3KV0LJBBH37WHZ8HHXAV7LX941ERMH","A1K8VUKRL53OX","3RKHNXPHGWIRLJ219DNI80W3E6SKUF","","","null","","","","","","","","","",""
"523.2000000011176","","image-keyboard-response","136","275442","0.0-136.0","3KV0LJBBH37WHZ8HHXAV7LX941ERMH","A1K8VUKRL53OX","3RKHNXPHGWIRLJ219DNI80W3E6SKUF","","img/set1/S2.jpg","72","2","structured_load","68","structured_load,random,structured_incentive,structured_normal","","1,3,4,2","false","","",""
"null","","html-keyboard-response","137","275799","0.0-137.0","3KV0LJBBH37WHZ8HHXAV7LX941ERMH","A1K8VUKRL53OX","3RKHNXPHGWIRLJ219DNI80W3E6SKUF","","<img src=""img/set1/S2.jpg"" width=""540"" height = ""360"">","null","","","","","","","","","",""
"null","","html-keyboard-response","138","276007","0.0-138.0","3KV0LJBBH37WHZ8HHXAV7LX941ERMH","A1K8VUKRL53OX","3RKHNXPHGWIRLJ219DNI80W3E6SKUF","","","null","","","","","","","","","",""
"249.59999999962747","","image-keyboard-response","139","276259","0.0-139.0","3KV0LJBBH37WHZ8HHXAV7LX941ERMH","A1K8VUKRL53OX","3RKHNXPHGWIRLJ219DNI80W3E6SKUF","","img/set1/S4.jpg","74","4","structured_load","74","structured_load,random,structured_incentive,structured_normal","","1,3,4,2","true","","",""
"null","","html-keyboard-response","140","276613","0.0-140.0","3KV0LJBBH37WHZ8HHXAV7LX941ERMH","A1K8VUKRL53OX","3RKHNXPHGWIRLJ219DNI80W3E6SKUF","","<img src=""img/set1/S4.jpg"" width=""540"" height = ""360"" style=""border:16px solid orange"">","null","","","","","","","","","",""
"null","","html-keyboard-response","141","276820","0.0-141.0","3KV0LJBBH37WHZ8HHXAV7LX941ERMH","A1K8VUKRL53OX","3RKHNXPHGWIRLJ219DNI80W3E6SKUF","","","null","","","","","","","","","",""
"475.30000000074506","","image-keyboard-response","142","277298","0.0-142.0","3KV0LJBBH37WHZ8HHXAV7LX941ERMH","A1K8VUKRL53OX","3RKHNXPHGWIRLJ219DNI80W3E6SKUF","","img/set1/S4.jpg","74","4","structured_load","74","structured_load,random,structured_incentive,structured_normal","","1,3,4,2","true","","",""
"null","","html-keyboard-response","143","277663","0.0-143.0","3KV0LJBBH37WHZ8HHXAV7LX941ERMH","A1K8VUKRL53OX","3RKHNXPHGWIRLJ219DNI80W3E6SKUF","","<img src=""img/set1/S4.jpg"" width=""540"" height = ""360"" style=""border:16px solid orange"">","null","","","","","","","","","",""
"null","","html-keyboard-response","144","277870","0.0-144.0","3KV0LJBBH37WHZ8HHXAV7LX941ERMH","A1K8VUKRL53OX","3RKHNXPHGWIRLJ219DNI80W3E6SKUF","","","null","","","","","","","","","",""
"1190.0999999996275","","image-keyboard-response","145","279063","0.0-145.0","3KV0LJBBH37WHZ8HHXAV7LX941ERMH","A1K8VUKRL53OX","3RKHNXPHGWIRLJ219DNI80W3E6SKUF","","img/set1/S1.jpg","74","1","structured_load","83","structured_load,random,structured_incentive,structured_normal","","1,3,4,2","false","","",""
"null","","html-keyboard-response","146","279424","0.0-146.0","3KV0LJBBH37WHZ8HHXAV7LX941ERMH","A1K8VUKRL53OX","3RKHNXPHGWIRLJ219DNI80W3E6SKUF","","<img src=""img/set1/S1.jpg"" width=""540"" height = ""360"">","null","","","","","","","","","",""
"null","","html-keyboard-response","147","279632","0.0-147.0","3KV0LJBBH37WHZ8HHXAV7LX941ERMH","A1K8VUKRL53OX","3RKHNXPHGWIRLJ219DNI80W3E6SKUF","","","null","","","","","","","","","",""
"205.90000000037253","","image-keyboard-response","148","279840","0.0-148.0","3KV0LJBBH37WHZ8HHXAV7LX941ERMH","A1K8VUKRL53OX","3RKHNXPHGWIRLJ219DNI80W3E6SKUF","","img/set1/S1.jpg","72","1","structured_load","83","structured_load,random,structured_incentive,structured_normal","","1,3,4,2","false","","",""
"null","","html-keyboard-response","149","280198","0.0-149.0","3KV0LJBBH37WHZ8HHXAV7LX941ERMH","A1K8VUKRL53OX","3RKHNXPHGWIRLJ219DNI80W3E6SKUF","","<img src=""img/set1/S1.jpg"" width=""540"" height = ""360"">","null","","","","","","","","","",""
"null","","html-keyboard-response","150","280406","0.0-150.0","3KV0LJBBH37WHZ8HHXAV7LX941ERMH","A1K8VUKRL53OX","3RKHNXPHGWIRLJ219DNI80W3E6SKUF","","","null","","","","","","","","","",""
"439.09999999962747","","image-keyboard-response","151","280847","0.0-151.0","3KV0LJBBH37WHZ8HHXAV7LX941ERMH","A1K8VUKRL53OX","3RKHNXPHGWIRLJ219DNI80W3E6SKUF","","img/set1/S2.jpg","68","2","structured_load","68","structured_load,random,structured_incentive,structured_normal","","1,3,4,2","true","","",""
"null","","html-keyboard-response","152","281207","0.0-152.0","3KV0LJBBH37WHZ8HHXAV7LX941ERMH","A1K8VUKRL53OX","3RKHNXPHGWIRLJ219DNI80W3E6SKUF","","<img src=""img/set1/S2.jpg"" width=""540"" height = ""360"" style=""border:16px solid orange"">","null","","","","","","","","","",""
"null","","html-keyboard-response","153","281412","0.0-153.0","3KV0LJBBH37WHZ8HHXAV7LX941ERMH","A1K8VUKRL53OX","3RKHNXPHGWIRLJ219DNI80W3E6SKUF","","","null","","","","","","","","","",""
"492.30000000074506","","image-keyboard-response","154","281907","0.0-154.0","3KV0LJBBH37WHZ8HHXAV7LX941ERMH","A1K8VUKRL53OX","3RKHNXPHGWIRLJ219DNI80W3E6SKUF","","img/set1/S3.jpg","68","3","structured_load","72","structured_load,random,structured_incentive,structured_normal","","1,3,4,2","false","","",""
"null","","html-keyboard-response","155","282267","0.0-155.0","3KV0LJBBH37WHZ8HHXAV7LX941ERMH","A1K8VUKRL53OX","3RKHNXPHGWIRLJ219DNI80W3E6SKUF","","<img src=""img/set1/S3.jpg"" width=""540"" height = ""360"">","null","","","","","","","","","",""
"null","","html-keyboard-response","156","282474","0.0-156.0","3KV0LJBBH37WHZ8HHXAV7LX941ERMH","A1K8VUKRL53OX","3RKHNXPHGWIRLJ219DNI80W3E6SKUF","","","null","","","","","","","","","",""
"407","","image-keyboard-response","157","282884","0.0-157.0","3KV0LJBBH37WHZ8HHXAV7LX941ERMH","A1K8VUKRL53OX","3RKHNXPHGWIRLJ219DNI80W3E6SKUF","","img/set1/S2.jpg","68","2","structured_load","68","structured_load,random,structured_incentive,structured_normal","","1,3,4,2","true","","",""
"null","","html-keyboard-response","158","283242","0.0-158.0","3KV0LJBBH37WHZ8HHXAV7LX941ERMH","A1K8VUKRL53OX","3RKHNXPHGWIRLJ219DNI80W3E6SKUF","","<img src=""img/set1/S2.jpg"" width=""540"" height = ""360"" style=""border:16px solid orange"">","null","","","","","","","","","",""
"null","","html-keyboard-response","159","283459","0.0-159.0","3KV0LJBBH37WHZ8HHXAV7LX941ERMH","A1K8VUKRL53OX","3RKHNXPHGWIRLJ219DNI80W3E6SKUF","","","null","","","","","","","","","",""
"513.9000000003725","","image-keyboard-response","160","283975","0.0-160.0","3KV0LJBBH37WHZ8HHXAV7LX941ERMH","A1K8VUKRL53OX","3RKHNXPHGWIRLJ219DNI80W3E6SKUF","","img/set1/S3.jpg","68","3","structured_load","72","structured_load,random,structured_incentive,structured_normal","","1,3,4,2","false","","",""
"null","","html-keyboard-response","161","284334","0.0-161.0","3KV0LJBBH37WHZ8HHXAV7LX941ERMH","A1K8VUKRL53OX","3RKHNXPHGWIRLJ219DNI80W3E6SKUF","","<img src=""img/set1/S3.jpg"" width=""540"" height = ""360"">","null","","","","","","","","","",""
"null","","html-keyboard-response","162","284538","0.0-162.0","3KV0LJBBH37WHZ8HHXAV7LX941ERMH","A1K8VUKRL53OX","3RKHNXPHGWIRLJ219DNI80W3E6SKUF","","","null","","","","","","","","","",""
"524.2999999988824","","image-keyboard-response","163","285065","0.0-163.0","3KV0LJBBH37WHZ8HHXAV7LX941ERMH","A1K8VUKRL53OX","3RKHNXPHGWIRLJ219DNI80W3E6SKUF","","img/set1/S2.jpg","83","2","structured_load","68","structured_load,random,structured_incentive,structured_normal","","1,3,4,2","false","","",""
"null","","html-keyboard-response","164","285420","0.0-164.0","3KV0LJBBH37WHZ8HHXAV7LX941ERMH","A1K8VUKRL53OX","3RKHNXPHGWIRLJ219DNI80W3E6SKUF","","<img src=""img/set1/S2.jpg"" width=""540"" height = ""360"">","null","","","","","","","","","",""
"null","","html-keyboard-response","165","285627","0.0-165.0","3KV0LJBBH37WHZ8HHXAV7LX941ERMH","A1K8VUKRL53OX","3RKHNXPHGWIRLJ219DNI80W3E6SKUF","","","null","","","","","","","","","",""
"242.2000000011176","","image-keyboard-response","166","285872","0.0-166.0","3KV0LJBBH37WHZ8HHXAV7LX941ERMH","A1K8VUKRL53OX","3RKHNXPHGWIRLJ219DNI80W3E6SKUF","","img/set1/S4.jpg","83","4","structured_load","74","structured_load,random,structured_incentive,structured_normal","","1,3,4,2","false","","",""
"null","","html-keyboard-response","167","286230","0.0-167.0","3KV0LJBBH37WHZ8HHXAV7LX941ERMH","A1K8VUKRL53OX","3RKHNXPHGWIRLJ219DNI80W3E6SKUF","","<img src=""img/set1/S4.jpg"" width=""540"" height = ""360"">","null","","","","","","","","","",""
"null","","html-keyboard-response","168","286445","0.0-168.0","3KV0LJBBH37WHZ8HHXAV7LX941ERMH","A1K8VUKRL53OX","3RKHNXPHGWIRLJ219DNI80W3E6SKUF","","","null","","","","","","","","","",""
"342.40000000037253","","image-keyboard-response","169","286790","0.0-169.0","3KV0LJBBH37WHZ8HHXAV7LX941ERMH","A1K8VUKRL53OX","3RKHNXPHGWIRLJ219DNI80W3E6SKUF","","img/set1/S2.jpg","72","2","structured_load","68","structured_load,random,structured_incentive,structured_normal","","1,3,4,2","false","","",""
"null","","html-keyboard-response","170","287150","0.0-170.0","3KV0LJBBH37WHZ8HHXAV7LX941ERMH","A1K8VUKRL53OX","3RKHNXPHGWIRLJ219DNI80W3E6SKUF","","<img src=""img/set1/S2.jpg"" width=""540"" height = ""360"">","null","","","","","","","","","",""
"null","","html-keyboard-response","171","287357","0.0-171.0","3KV0LJBBH37WHZ8HHXAV7LX941ERMH","A1K8VUKRL53OX","3RKHNXPHGWIRLJ219DNI80W3E6SKUF","","","null","","","","","","","","","",""
"118.09999999962747","","image-keyboard-response","172","287478","0.0-172.0","3KV0LJBBH37WHZ8HHXAV7LX941ERMH","A1K8VUKRL53OX","3RKHNXPHGWIRLJ219DNI80W3E6SKUF","","img/set1/S3.jpg","74","3","structured_load","72","structured_load,random,structured_incentive,structured_normal","","1,3,4,2","false","","",""
"null","","html-keyboard-response","173","287831","0.0-173.0","3KV0LJBBH37WHZ8HHXAV7LX941ERMH","A1K8VUKRL53OX","3RKHNXPHGWIRLJ219DNI80W3E6SKUF","","<img src=""img/set1/S3.jpg"" width=""540"" height = ""360"">","null","","","","","","","","","",""
"null","","html-keyboard-response","174","288041","0.0-174.0","3KV0LJBBH37WHZ8HHXAV7LX941ERMH","A1K8VUKRL53OX","3RKHNXPHGWIRLJ219DNI80W3E6SKUF","","","null","","","","","","","","","",""
"171.59999999962747","","image-keyboard-response","175","288214","0.0-175.0","3KV0LJBBH37WHZ8HHXAV7LX941ERMH","A1K8VUKRL53OX","3RKHNXPHGWIRLJ219DNI80W3E6SKUF","","img/set1/S1.jpg","72","1","structured_load","83","structured_load,random,structured_incentive,structured_normal","","1,3,4,2","false","","",""
"null","","html-keyboard-response","176","288569","0.0-176.0","3KV0LJBBH37WHZ8HHXAV7LX941ERMH","A1K8VUKRL53OX","3RKHNXPHGWIRLJ219DNI80W3E6SKUF","","<img src=""img/set1/S1.jpg"" width=""540"" height = ""360"">","null","","","","","","","","","",""
"null","","html-keyboard-response","177","288774","0.0-177.0","3KV0LJBBH37WHZ8HHXAV7LX941ERMH","A1K8VUKRL53OX","3RKHNXPHGWIRLJ219DNI80W3E6SKUF","","","null","","","","","","","","","",""
"93.29999999888241","","image-keyboard-response","178","288869","0.0-178.0","3KV0LJBBH37WHZ8HHXAV7LX941ERMH","A1K8VUKRL53OX","3RKHNXPHGWIRLJ219DNI80W3E6SKUF","","img/set1/S1.jpg","68","1","structured_load","83","structured_load,random,structured_incentive,structured_normal","","1,3,4,2","false","","",""
"null","","html-keyboard-response","179","289229","0.0-179.0","3KV0LJBBH37WHZ8HHXAV7LX941ERMH","A1K8VUKRL53OX","3RKHNXPHGWIRLJ219DNI80W3E6SKUF","","<img src=""img/set1/S1.jpg"" width=""540"" height = ""360"">","null","","","","","","","","","",""
"null","","html-keyboard-response","180","289445","0.0-180.0","3KV0LJBBH37WHZ8HHXAV7LX941ERMH","A1K8VUKRL53OX","3RKHNXPHGWIRLJ219DNI80W3E6SKUF","","","null","","","","","","","","","",""
"85.80000000074506","","image-keyboard-response","181","289534","0.0-181.0","3KV0LJBBH37WHZ8HHXAV7LX941ERMH","A1K8VUKRL53OX","3RKHNXPHGWIRLJ219DNI80W3E6SKUF","","img/set1/S3.jpg","83","3","structured_load","72","structured_load,random,structured_incentive,structured_normal","","1,3,4,2","false","","",""
"null","","html-keyboard-response","182","289894","0.0-182.0","3KV0LJBBH37WHZ8HHXAV7LX941ERMH","A1K8VUKRL53OX","3RKHNXPHGWIRLJ219DNI80W3E6SKUF","","<img src=""img/set1/S3.jpg"" width=""540"" height = ""360"">","null","","","","","","","","","",""
"null","","html-keyboard-response","183","290102","0.0-183.0","3KV0LJBBH37WHZ8HHXAV7LX941ERMH","A1K8VUKRL53OX","3RKHNXPHGWIRLJ219DNI80W3E6SKUF","","","null","","","","","","","","","",""
"328.09999999962747","","image-keyboard-response","184","290433","0.0-184.0","3KV0LJBBH37WHZ8HHXAV7LX941ERMH","A1K8VUKRL53OX","3RKHNXPHGWIRLJ219DNI80W3E6SKUF","","img/set1/S1.jpg","68","1","structured_load","83","structured_load,random,structured_incentive,structured_normal","","1,3,4,2","false","","",""
"null","","html-keyboard-response","185","290792","0.0-185.0","3KV0LJBBH37WHZ8HHXAV7LX941ERMH","A1K8VUKRL53OX","3RKHNXPHGWIRLJ219DNI80W3E6SKUF","","<img src=""img/set1/S1.jpg"" width=""540"" height = ""360"">","null","","","","","","","","","",""
"null","","html-keyboard-response","186","291007","0.0-186.0","3KV0LJBBH37WHZ8HHXAV7LX941ERMH","A1K8VUKRL53OX","3RKHNXPHGWIRLJ219DNI80W3E6SKUF","","","null","","","","","","","","","",""
"471.19999999925494","","image-keyboard-response","187","291481","0.0-187.0","3KV0LJBBH37WHZ8HHXAV7LX941ERMH","A1K8VUKRL53OX","3RKHNXPHGWIRLJ219DNI80W3E6SKUF","","img/set1/S3.jpg","72","3","structured_load","72","structured_load,random,structured_incentive,structured_normal","","1,3,4,2","true","","",""
"null","","html-keyboard-response","188","291841","0.0-188.0","3KV0LJBBH37WHZ8HHXAV7LX941ERMH","A1K8VUKRL53OX","3RKHNXPHGWIRLJ219DNI80W3E6SKUF","","<img src=""img/set1/S3.jpg"" width=""540"" height = ""360"" style=""border:16px solid orange"">","null","","","","","","","","","",""
"null","","html-keyboard-response","189","292049","0.0-189.0","3KV0LJBBH37WHZ8HHXAV7LX941ERMH","A1K8VUKRL53OX","3RKHNXPHGWIRLJ219DNI80W3E6SKUF","","","null","","","","","","","","","",""
"457","","image-keyboard-response","190","292509","0.0-190.0","3KV0LJBBH37WHZ8HHXAV7LX941ERMH","A1K8VUKRL53OX","3RKHNXPHGWIRLJ219DNI80W3E6SKUF","","img/set1/S2.jpg","74","2","structured_load","68","structured_load,random,structured_incentive,structured_normal","","1,3,4,2","false","","",""
"null","","html-keyboard-response","191","292874","0.0-191.0","3KV0LJBBH37WHZ8HHXAV7LX941ERMH","A1K8VUKRL53OX","3RKHNXPHGWIRLJ219DNI80W3E6SKUF","","<img src=""img/set1/S2.jpg"" width=""540"" height = ""360"">","null","","","","","","","","","",""
"null","","html-keyboard-response","192","293080","0.0-192.0","3KV0LJBBH37WHZ8HHXAV7LX941ERMH","A1K8VUKRL53OX","3RKHNXPHGWIRLJ219DNI80W3E6SKUF","","","null","","","","","","","","","",""
"466.59999999962747","","image-keyboard-response","193","293549","0.0-193.0","3KV0LJBBH37WHZ8HHXAV7LX941ERMH","A1K8VUKRL53OX","3RKHNXPHGWIRLJ219DNI80W3E6SKUF","","img/set1/S4.jpg","72","4","structured_load","74","structured_load,random,structured_incentive,structured_normal","","1,3,4,2","false","","",""
"null","","html-keyboard-response","194","293909","0.0-194.0","3KV0LJBBH37WHZ8HHXAV7LX941ERMH","A1K8VUKRL53OX","3RKHNXPHGWIRLJ219DNI80W3E6SKUF","","<img src=""img/set1/S4.jpg"" width=""540"" height = ""360"">","null","","","","","","","","","",""
"null","","html-keyboard-response","195","294126","0.0-195.0","3KV0LJBBH37WHZ8HHXAV7LX941ERMH","A1K8VUKRL53OX","3RKHNXPHGWIRLJ219DNI80W3E6SKUF","","","null","","","","","","","","","",""
"24.5","","image-keyboard-response","196","294152","0.0-196.0","3KV0LJBBH37WHZ8HHXAV7LX941ERMH","A1K8VUKRL53OX","3RKHNXPHGWIRLJ219DNI80W3E6SKUF","","img/set1/S2.jpg","83","2","structured_load","68","structured_load,random,structured_incentive,structured_normal","","1,3,4,2","false","","",""
"null","","html-keyboard-response","197","294509","0.0-197.0","3KV0LJBBH37WHZ8HHXAV7LX941ERMH","A1K8VUKRL53OX","3RKHNXPHGWIRLJ219DNI80W3E6SKUF","","<img src=""img/set1/S2.jpg"" width=""540"" height = ""360"">","null","","","","","","","","","",""
"null","","html-keyboard-response","198","294714","0.0-198.0","3KV0LJBBH37WHZ8HHXAV7LX941ERMH","A1K8VUKRL53OX","3RKHNXPHGWIRLJ219DNI80W3E6SKUF","","","null","","","","","","","","","",""
"384.5","","image-keyboard-response","199","295103","0.0-199.0","3KV0LJBBH37WHZ8HHXAV7LX941ERMH","A1K8VUKRL53OX","3RKHNXPHGWIRLJ219DNI80W3E6SKUF","","img/set1/S3.jpg","68","3","structured_load","72","structured_load,random,structured_incentive,structured_normal","","1,3,4,2","false","","",""
"null","","html-keyboard-response","200","295460","0.0-200.0","3KV0LJBBH37WHZ8HHXAV7LX941ERMH","A1K8VUKRL53OX","3RKHNXPHGWIRLJ219DNI80W3E6SKUF","","<img src=""img/set1/S3.jpg"" width=""540"" height = ""360"">","null","","","","","","","","","",""
"null","","html-keyboard-response","201","295669","0.0-201.0","3KV0LJBBH37WHZ8HHXAV7LX941ERMH","A1K8VUKRL53OX","3RKHNXPHGWIRLJ219DNI80W3E6SKUF","","","null","","","","","","","","","",""
"439.5","","image-keyboard-response","202","296111","0.0-202.0","3KV0LJBBH37WHZ8HHXAV7LX941ERMH","A1K8VUKRL53OX","3RKHNXPHGWIRLJ219DNI80W3E6SKUF","","img/set1/S1.jpg","83","1","structured_load","83","structured_load,random,structured_incentive,structured_normal","","1,3,4,2","true","","",""
"null","","html-keyboard-response","203","296466","0.0-203.0","3KV0LJBBH37WHZ8HHXAV7LX941ERMH","A1K8VUKRL53OX","3RKHNXPHGWIRLJ219DNI80W3E6SKUF","","<img src=""img/set1/S1.jpg"" width=""540"" height = ""360"" style=""border:16px solid orange"">","null","","","","","","","","","",""
"null","","html-keyboard-response","204","296681","0.0-204.0","3KV0LJBBH37WHZ8HHXAV7LX941ERMH","A1K8VUKRL53OX","3RKHNXPHGWIRLJ219DNI80W3E6SKUF","","","null","","","","","","","","","",""
"486.7999999988824","","image-keyboard-response","205","297170","0.0-205.0","3KV0LJBBH37WHZ8HHXAV7LX941ERMH","A1K8VUKRL53OX","3RKHNXPHGWIRLJ219DNI80W3E6SKUF","","img/set1/S1.jpg","83","1","structured_load","83","structured_load,random,structured_incentive,structured_normal","","1,3,4,2","true","","",""
"null","","html-keyboard-response","206","297526","0.0-206.0","3KV0LJBBH37WHZ8HHXAV7LX941ERMH","A1K8VUKRL53OX","3RKHNXPHGWIRLJ219DNI80W3E6SKUF","","<img src=""img/set1/S1.jpg"" width=""540"" height = ""360"" style=""border:16px solid orange"">","null","","","","","","","","","",""
"null","","html-keyboard-response","207","297740","0.0-207.0","3KV0LJBBH37WHZ8HHXAV7LX941ERMH","A1K8VUKRL53OX","3RKHNXPHGWIRLJ219DNI80W3E6SKUF","","","null","","","","","","","","","",""
"407.7999999988824","","image-keyboard-response","208","298150","0.0-208.0","3KV0LJBBH37WHZ8HHXAV7LX941ERMH","A1K8VUKRL53OX","3RKHNXPHGWIRLJ219DNI80W3E6SKUF","","img/set1/S2.jpg","83","2","structured_load","68","structured_load,random,structured_incentive,structured_normal","","1,3,4,2","false","","",""
"null","","html-keyboard-response","209","298510","0.0-209.0","3KV0LJBBH37WHZ8HHXAV7LX941ERMH","A1K8VUKRL53OX","3RKHNXPHGWIRLJ219DNI80W3E6SKUF","","<img src=""img/set1/S2.jpg"" width=""540"" height = ""360"">","null","","","","","","","","","",""
"null","","html-keyboard-response","210","298717","0.0-210.0","3KV0LJBBH37WHZ8HHXAV7LX941ERMH","A1K8VUKRL53OX","3RKHNXPHGWIRLJ219DNI80W3E6SKUF","","","null","","","","","","","","","",""
"488","","image-keyboard-response","211","299208","0.0-211.0","3KV0LJBBH37WHZ8HHXAV7LX941ERMH","A1K8VUKRL53OX","3RKHNXPHGWIRLJ219DNI80W3E6SKUF","","img/set1/S3.jpg","68","3","structured_load","72","structured_load,random,structured_incentive,structured_normal","","1,3,4,2","false","","",""
"null","","html-keyboard-response","212","299568","0.0-212.0","3KV0LJBBH37WHZ8HHXAV7LX941ERMH","A1K8VUKRL53OX","3RKHNXPHGWIRLJ219DNI80W3E6SKUF","","<img src=""img/set1/S3.jpg"" width=""540"" height = ""360"">","null","","","","","","","","","",""
"null","","html-keyboard-response","213","299775","0.0-213.0","3KV0LJBBH37WHZ8HHXAV7LX941ERMH","A1K8VUKRL53OX","3RKHNXPHGWIRLJ219DNI80W3E6SKUF","","","null","","","","","","","","","",""
"541.7000000011176","","image-keyboard-response","214","300319","0.0-214.0","3KV0LJBBH37WHZ8HHXAV7LX941ERMH","A1K8VUKRL53OX","3RKHNXPHGWIRLJ219DNI80W3E6SKUF","","img/set1/S2.jpg","68","2","structured_load","68","structured_load,random,structured_incentive,structured_normal","","1,3,4,2","true","","",""
"null","","html-keyboard-response","215","300679","0.0-215.0","3KV0LJBBH37WHZ8HHXAV7LX941ERMH","A1K8VUKRL53OX","3RKHNXPHGWIRLJ219DNI80W3E6SKUF","","<img src=""img/set1/S2.jpg"" width=""540"" height = ""360"" style=""border:16px solid orange"">","null","","","","","","","","","",""
"null","","html-keyboard-response","216","300885","0.0-216.0","3KV0LJBBH37WHZ8HHXAV7LX941ERMH","A1K8VUKRL53OX","3RKHNXPHGWIRLJ219DNI80W3E6SKUF","","","null","","","","","","","","","",""
"410.59999999962747","","image-keyboard-response","217","301299","0.0-217.0","3KV0LJBBH37WHZ8HHXAV7LX941ERMH","A1K8VUKRL53OX","3RKHNXPHGWIRLJ219DNI80W3E6SKUF","","img/set1/S4.jpg","68","4","structured_load","74","structured_load,random,structured_incentive,structured_normal","","1,3,4,2","false","","",""
"null","","html-keyboard-response","218","301654","0.0-218.0","3KV0LJBBH37WHZ8HHXAV7LX941ERMH","A1K8VUKRL53OX","3RKHNXPHGWIRLJ219DNI80W3E6SKUF","","<img src=""img/set1/S4.jpg"" width=""540"" height = ""360"">","null","","","","","","","","","",""
"null","","html-keyboard-response","219","301861","0.0-219.0","3KV0LJBBH37WHZ8HHXAV7LX941ERMH","A1K8VUKRL53OX","3RKHNXPHGWIRLJ219DNI80W3E6SKUF","","","null","","","","","","","","","",""
"392.7000000011176","","image-keyboard-response","220","302256","0.0-220.0","3KV0LJBBH37WHZ8HHXAV7LX941ERMH","A1K8VUKRL53OX","3RKHNXPHGWIRLJ219DNI80W3E6SKUF","","img/set1/S1.jpg","83","1","structured_load","83","structured_load,random,structured_incentive,structured_normal","","1,3,4,2","true","","",""
"null","","html-keyboard-response","221","302616","0.0-221.0","3KV0LJBBH37WHZ8HHXAV7LX941ERMH","A1K8VUKRL53OX","3RKHNXPHGWIRLJ219DNI80W3E6SKUF","","<img src=""img/set1/S1.jpg"" width=""540"" height = ""360"" style=""border:16px solid orange"">","null","","","","","","","","","",""
"null","","html-keyboard-response","222","302826","0.0-222.0","3KV0LJBBH37WHZ8HHXAV7LX941ERMH","A1K8VUKRL53OX","3RKHNXPHGWIRLJ219DNI80W3E6SKUF","","","null","","","","","","","","","",""
"352.7999999988824","","image-keyboard-response","223","303183","0.0-223.0","3KV0LJBBH37WHZ8HHXAV7LX941ERMH","A1K8VUKRL53OX","3RKHNXPHGWIRLJ219DNI80W3E6SKUF","","img/set1/S1.jpg","83","1","structured_load","83","structured_load,random,structured_incentive,structured_normal","","1,3,4,2","true","","",""
"null","","html-keyboard-response","224","303539","0.0-224.0","3KV0LJBBH37WHZ8HHXAV7LX941ERMH","A1K8VUKRL53OX","3RKHNXPHGWIRLJ219DNI80W3E6SKUF","","<img src=""img/set1/S1.jpg"" width=""540"" height = ""360"" style=""border:16px solid orange"">","null","","","","","","","","","",""
"null","","html-keyboard-response","225","303745","0.0-225.0","3KV0LJBBH37WHZ8HHXAV7LX941ERMH","A1K8VUKRL53OX","3RKHNXPHGWIRLJ219DNI80W3E6SKUF","","","null","","","","","","","","","",""
"423.90000000037253","","image-keyboard-response","226","304171","0.0-226.0","3KV0LJBBH37WHZ8HHXAV7LX941ERMH","A1K8VUKRL53OX","3RKHNXPHGWIRLJ219DNI80W3E6SKUF","","img/set1/S2.jpg","83","2","structured_load","68","structured_load,random,structured_incentive,structured_normal","","1,3,4,2","false","","",""
"null","","html-keyboard-response","227","304524","0.0-227.0","3KV0LJBBH37WHZ8HHXAV7LX941ERMH","A1K8VUKRL53OX","3RKHNXPHGWIRLJ219DNI80W3E6SKUF","","<img src=""img/set1/S2.jpg"" width=""540"" height = ""360"">","null","","","","","","","","","",""
"null","","html-keyboard-response","228","304728","0.0-228.0","3KV0LJBBH37WHZ8HHXAV7LX941ERMH","A1K8VUKRL53OX","3RKHNXPHGWIRLJ219DNI80W3E6SKUF","","","null","","","","","","","","","",""
"622.1999999992549","","image-keyboard-response","229","305353","0.0-229.0","3KV0LJBBH37WHZ8HHXAV7LX941ERMH","A1K8VUKRL53OX","3RKHNXPHGWIRLJ219DNI80W3E6SKUF","","img/set1/S3.jpg","68","3","structured_load","72","structured_load,random,structured_incentive,structured_normal","","1,3,4,2","false","","",""
"null","","html-keyboard-response","230","305714","0.0-230.0","3KV0LJBBH37WHZ8HHXAV7LX941ERMH","A1K8VUKRL53OX","3RKHNXPHGWIRLJ219DNI80W3E6SKUF","","<img src=""img/set1/S3.jpg"" width=""540"" height = ""360"">","null","","","","","","","","","",""
"null","","html-keyboard-response","231","305923","0.0-231.0","3KV0LJBBH37WHZ8HHXAV7LX941ERMH","A1K8VUKRL53OX","3RKHNXPHGWIRLJ219DNI80W3E6SKUF","","","null","","","","","","","","","",""
"406.7999999988824","","image-keyboard-response","232","306332","0.0-232.0","3KV0LJBBH37WHZ8HHXAV7LX941ERMH","A1K8VUKRL53OX","3RKHNXPHGWIRLJ219DNI80W3E6SKUF","","img/set1/S2.jpg","83","2","structured_load","68","structured_load,random,structured_incentive,structured_normal","","1,3,4,2","false","","",""
"null","","html-keyboard-response","233","306687","0.0-233.0","3KV0LJBBH37WHZ8HHXAV7LX941ERMH","A1K8VUKRL53OX","3RKHNXPHGWIRLJ219DNI80W3E6SKUF","","<img src=""img/set1/S2.jpg"" width=""540"" height = ""360"">","null","","","","","","","","","",""
"null","","html-keyboard-response","234","306895","0.0-234.0","3KV0LJBBH37WHZ8HHXAV7LX941ERMH","A1K8VUKRL53OX","3RKHNXPHGWIRLJ219DNI80W3E6SKUF","","","null","","","","","","","","","",""
"412.5","","image-keyboard-response","235","307310","0.0-235.0","3KV0LJBBH37WHZ8HHXAV7LX941ERMH","A1K8VUKRL53OX","3RKHNXPHGWIRLJ219DNI80W3E6SKUF","","img/set1/S3.jpg","72","3","structured_load","72","structured_load,random,structured_incentive,structured_normal","","1,3,4,2","true","","",""
"null","","html-keyboard-response","236","307669","0.0-236.0","3KV0LJBBH37WHZ8HHXAV7LX941ERMH","A1K8VUKRL53OX","3RKHNXPHGWIRLJ219DNI80W3E6SKUF","","<img src=""img/set1/S3.jpg"" width=""540"" height = ""360"" style=""border:16px solid orange"">","null","","","","","","","","","",""
"null","","html-keyboard-response","237","307874","0.0-237.0","3KV0LJBBH37WHZ8HHXAV7LX941ERMH","A1K8VUKRL53OX","3RKHNXPHGWIRLJ219DNI80W3E6SKUF","","","null","","","","","","","","","",""
"430.59999999962747","","image-keyboard-response","238","308308","0.0-238.0","3KV0LJBBH37WHZ8HHXAV7LX941ERMH","A1K8VUKRL53OX","3RKHNXPHGWIRLJ219DNI80W3E6SKUF","","img/set1/S4.jpg","72","4","structured_load","74","structured_load,random,structured_incentive,structured_normal","","1,3,4,2","false","","",""
"null","","html-keyboard-response","239","308667","0.0-239.0","3KV0LJBBH37WHZ8HHXAV7LX941ERMH","A1K8VUKRL53OX","3RKHNXPHGWIRLJ219DNI80W3E6SKUF","","<img src=""img/set1/S4.jpg"" width=""540"" height = ""360"">","null","","","","","","","","","",""
"null","","html-keyboard-response","240","308875","0.0-240.0","3KV0LJBBH37WHZ8HHXAV7LX941ERMH","A1K8VUKRL53OX","3RKHNXPHGWIRLJ219DNI80W3E6SKUF","","","null","","","","","","","","","",""
"389.59999999962747","","image-keyboard-response","241","309267","0.0-241.0","3KV0LJBBH37WHZ8HHXAV7LX941ERMH","A1K8VUKRL53OX","3RKHNXPHGWIRLJ219DNI80W3E6SKUF","","img/set1/S4.jpg","74","4","structured_load","74","structured_load,random,structured_incentive,structured_normal","","1,3,4,2","true","","",""
"null","","html-keyboard-response","242","309622","0.0-242.0","3KV0LJBBH37WHZ8HHXAV7LX941ERMH","A1K8VUKRL53OX","3RKHNXPHGWIRLJ219DNI80W3E6SKUF","","<img src=""img/set1/S4.jpg"" width=""540"" height = ""360"" style=""border:16px solid orange"">","null","","","","","","","","","",""
"null","","html-keyboard-response","243","309831","0.0-243.0","3KV0LJBBH37WHZ8HHXAV7LX941ERMH","A1K8VUKRL53OX","3RKHNXPHGWIRLJ219DNI80W3E6SKUF","","","null","","","","","","","","","",""
"672.1000000014901","","image-keyboard-response","244","310506","0.0-244.0","3KV0LJBBH37WHZ8HHXAV7LX941ERMH","A1K8VUKRL53OX","3RKHNXPHGWIRLJ219DNI80W3E6SKUF","","img/set1/S2.jpg","72","2","structured_load","68","structured_load,random,structured_incentive,structured_normal","","1,3,4,2","false","","",""
"null","","html-keyboard-response","245","310864","0.0-245.0","3KV0LJBBH37WHZ8HHXAV7LX941ERMH","A1K8VUKRL53OX","3RKHNXPHGWIRLJ219DNI80W3E6SKUF","","<img src=""img/set1/S2.jpg"" width=""540"" height = ""360"">","null","","","","","","","","","",""
"null","","html-keyboard-response","246","311073","0.0-246.0","3KV0LJBBH37WHZ8HHXAV7LX941ERMH","A1K8VUKRL53OX","3RKHNXPHGWIRLJ219DNI80W3E6SKUF","","","null","","","","","","","","","",""
"765.2000000011176","","image-keyboard-response","247","311840","0.0-247.0","3KV0LJBBH37WHZ8HHXAV7LX941ERMH","A1K8VUKRL53OX","3RKHNXPHGWIRLJ219DNI80W3E6SKUF","","img/set1/S3.jpg","72","3","structured_load","72","structured_load,random,structured_incentive,structured_normal","","1,3,4,2","true","","",""
"null","","html-keyboard-response","248","312199","0.0-248.0","3KV0LJBBH37WHZ8HHXAV7LX941ERMH","A1K8VUKRL53OX","3RKHNXPHGWIRLJ219DNI80W3E6SKUF","","<img src=""img/set1/S3.jpg"" width=""540"" height = ""360"" style=""border:16px solid orange"">","null","","","","","","","","","",""
"null","","html-keyboard-response","249","312406","0.0-249.0","3KV0LJBBH37WHZ8HHXAV7LX941ERMH","A1K8VUKRL53OX","3RKHNXPHGWIRLJ219DNI80W3E6SKUF","","","null","","","","","","","","","",""
"702","","image-keyboard-response","250","313110","0.0-250.0","3KV0LJBBH37WHZ8HHXAV7LX941ERMH","A1K8VUKRL53OX","3RKHNXPHGWIRLJ219DNI80W3E6SKUF","","img/set1/S2.jpg","83","2","structured_load","68","structured_load,random,structured_incentive,structured_normal","","1,3,4,2","false","","",""
"null","","html-keyboard-response","251","313470","0.0-251.0","3KV0LJBBH37WHZ8HHXAV7LX941ERMH","A1K8VUKRL53OX","3RKHNXPHGWIRLJ219DNI80W3E6SKUF","","<img src=""img/set1/S2.jpg"" width=""540"" height = ""360"">","null","","","","","","","","","",""
"null","","html-keyboard-response","252","313680","0.0-252.0","3KV0LJBBH37WHZ8HHXAV7LX941ERMH","A1K8VUKRL53OX","3RKHNXPHGWIRLJ219DNI80W3E6SKUF","","","null","","","","","","","","","",""
"1099.199999999255","","image-keyboard-response","253","314784","0.0-253.0","3KV0LJBBH37WHZ8HHXAV7LX941ERMH","A1K8VUKRL53OX","3RKHNXPHGWIRLJ219DNI80W3E6SKUF","","img/set1/S4.jpg","74","4","structured_load","74","structured_load,random,structured_incentive,structured_normal","","1,3,4,2","true","","",""
"null","","html-keyboard-response","254","315141","0.0-254.0","3KV0LJBBH37WHZ8HHXAV7LX941ERMH","A1K8VUKRL53OX","3RKHNXPHGWIRLJ219DNI80W3E6SKUF","","<img src=""img/set1/S4.jpg"" width=""540"" height = ""360"" style=""border:16px solid orange"">","null","","","","","","","","","",""
"null","","html-keyboard-response","255","315347","0.0-255.0","3KV0LJBBH37WHZ8HHXAV7LX941ERMH","A1K8VUKRL53OX","3RKHNXPHGWIRLJ219DNI80W3E6SKUF","","","null","","","","","","","","","",""
"866.8000000007451","","image-keyboard-response","256","316216","0.0-256.0","3KV0LJBBH37WHZ8HHXAV7LX941ERMH","A1K8VUKRL53OX","3RKHNXPHGWIRLJ219DNI80W3E6SKUF","","img/set1/S1.jpg","83","1","structured_load","83","structured_load,random,structured_incentive,structured_normal","","1,3,4,2","true","","",""
"null","","html-keyboard-response","257","316570","0.0-257.0","3KV0LJBBH37WHZ8HHXAV7LX941ERMH","A1K8VUKRL53OX","3RKHNXPHGWIRLJ219DNI80W3E6SKUF","","<img src=""img/set1/S1.jpg"" width=""540"" height = ""360"" style=""border:16px solid orange"">","null","","","","","","","","","",""
"null","","html-keyboard-response","258","316774","0.0-258.0","3KV0LJBBH37WHZ8HHXAV7LX941ERMH","A1K8VUKRL53OX","3RKHNXPHGWIRLJ219DNI80W3E6SKUF","","","null","","","","","","","","","",""
"1275.5","","image-keyboard-response","259","318052","0.0-259.0","3KV0LJBBH37WHZ8HHXAV7LX941ERMH","A1K8VUKRL53OX","3RKHNXPHGWIRLJ219DNI80W3E6SKUF","","img/set1/S4.jpg","74","4","structured_load","74","structured_load,random,structured_incentive,structured_normal","","1,3,4,2","true","","",""
"null","","html-keyboard-response","260","318413","0.0-260.0","3KV0LJBBH37WHZ8HHXAV7LX941ERMH","A1K8VUKRL53OX","3RKHNXPHGWIRLJ219DNI80W3E6SKUF","","<img src=""img/set1/S4.jpg"" width=""540"" height = ""360"" style=""border:16px solid orange"">","null","","","","","","","","","",""
"null","","html-keyboard-response","261","318618","0.0-261.0","3KV0LJBBH37WHZ8HHXAV7LX941ERMH","A1K8VUKRL53OX","3RKHNXPHGWIRLJ219DNI80W3E6SKUF","","","null","","","","","","","","","",""
"721.8999999985099","","image-keyboard-response","262","319342","0.0-262.0","3KV0LJBBH37WHZ8HHXAV7LX941ERMH","A1K8VUKRL53OX","3RKHNXPHGWIRLJ219DNI80W3E6SKUF","","img/set1/S1.jpg","83","1","structured_load","83","structured_load,random,structured_incentive,structured_normal","","1,3,4,2","true","","",""
"null","","html-keyboard-response","263","319702","0.0-263.0","3KV0LJBBH37WHZ8HHXAV7LX941ERMH","A1K8VUKRL53OX","3RKHNXPHGWIRLJ219DNI80W3E6SKUF","","<img src=""img/set1/S1.jpg"" width=""540"" height = ""360"" style=""border:16px solid orange"">","null","","","","","","","","","",""
"null","","html-keyboard-response","264","319912","0.0-264.0","3KV0LJBBH37WHZ8HHXAV7LX941ERMH","A1K8VUKRL53OX","3RKHNXPHGWIRLJ219DNI80W3E6SKUF","","","null","","","","","","","","","",""
"799.5","","image-keyboard-response","265","320714","0.0-265.0","3KV0LJBBH37WHZ8HHXAV7LX941ERMH","A1K8VUKRL53OX","3RKHNXPHGWIRLJ219DNI80W3E6SKUF","","img/set1/S2.jpg","74","2","structured_load","68","structured_load,random,structured_incentive,structured_normal","","1,3,4,2","false","","",""
"null","","html-keyboard-response","266","321071","0.0-266.0","3KV0LJBBH37WHZ8HHXAV7LX941ERMH","A1K8VUKRL53OX","3RKHNXPHGWIRLJ219DNI80W3E6SKUF","","<img src=""img/set1/S2.jpg"" width=""540"" height = ""360"">","null","","","","","","","","","",""
"null","","html-keyboard-response","267","321278","0.0-267.0","3KV0LJBBH37WHZ8HHXAV7LX941ERMH","A1K8VUKRL53OX","3RKHNXPHGWIRLJ219DNI80W3E6SKUF","","","null","","","","","","","","","",""
"985.7000000011176","","image-keyboard-response","268","322266","0.0-268.0","3KV0LJBBH37WHZ8HHXAV7LX941ERMH","A1K8VUKRL53OX","3RKHNXPHGWIRLJ219DNI80W3E6SKUF","","img/set1/S4.jpg","74","4","structured_load","74","structured_load,random,structured_incentive,structured_normal","","1,3,4,2","true","","",""
"null","","html-keyboard-response","269","322623","0.0-269.0","3KV0LJBBH37WHZ8HHXAV7LX941ERMH","A1K8VUKRL53OX","3RKHNXPHGWIRLJ219DNI80W3E6SKUF","","<img src=""img/set1/S4.jpg"" width=""540"" height = ""360"" style=""border:16px solid orange"">","null","","","","","","","","","",""
"null","","html-keyboard-response","270","322838","0.0-270.0","3KV0LJBBH37WHZ8HHXAV7LX941ERMH","A1K8VUKRL53OX","3RKHNXPHGWIRLJ219DNI80W3E6SKUF","","","null","","","","","","","","","",""
"717.9000000003725","","image-keyboard-response","271","323559","0.0-271.0","3KV0LJBBH37WHZ8HHXAV7LX941ERMH","A1K8VUKRL53OX","3RKHNXPHGWIRLJ219DNI80W3E6SKUF","","img/set1/S3.jpg","68","3","structured_load","72","structured_load,random,structured_incentive,structured_normal","","1,3,4,2","false","","",""
"null","","html-keyboard-response","272","323916","0.0-272.0","3KV0LJBBH37WHZ8HHXAV7LX941ERMH","A1K8VUKRL53OX","3RKHNXPHGWIRLJ219DNI80W3E6SKUF","","<img src=""img/set1/S3.jpg"" width=""540"" height = ""360"">","null","","","","","","","","","",""
"null","","html-keyboard-response","273","324123","0.0-273.0","3KV0LJBBH37WHZ8HHXAV7LX941ERMH","A1K8VUKRL53OX","3RKHNXPHGWIRLJ219DNI80W3E6SKUF","","","null","","","","","","","","","",""
"866.0999999996275","","image-keyboard-response","274","324991","0.0-274.0","3KV0LJBBH37WHZ8HHXAV7LX941ERMH","A1K8VUKRL53OX","3RKHNXPHGWIRLJ219DNI80W3E6SKUF","","img/set1/S4.jpg","74","4","structured_load","74","structured_load,random,structured_incentive,structured_normal","","1,3,4,2","true","","",""
"null","","html-keyboard-response","275","325348","0.0-275.0","3KV0LJBBH37WHZ8HHXAV7LX941ERMH","A1K8VUKRL53OX","3RKHNXPHGWIRLJ219DNI80W3E6SKUF","","<img src=""img/set1/S4.jpg"" width=""540"" height = ""360"" style=""border:16px solid orange"">","null","","","","","","","","","",""
"null","","html-keyboard-response","276","325558","0.0-276.0","3KV0LJBBH37WHZ8HHXAV7LX941ERMH","A1K8VUKRL53OX","3RKHNXPHGWIRLJ219DNI80W3E6SKUF","","","null","","","","","","","","","",""
"508.69999999925494","","image-keyboard-response","277","326070","0.0-277.0","3KV0LJBBH37WHZ8HHXAV7LX941ERMH","A1K8VUKRL53OX","3RKHNXPHGWIRLJ219DNI80W3E6SKUF","","img/set1/S3.jpg","68","3","structured_load","72","structured_load,random,structured_incentive,structured_normal","","1,3,4,2","false","","",""
"null","","html-keyboard-response","278","326424","0.0-278.0","3KV0LJBBH37WHZ8HHXAV7LX941ERMH","A1K8VUKRL53OX","3RKHNXPHGWIRLJ219DNI80W3E6SKUF","","<img src=""img/set1/S3.jpg"" width=""540"" height = ""360"">","null","","","","","","","","","",""
"null","","html-keyboard-response","279","326631","0.0-279.0","3KV0LJBBH37WHZ8HHXAV7LX941ERMH","A1K8VUKRL53OX","3RKHNXPHGWIRLJ219DNI80W3E6SKUF","","","null","","","","","","","","","",""
"728.3000000007451","","image-keyboard-response","280","327361","0.0-280.0","3KV0LJBBH37WHZ8HHXAV7LX941ERMH","A1K8VUKRL53OX","3RKHNXPHGWIRLJ219DNI80W3E6SKUF","","img/set1/S1.jpg","83","1","structured_load","83","structured_load,random,structured_incentive,structured_normal","","1,3,4,2","true","","",""
"null","","html-keyboard-response","281","327715","0.0-281.0","3KV0LJBBH37WHZ8HHXAV7LX941ERMH","A1K8VUKRL53OX","3RKHNXPHGWIRLJ219DNI80W3E6SKUF","","<img src=""img/set1/S1.jpg"" width=""540"" height = ""360"" style=""border:16px solid orange"">","null","","","","","","","","","",""
"null","","html-keyboard-response","282","327922","0.0-282.0","3KV0LJBBH37WHZ8HHXAV7LX941ERMH","A1K8VUKRL53OX","3RKHNXPHGWIRLJ219DNI80W3E6SKUF","","","null","","","","","","","","","",""
"516.6999999992549","","image-keyboard-response","283","328441","0.0-283.0","3KV0LJBBH37WHZ8HHXAV7LX941ERMH","A1K8VUKRL53OX","3RKHNXPHGWIRLJ219DNI80W3E6SKUF","","img/set1/S2.jpg","72","2","structured_load","68","structured_load,random,structured_incentive,structured_normal","","1,3,4,2","false","","",""
"null","","html-keyboard-response","284","328798","0.0-284.0","3KV0LJBBH37WHZ8HHXAV7LX941ERMH","A1K8VUKRL53OX","3RKHNXPHGWIRLJ219DNI80W3E6SKUF","","<img src=""img/set1/S2.jpg"" width=""540"" height = ""360"">","null","","","","","","","","","",""
"null","","html-keyboard-response","285","329003","0.0-285.0","3KV0LJBBH37WHZ8HHXAV7LX941ERMH","A1K8VUKRL53OX","3RKHNXPHGWIRLJ219DNI80W3E6SKUF","","","null","","","","","","","","","",""
"424.7999999988824","","image-keyboard-response","286","329430","0.0-286.0","3KV0LJBBH37WHZ8HHXAV7LX941ERMH","A1K8VUKRL53OX","3RKHNXPHGWIRLJ219DNI80W3E6SKUF","","img/set1/S3.jpg","68","3","structured_load","72","structured_load,random,structured_incentive,structured_normal","","1,3,4,2","false","","",""
"null","","html-keyboard-response","287","329788","0.0-287.0","3KV0LJBBH37WHZ8HHXAV7LX941ERMH","A1K8VUKRL53OX","3RKHNXPHGWIRLJ219DNI80W3E6SKUF","","<img src=""img/set1/S3.jpg"" width=""540"" height = ""360"">","null","","","","","","","","","",""
"null","","html-keyboard-response","288","329998","0.0-288.0","3KV0LJBBH37WHZ8HHXAV7LX941ERMH","A1K8VUKRL53OX","3RKHNXPHGWIRLJ219DNI80W3E6SKUF","","","null","","","","","","","","","",""
"518.0999999996275","","image-keyboard-response","289","330518","0.0-289.0","3KV0LJBBH37WHZ8HHXAV7LX941ERMH","A1K8VUKRL53OX","3RKHNXPHGWIRLJ219DNI80W3E6SKUF","","img/set1/S4.jpg","68","4","structured_load","74","structured_load,random,structured_incentive,structured_normal","","1,3,4,2","false","","",""
"null","","html-keyboard-response","290","330876","0.0-290.0","3KV0LJBBH37WHZ8HHXAV7LX941ERMH","A1K8VUKRL53OX","3RKHNXPHGWIRLJ219DNI80W3E6SKUF","","<img src=""img/set1/S4.jpg"" width=""540"" height = ""360"">","null","","","","","","","","","",""
"null","","html-keyboard-response","291","331084","0.0-291.0","3KV0LJBBH37WHZ8HHXAV7LX941ERMH","A1K8VUKRL53OX","3RKHNXPHGWIRLJ219DNI80W3E6SKUF","","","null","","","","","","","","","",""
"529.9000000003725","","image-keyboard-response","292","331616","0.0-292.0","3KV0LJBBH37WHZ8HHXAV7LX941ERMH","A1K8VUKRL53OX","3RKHNXPHGWIRLJ219DNI80W3E6SKUF","","img/set1/S4.jpg","74","4","structured_load","74","structured_load,random,structured_incentive,structured_normal","","1,3,4,2","true","","",""
"null","","html-keyboard-response","293","331970","0.0-293.0","3KV0LJBBH37WHZ8HHXAV7LX941ERMH","A1K8VUKRL53OX","3RKHNXPHGWIRLJ219DNI80W3E6SKUF","","<img src=""img/set1/S4.jpg"" width=""540"" height = ""360"" style=""border:16px solid orange"">","null","","","","","","","","","",""
"null","","html-keyboard-response","294","332186","0.0-294.0","3KV0LJBBH37WHZ8HHXAV7LX941ERMH","A1K8VUKRL53OX","3RKHNXPHGWIRLJ219DNI80W3E6SKUF","","","null","","","","","","","","","",""
"608.2000000011176","","image-keyboard-response","295","332797","0.0-295.0","3KV0LJBBH37WHZ8HHXAV7LX941ERMH","A1K8VUKRL53OX","3RKHNXPHGWIRLJ219DNI80W3E6SKUF","","img/set1/S1.jpg","83","1","structured_load","83","structured_load,random,structured_incentive,structured_normal","","1,3,4,2","true","","",""
"null","","html-keyboard-response","296","333156","0.0-296.0","3KV0LJBBH37WHZ8HHXAV7LX941ERMH","A1K8VUKRL53OX","3RKHNXPHGWIRLJ219DNI80W3E6SKUF","","<img src=""img/set1/S1.jpg"" width=""540"" height = ""360"" style=""border:16px solid orange"">","null","","","","","","","","","",""
"null","","html-keyboard-response","297","333371","0.0-297.0","3KV0LJBBH37WHZ8HHXAV7LX941ERMH","A1K8VUKRL53OX","3RKHNXPHGWIRLJ219DNI80W3E6SKUF","","","null","","","","","","","","","",""
"563.9000000003725","","image-keyboard-response","298","333937","0.0-298.0","3KV0LJBBH37WHZ8HHXAV7LX941ERMH","A1K8VUKRL53OX","3RKHNXPHGWIRLJ219DNI80W3E6SKUF","","img/set1/S4.jpg","74","4","structured_load","74","structured_load,random,structured_incentive,structured_normal","","1,3,4,2","true","","",""
"null","","html-keyboard-response","299","334296","0.0-299.0","3KV0LJBBH37WHZ8HHXAV7LX941ERMH","A1K8VUKRL53OX","3RKHNXPHGWIRLJ219DNI80W3E6SKUF","","<img src=""img/set1/S4.jpg"" width=""540"" height = ""360"" style=""border:16px solid orange"">","null","","","","","","","","","",""
"null","","html-keyboard-response","300","334511","0.0-300.0","3KV0LJBBH37WHZ8HHXAV7LX941ERMH","A1K8VUKRL53OX","3RKHNXPHGWIRLJ219DNI80W3E6SKUF","","","null","","","","","","","","","",""
"410.90000000037253","","image-keyboard-response","301","334925","0.0-301.0","3KV0LJBBH37WHZ8HHXAV7LX941ERMH","A1K8VUKRL53OX","3RKHNXPHGWIRLJ219DNI80W3E6SKUF","","img/set1/S1.jpg","83","1","structured_load","83","structured_load,random,structured_incentive,structured_normal","","1,3,4,2","true","","",""
"null","","html-keyboard-response","302","335280","0.0-302.0","3KV0LJBBH37WHZ8HHXAV7LX941ERMH","A1K8VUKRL53OX","3RKHNXPHGWIRLJ219DNI80W3E6SKUF","","<img src=""img/set1/S1.jpg"" width=""540"" height = ""360"" style=""border:16px solid orange"">","null","","","","","","","","","",""
"null","","html-keyboard-response","303","335497","0.0-303.0","3KV0LJBBH37WHZ8HHXAV7LX941ERMH","A1K8VUKRL53OX","3RKHNXPHGWIRLJ219DNI80W3E6SKUF","","","null","","","","","","","","","",""
"909.3000000007451","","image-keyboard-response","304","336408","0.0-304.0","3KV0LJBBH37WHZ8HHXAV7LX941ERMH","A1K8VUKRL53OX","3RKHNXPHGWIRLJ219DNI80W3E6SKUF","","img/set1/S2.jpg","68","2","structured_load","68","structured_load,random,structured_incentive,structured_normal","","1,3,4,2","true","","",""
"null","","html-keyboard-response","305","336761","0.0-305.0","3KV0LJBBH37WHZ8HHXAV7LX941ERMH","A1K8VUKRL53OX","3RKHNXPHGWIRLJ219DNI80W3E6SKUF","","<img src=""img/set1/S2.jpg"" width=""540"" height = ""360"" style=""border:16px solid orange"">","null","","","","","","","","","",""
"null","","html-keyboard-response","306","336967","0.0-306.0","3KV0LJBBH37WHZ8HHXAV7LX941ERMH","A1K8VUKRL53OX","3RKHNXPHGWIRLJ219DNI80W3E6SKUF","","","null","","","","","","","","","",""
"730.2999999988824","","image-keyboard-response","307","337700","0.0-307.0","3KV0LJBBH37WHZ8HHXAV7LX941ERMH","A1K8VUKRL53OX","3RKHNXPHGWIRLJ219DNI80W3E6SKUF","","img/set1/S3.jpg","74","3","structured_load","72","structured_load,random,structured_incentive,structured_normal","","1,3,4,2","false","","",""
"null","","html-keyboard-response","308","338055","0.0-308.0","3KV0LJBBH37WHZ8HHXAV7LX941ERMH","A1K8VUKRL53OX","3RKHNXPHGWIRLJ219DNI80W3E6SKUF","","<img src=""img/set1/S3.jpg"" width=""540"" height = ""360"">","null","","","","","","","","","",""
"null","","html-keyboard-response","309","338259","0.0-309.0","3KV0LJBBH37WHZ8HHXAV7LX941ERMH","A1K8VUKRL53OX","3RKHNXPHGWIRLJ219DNI80W3E6SKUF","","","null","","","","","","","","","",""
"911.7999999988824","","image-keyboard-response","310","339173","0.0-310.0","3KV0LJBBH37WHZ8HHXAV7LX941ERMH","A1K8VUKRL53OX","3RKHNXPHGWIRLJ219DNI80W3E6SKUF","","img/set1/S2.jpg","68","2","structured_load","68","structured_load,random,structured_incentive,structured_normal","","1,3,4,2","true","","",""
"null","","html-keyboard-response","311","339534","0.0-311.0","3KV0LJBBH37WHZ8HHXAV7LX941ERMH","A1K8VUKRL53OX","3RKHNXPHGWIRLJ219DNI80W3E6SKUF","","<img src=""img/set1/S2.jpg"" width=""540"" height = ""360"" style=""border:16px solid orange"">","null","","","","","","","","","",""
"null","","html-keyboard-response","312","339739","0.0-312.0","3KV0LJBBH37WHZ8HHXAV7LX941ERMH","A1K8VUKRL53OX","3RKHNXPHGWIRLJ219DNI80W3E6SKUF","","","null","","","","","","","","","",""
"691.0999999996275","","image-keyboard-response","313","340433","0.0-313.0","3KV0LJBBH37WHZ8HHXAV7LX941ERMH","A1K8VUKRL53OX","3RKHNXPHGWIRLJ219DNI80W3E6SKUF","","img/set1/S3.jpg","72","3","structured_load","72","structured_load,random,structured_incentive,structured_normal","","1,3,4,2","true","","",""
"null","","html-keyboard-response","314","340791","0.0-314.0","3KV0LJBBH37WHZ8HHXAV7LX941ERMH","A1K8VUKRL53OX","3RKHNXPHGWIRLJ219DNI80W3E6SKUF","","<img src=""img/set1/S3.jpg"" width=""540"" height = ""360"" style=""border:16px solid orange"">","null","","","","","","","","","",""
"null","","html-keyboard-response","315","340997","0.0-315.0","3KV0LJBBH37WHZ8HHXAV7LX941ERMH","A1K8VUKRL53OX","3RKHNXPHGWIRLJ219DNI80W3E6SKUF","","","null","","","","","","","","","",""
"654","","image-keyboard-response","316","341653","0.0-316.0","3KV0LJBBH37WHZ8HHXAV7LX941ERMH","A1K8VUKRL53OX","3RKHNXPHGWIRLJ219DNI80W3E6SKUF","","img/set1/S1.jpg","83","1","structured_load","83","structured_load,random,structured_incentive,structured_normal","","1,3,4,2","true","","",""
"null","","html-keyboard-response","317","342013","0.0-317.0","3KV0LJBBH37WHZ8HHXAV7LX941ERMH","A1K8VUKRL53OX","3RKHNXPHGWIRLJ219DNI80W3E6SKUF","","<img src=""img/set1/S1.jpg"" width=""540"" height = ""360"" style=""border:16px solid orange"">","null","","","","","","","","","",""
"null","","html-keyboard-response","318","342218","0.0-318.0","3KV0LJBBH37WHZ8HHXAV7LX941ERMH","A1K8VUKRL53OX","3RKHNXPHGWIRLJ219DNI80W3E6SKUF","","","null","","","","","","","","","",""
"542.0999999996275","","image-keyboard-response","319","342762","0.0-319.0","3KV0LJBBH37WHZ8HHXAV7LX941ERMH","A1K8VUKRL53OX","3RKHNXPHGWIRLJ219DNI80W3E6SKUF","","img/set1/S4.jpg","72","4","structured_load","74","structured_load,random,structured_incentive,structured_normal","","1,3,4,2","false","","",""
"null","","html-keyboard-response","320","343130","0.0-320.0","3KV0LJBBH37WHZ8HHXAV7LX941ERMH","A1K8VUKRL53OX","3RKHNXPHGWIRLJ219DNI80W3E6SKUF","","<img src=""img/set1/S4.jpg"" width=""540"" height = ""360"">","null","","","","","","","","","",""
"null","","html-keyboard-response","321","343337","0.0-321.0","3KV0LJBBH37WHZ8HHXAV7LX941ERMH","A1K8VUKRL53OX","3RKHNXPHGWIRLJ219DNI80W3E6SKUF","","","null","","","","","","","","","",""
"722.6000000014901","","image-keyboard-response","322","344061","0.0-322.0","3KV0LJBBH37WHZ8HHXAV7LX941ERMH","A1K8VUKRL53OX","3RKHNXPHGWIRLJ219DNI80W3E6SKUF","","img/set1/S1.jpg","83","1","structured_load","83","structured_load,random,structured_incentive,structured_normal","","1,3,4,2","true","","",""
"null","","html-keyboard-response","323","344417","0.0-323.0","3KV0LJBBH37WHZ8HHXAV7LX941ERMH","A1K8VUKRL53OX","3RKHNXPHGWIRLJ219DNI80W3E6SKUF","","<img src=""img/set1/S1.jpg"" width=""540"" height = ""360"" style=""border:16px solid orange"">","null","","","","","","","","","",""
"null","","html-keyboard-response","324","344626","0.0-324.0","3KV0LJBBH37WHZ8HHXAV7LX941ERMH","A1K8VUKRL53OX","3RKHNXPHGWIRLJ219DNI80W3E6SKUF","","","null","","","","","","","","","",""
"755.2000000011176","","image-keyboard-response","325","345383","0.0-325.0","3KV0LJBBH37WHZ8HHXAV7LX941ERMH","A1K8VUKRL53OX","3RKHNXPHGWIRLJ219DNI80W3E6SKUF","","img/set1/S2.jpg","72","2","structured_load","68","structured_load,random,structured_incentive,structured_normal","","1,3,4,2","false","","",""
"null","","html-keyboard-response","326","345742","0.0-326.0","3KV0LJBBH37WHZ8HHXAV7LX941ERMH","A1K8VUKRL53OX","3RKHNXPHGWIRLJ219DNI80W3E6SKUF","","<img src=""img/set1/S2.jpg"" width=""540"" height = ""360"">","null","","","","","","","","","",""
"null","","html-keyboard-response","327","345946","0.0-327.0","3KV0LJBBH37WHZ8HHXAV7LX941ERMH","A1K8VUKRL53OX","3RKHNXPHGWIRLJ219DNI80W3E6SKUF","","","null","","","","","","","","","",""
"1048.2000000011176","","image-keyboard-response","328","346997","0.0-328.0","3KV0LJBBH37WHZ8HHXAV7LX941ERMH","A1K8VUKRL53OX","3RKHNXPHGWIRLJ219DNI80W3E6SKUF","","img/set1/S3.jpg","74","3","structured_load","72","structured_load,random,structured_incentive,structured_normal","","1,3,4,2","false","","",""
"null","","html-keyboard-response","329","347354","0.0-329.0","3KV0LJBBH37WHZ8HHXAV7LX941ERMH","A1K8VUKRL53OX","3RKHNXPHGWIRLJ219DNI80W3E6SKUF","","<img src=""img/set1/S3.jpg"" width=""540"" height = ""360"">","null","","","","","","","","","",""
"null","","html-keyboard-response","330","347562","0.0-330.0","3KV0LJBBH37WHZ8HHXAV7LX941ERMH","A1K8VUKRL53OX","3RKHNXPHGWIRLJ219DNI80W3E6SKUF","","","null","","","","","","","","","",""
"822.6999999992549","","image-keyboard-response","331","348388","0.0-331.0","3KV0LJBBH37WHZ8HHXAV7LX941ERMH","A1K8VUKRL53OX","3RKHNXPHGWIRLJ219DNI80W3E6SKUF","","img/set1/S4.jpg","74","4","structured_load","74","structured_load,random,structured_incentive,structured_normal","","1,3,4,2","true","","",""
"null","","html-keyboard-response","332","348744","0.0-332.0","3KV0LJBBH37WHZ8HHXAV7LX941ERMH","A1K8VUKRL53OX","3RKHNXPHGWIRLJ219DNI80W3E6SKUF","","<img src=""img/set1/S4.jpg"" width=""540"" height = ""360"" style=""border:16px solid orange"">","null","","","","","","","","","",""
"null","","html-keyboard-response","333","348952","0.0-333.0","3KV0LJBBH37WHZ8HHXAV7LX941ERMH","A1K8VUKRL53OX","3RKHNXPHGWIRLJ219DNI80W3E6SKUF","","","null","","","","","","","","","",""
"684.5","","image-keyboard-response","334","349639","0.0-334.0","3KV0LJBBH37WHZ8HHXAV7LX941ERMH","A1K8VUKRL53OX","3RKHNXPHGWIRLJ219DNI80W3E6SKUF","","img/set1/S1.jpg","83","1","structured_load","83","structured_load,random,structured_incentive,structured_normal","","1,3,4,2","true","","",""
"null","","html-keyboard-response","335","349996","0.0-335.0","3KV0LJBBH37WHZ8HHXAV7LX941ERMH","A1K8VUKRL53OX","3RKHNXPHGWIRLJ219DNI80W3E6SKUF","","<img src=""img/set1/S1.jpg"" width=""540"" height = ""360"" style=""border:16px solid orange"">","null","","","","","","","","","",""
"null","","html-keyboard-response","336","350206","0.0-336.0","3KV0LJBBH37WHZ8HHXAV7LX941ERMH","A1K8VUKRL53OX","3RKHNXPHGWIRLJ219DNI80W3E6SKUF","","","null","","","","","","","","","",""
"740.7000000011176","","image-keyboard-response","337","350949","0.0-337.0","3KV0LJBBH37WHZ8HHXAV7LX941ERMH","A1K8VUKRL53OX","3RKHNXPHGWIRLJ219DNI80W3E6SKUF","","img/set1/S4.jpg","74","4","structured_load","74","structured_load,random,structured_incentive,structured_normal","","1,3,4,2","true","","",""
"null","","html-keyboard-response","338","351304","0.0-338.0","3KV0LJBBH37WHZ8HHXAV7LX941ERMH","A1K8VUKRL53OX","3RKHNXPHGWIRLJ219DNI80W3E6SKUF","","<img src=""img/set1/S4.jpg"" width=""540"" height = ""360"" style=""border:16px solid orange"">","null","","","","","","","","","",""
"null","","html-keyboard-response","339","351519","0.0-339.0","3KV0LJBBH37WHZ8HHXAV7LX941ERMH","A1K8VUKRL53OX","3RKHNXPHGWIRLJ219DNI80W3E6SKUF","","","null","","","","","","","","","",""
"1010.7999999988824","","image-keyboard-response","340","352533","0.0-340.0","3KV0LJBBH37WHZ8HHXAV7LX941ERMH","A1K8VUKRL53OX","3RKHNXPHGWIRLJ219DNI80W3E6SKUF","","img/set1/S3.jpg","83","3","structured_load","72","structured_load,random,structured_incentive,structured_normal","","1,3,4,2","false","","",""
"null","","html-keyboard-response","341","352891","0.0-341.0","3KV0LJBBH37WHZ8HHXAV7LX941ERMH","A1K8VUKRL53OX","3RKHNXPHGWIRLJ219DNI80W3E6SKUF","","<img src=""img/set1/S3.jpg"" width=""540"" height = ""360"">","null","","","","","","","","","",""
"null","","html-keyboard-response","342","353100","0.0-342.0","3KV0LJBBH37WHZ8HHXAV7LX941ERMH","A1K8VUKRL53OX","3RKHNXPHGWIRLJ219DNI80W3E6SKUF","","","null","","","","","","","","","",""
"882.8000000007451","","image-keyboard-response","343","353986","0.0-343.0","3KV0LJBBH37WHZ8HHXAV7LX941ERMH","A1K8VUKRL53OX","3RKHNXPHGWIRLJ219DNI80W3E6SKUF","","img/set1/S2.jpg","68","2","structured_load","68","structured_load,random,structured_incentive,structured_normal","","1,3,4,2","true","","",""
"null","","html-keyboard-response","344","354342","0.0-344.0","3KV0LJBBH37WHZ8HHXAV7LX941ERMH","A1K8VUKRL53OX","3RKHNXPHGWIRLJ219DNI80W3E6SKUF","","<img src=""img/set1/S2.jpg"" width=""540"" height = ""360"" style=""border:16px solid orange"">","null","","","","","","","","","",""
"null","","html-keyboard-response","345","354551","0.0-345.0","3KV0LJBBH37WHZ8HHXAV7LX941ERMH","A1K8VUKRL53OX","3RKHNXPHGWIRLJ219DNI80W3E6SKUF","","","null","","","","","","","","","",""
"751","","image-keyboard-response","346","355304","0.0-346.0","3KV0LJBBH37WHZ8HHXAV7LX941ERMH","A1K8VUKRL53OX","3RKHNXPHGWIRLJ219DNI80W3E6SKUF","","img/set1/S4.jpg","74","4","structured_load","74","structured_load,random,structured_incentive,structured_normal","","1,3,4,2","true","","",""
"null","","html-keyboard-response","347","355664","0.0-347.0","3KV0LJBBH37WHZ8HHXAV7LX941ERMH","A1K8VUKRL53OX","3RKHNXPHGWIRLJ219DNI80W3E6SKUF","","<img src=""img/set1/S4.jpg"" width=""540"" height = ""360"" style=""border:16px solid orange"">","null","","","","","","","","","",""
"null","","html-keyboard-response","348","355873","0.0-348.0","3KV0LJBBH37WHZ8HHXAV7LX941ERMH","A1K8VUKRL53OX","3RKHNXPHGWIRLJ219DNI80W3E6SKUF","","","null","","","","","","","","","",""
"912.3000000007451","","image-keyboard-response","349","356788","0.0-349.0","3KV0LJBBH37WHZ8HHXAV7LX941ERMH","A1K8VUKRL53OX","3RKHNXPHGWIRLJ219DNI80W3E6SKUF","","img/set1/S2.jpg","68","2","structured_load","68","structured_load,random,structured_incentive,structured_normal","","1,3,4,2","true","","",""
"null","","html-keyboard-response","350","357141","0.0-350.0","3KV0LJBBH37WHZ8HHXAV7LX941ERMH","A1K8VUKRL53OX","3RKHNXPHGWIRLJ219DNI80W3E6SKUF","","<img src=""img/set1/S2.jpg"" width=""540"" height = ""360"" style=""border:16px solid orange"">","null","","","","","","","","","",""
"null","","html-keyboard-response","351","357348","0.0-351.0","3KV0LJBBH37WHZ8HHXAV7LX941ERMH","A1K8VUKRL53OX","3RKHNXPHGWIRLJ219DNI80W3E6SKUF","","","null","","","","","","","","","",""
"739.4000000003725","","image-keyboard-response","352","358090","0.0-352.0","3KV0LJBBH37WHZ8HHXAV7LX941ERMH","A1K8VUKRL53OX","3RKHNXPHGWIRLJ219DNI80W3E6SKUF","","img/set1/S4.jpg","74","4","structured_load","74","structured_load,random,structured_incentive,structured_normal","","1,3,4,2","true","","",""
"null","","html-keyboard-response","353","358447","0.0-353.0","3KV0LJBBH37WHZ8HHXAV7LX941ERMH","A1K8VUKRL53OX","3RKHNXPHGWIRLJ219DNI80W3E6SKUF","","<img src=""img/set1/S4.jpg"" width=""540"" height = ""360"" style=""border:16px solid orange"">","null","","","","","","","","","",""
"null","","html-keyboard-response","354","358654","0.0-354.0","3KV0LJBBH37WHZ8HHXAV7LX941ERMH","A1K8VUKRL53OX","3RKHNXPHGWIRLJ219DNI80W3E6SKUF","","","null","","","","","","","","","",""
"743.9000000003725","","image-keyboard-response","355","359401","0.0-355.0","3KV0LJBBH37WHZ8HHXAV7LX941ERMH","A1K8VUKRL53OX","3RKHNXPHGWIRLJ219DNI80W3E6SKUF","","img/set1/S2.jpg","68","2","structured_load","68","structured_load,random,structured_incentive,structured_normal","","1,3,4,2","true","","",""
"null","","html-keyboard-response","356","359755","0.0-356.0","3KV0LJBBH37WHZ8HHXAV7LX941ERMH","A1K8VUKRL53OX","3RKHNXPHGWIRLJ219DNI80W3E6SKUF","","<img src=""img/set1/S2.jpg"" width=""540"" height = ""360"" style=""border:16px solid orange"">","null","","","","","","","","","",""
"null","","html-keyboard-response","357","359980","0.0-357.0","3KV0LJBBH37WHZ8HHXAV7LX941ERMH","A1K8VUKRL53OX","3RKHNXPHGWIRLJ219DNI80W3E6SKUF","","","null","","","","","","","","","",""
"622.2000000011176","","image-keyboard-response","358","360604","0.0-358.0","3KV0LJBBH37WHZ8HHXAV7LX941ERMH","A1K8VUKRL53OX","3RKHNXPHGWIRLJ219DNI80W3E6SKUF","","img/set1/S3.jpg","68","3","structured_load","72","structured_load,random,structured_incentive,structured_normal","","1,3,4,2","false","","",""
"null","","html-keyboard-response","359","360962","0.0-359.0","3KV0LJBBH37WHZ8HHXAV7LX941ERMH","A1K8VUKRL53OX","3RKHNXPHGWIRLJ219DNI80W3E6SKUF","","<img src=""img/set1/S3.jpg"" width=""540"" height = ""360"">","null","","","","","","","","","",""
"null","","html-keyboard-response","360","361178","0.0-360.0","3KV0LJBBH37WHZ8HHXAV7LX941ERMH","A1K8VUKRL53OX","3RKHNXPHGWIRLJ219DNI80W3E6SKUF","","","null","","","","","","","","","",""
"78","","image-keyboard-response","361","361259","0.0-361.0","3KV0LJBBH37WHZ8HHXAV7LX941ERMH","A1K8VUKRL53OX","3RKHNXPHGWIRLJ219DNI80W3E6SKUF","","img/set1/S4.jpg","72","4","structured_load","74","structured_load,random,structured_incentive,structured_normal","","1,3,4,2","false","","",""
"null","","html-keyboard-response","362","361627","0.0-362.0","3KV0LJBBH37WHZ8HHXAV7LX941ERMH","A1K8VUKRL53OX","3RKHNXPHGWIRLJ219DNI80W3E6SKUF","","<img src=""img/set1/S4.jpg"" width=""540"" height = ""360"">","null","","","","","","","","","",""
"null","","html-keyboard-response","363","361835","0.0-363.0","3KV0LJBBH37WHZ8HHXAV7LX941ERMH","A1K8VUKRL53OX","3RKHNXPHGWIRLJ219DNI80W3E6SKUF","","","null","","","","","","","","","",""
"186.7000000011176","","image-keyboard-response","364","362026","0.0-364.0","3KV0LJBBH37WHZ8HHXAV7LX941ERMH","A1K8VUKRL53OX","3RKHNXPHGWIRLJ219DNI80W3E6SKUF","","img/set1/S1.jpg","74","1","structured_load","83","structured_load,random,structured_incentive,structured_normal","","1,3,4,2","false","","",""
"null","","html-keyboard-response","365","362378","0.0-365.0","3KV0LJBBH37WHZ8HHXAV7LX941ERMH","A1K8VUKRL53OX","3RKHNXPHGWIRLJ219DNI80W3E6SKUF","","<img src=""img/set1/S1.jpg"" width=""540"" height = ""360"">","null","","","","","","","","","",""
"null","","html-keyboard-response","366","362588","0.0-366.0","3KV0LJBBH37WHZ8HHXAV7LX941ERMH","A1K8VUKRL53OX","3RKHNXPHGWIRLJ219DNI80W3E6SKUF","","","null","","","","","","","","","",""
"202.09999999962747","","image-keyboard-response","367","362792","0.0-367.0","3KV0LJBBH37WHZ8HHXAV7LX941ERMH","A1K8VUKRL53OX","3RKHNXPHGWIRLJ219DNI80W3E6SKUF","","img/set1/S4.jpg","83","4","structured_load","74","structured_load,random,structured_incentive,structured_normal","","1,3,4,2","false","","",""
"null","","html-keyboard-response","368","363148","0.0-368.0","3KV0LJBBH37WHZ8HHXAV7LX941ERMH","A1K8VUKRL53OX","3RKHNXPHGWIRLJ219DNI80W3E6SKUF","","<img src=""img/set1/S4.jpg"" width=""540"" height = ""360"">","null","","","","","","","","","",""
"null","","html-keyboard-response","369","363364","0.0-369.0","3KV0LJBBH37WHZ8HHXAV7LX941ERMH","A1K8VUKRL53OX","3RKHNXPHGWIRLJ219DNI80W3E6SKUF","","","null","","","","","","","","","",""
"716.7999999988824","","image-keyboard-response","370","364083","0.0-370.0","3KV0LJBBH37WHZ8HHXAV7LX941ERMH","A1K8VUKRL53OX","3RKHNXPHGWIRLJ219DNI80W3E6SKUF","","img/set1/S2.jpg","68","2","structured_load","68","structured_load,random,structured_incentive,structured_normal","","1,3,4,2","true","","",""
"null","","html-keyboard-response","371","364438","0.0-371.0","3KV0LJBBH37WHZ8HHXAV7LX941ERMH","A1K8VUKRL53OX","3RKHNXPHGWIRLJ219DNI80W3E6SKUF","","<img src=""img/set1/S2.jpg"" width=""540"" height = ""360"" style=""border:16px solid orange"">","null","","","","","","","","","",""
"null","","html-keyboard-response","372","364644","0.0-372.0","3KV0LJBBH37WHZ8HHXAV7LX941ERMH","A1K8VUKRL53OX","3RKHNXPHGWIRLJ219DNI80W3E6SKUF","","","null","","","","","","","","","",""
"514.9000000003725","","image-keyboard-response","373","365161","0.0-373.0","3KV0LJBBH37WHZ8HHXAV7LX941ERMH","A1K8VUKRL53OX","3RKHNXPHGWIRLJ219DNI80W3E6SKUF","","img/set1/S3.jpg","83","3","structured_load","72","structured_load,random,structured_incentive,structured_normal","","1,3,4,2","false","","",""
"null","","html-keyboard-response","374","365515","0.0-374.0","3KV0LJBBH37WHZ8HHXAV7LX941ERMH","A1K8VUKRL53OX","3RKHNXPHGWIRLJ219DNI80W3E6SKUF","","<img src=""img/set1/S3.jpg"" width=""540"" height = ""360"">","null","","","","","","","","","",""
"null","","html-keyboard-response","375","365721","0.0-375.0","3KV0LJBBH37WHZ8HHXAV7LX941ERMH","A1K8VUKRL53OX","3RKHNXPHGWIRLJ219DNI80W3E6SKUF","","","null","","","","","","","","","",""
"788.2999999988824","","image-keyboard-response","376","366511","0.0-376.0","3KV0LJBBH37WHZ8HHXAV7LX941ERMH","A1K8VUKRL53OX","3RKHNXPHGWIRLJ219DNI80W3E6SKUF","","img/set1/S2.jpg","68","2","structured_load","68","structured_load,random,structured_incentive,structured_normal","","1,3,4,2","true","","",""
"null","","html-keyboard-response","377","366873","0.0-377.0","3KV0LJBBH37WHZ8HHXAV7LX941ERMH","A1K8VUKRL53OX","3RKHNXPHGWIRLJ219DNI80W3E6SKUF","","<img src=""img/set1/S2.jpg"" width=""540"" height = ""360"" style=""border:16px solid orange"">","null","","","","","","","","","",""
"null","","html-keyboard-response","378","367079","0.0-378.0","3KV0LJBBH37WHZ8HHXAV7LX941ERMH","A1K8VUKRL53OX","3RKHNXPHGWIRLJ219DNI80W3E6SKUF","","","null","","","","","","","","","",""
"799.8000000007451","","image-keyboard-response","379","367882","0.0-379.0","3KV0LJBBH37WHZ8HHXAV7LX941ERMH","A1K8VUKRL53OX","3RKHNXPHGWIRLJ219DNI80W3E6SKUF","","img/set1/S3.jpg","83","3","structured_load","72","structured_load,random,structured_incentive,structured_normal","","1,3,4,2","false","","",""
"null","","html-keyboard-response","380","368243","0.0-380.0","3KV0LJBBH37WHZ8HHXAV7LX941ERMH","A1K8VUKRL53OX","3RKHNXPHGWIRLJ219DNI80W3E6SKUF","","<img src=""img/set1/S3.jpg"" width=""540"" height = ""360"">","null","","","","","","","","","",""
"null","","html-keyboard-response","381","368451","0.0-381.0","3KV0LJBBH37WHZ8HHXAV7LX941ERMH","A1K8VUKRL53OX","3RKHNXPHGWIRLJ219DNI80W3E6SKUF","","","null","","","","","","","","","",""
"1092.7999999988824","","image-keyboard-response","382","369547","0.0-382.0","3KV0LJBBH37WHZ8HHXAV7LX941ERMH","A1K8VUKRL53OX","3RKHNXPHGWIRLJ219DNI80W3E6SKUF","","img/set1/S2.jpg","68","2","structured_load","68","structured_load,random,structured_incentive,structured_normal","","1,3,4,2","true","","",""
"null","","html-keyboard-response","383","369904","0.0-383.0","3KV0LJBBH37WHZ8HHXAV7LX941ERMH","A1K8VUKRL53OX","3RKHNXPHGWIRLJ219DNI80W3E6SKUF","","<img src=""img/set1/S2.jpg"" width=""540"" height = ""360"" style=""border:16px solid orange"">","null","","","","","","","","","",""
"null","","html-keyboard-response","384","370111","0.0-384.0","3KV0LJBBH37WHZ8HHXAV7LX941ERMH","A1K8VUKRL53OX","3RKHNXPHGWIRLJ219DNI80W3E6SKUF","","","null","","","","","","","","","",""
"945","","image-keyboard-response","385","371060","0.0-385.0","3KV0LJBBH37WHZ8HHXAV7LX941ERMH","A1K8VUKRL53OX","3RKHNXPHGWIRLJ219DNI80W3E6SKUF","","img/set1/S3.jpg","68","3","structured_load","72","structured_load,random,structured_incentive,structured_normal","","1,3,4,2","false","","",""
"null","","html-keyboard-response","386","371416","0.0-386.0","3KV0LJBBH37WHZ8HHXAV7LX941ERMH","A1K8VUKRL53OX","3RKHNXPHGWIRLJ219DNI80W3E6SKUF","","<img src=""img/set1/S3.jpg"" width=""540"" height = ""360"">","null","","","","","","","","","",""
"null","","html-keyboard-response","387","371622","0.0-387.0","3KV0LJBBH37WHZ8HHXAV7LX941ERMH","A1K8VUKRL53OX","3RKHNXPHGWIRLJ219DNI80W3E6SKUF","","","null","","","","","","","","","",""
"825.7000000011176","","image-keyboard-response","388","372450","0.0-388.0","3KV0LJBBH37WHZ8HHXAV7LX941ERMH","A1K8VUKRL53OX","3RKHNXPHGWIRLJ219DNI80W3E6SKUF","","img/set1/S3.jpg","72","3","structured_load","72","structured_load,random,structured_incentive,structured_normal","","1,3,4,2","true","","",""
"null","","html-keyboard-response","389","372808","0.0-389.0","3KV0LJBBH37WHZ8HHXAV7LX941ERMH","A1K8VUKRL53OX","3RKHNXPHGWIRLJ219DNI80W3E6SKUF","","<img src=""img/set1/S3.jpg"" width=""540"" height = ""360"" style=""border:16px solid orange"">","null","","","","","","","","","",""
"null","","html-keyboard-response","390","373015","0.0-390.0","3KV0LJBBH37WHZ8HHXAV7LX941ERMH","A1K8VUKRL53OX","3RKHNXPHGWIRLJ219DNI80W3E6SKUF","","","null","","","","","","","","","",""
"703.2999999988824","","image-keyboard-response","391","373721","0.0-391.0","3KV0LJBBH37WHZ8HHXAV7LX941ERMH","A1K8VUKRL53OX","3RKHNXPHGWIRLJ219DNI80W3E6SKUF","","img/set1/S2.jpg","68","2","structured_load","68","structured_load,random,structured_incentive,structured_normal","","1,3,4,2","true","","",""
"null","","html-keyboard-response","392","374097","0.0-392.0","3KV0LJBBH37WHZ8HHXAV7LX941ERMH","A1K8VUKRL53OX","3RKHNXPHGWIRLJ219DNI80W3E6SKUF","","<img src=""img/set1/S2.jpg"" width=""540"" height = ""360"" style=""border:16px solid orange"">","null","","","","","","","","","",""
"null","","html-keyboard-response","393","374302","0.0-393.0","3KV0LJBBH37WHZ8HHXAV7LX941ERMH","A1K8VUKRL53OX","3RKHNXPHGWIRLJ219DNI80W3E6SKUF","","","null","","","","","","","","","",""
"436.5","","image-keyboard-response","394","374740","0.0-394.0","3KV0LJBBH37WHZ8HHXAV7LX941ERMH","A1K8VUKRL53OX","3RKHNXPHGWIRLJ219DNI80W3E6SKUF","","img/set1/S3.jpg","72","3","structured_load","72","structured_load,random,structured_incentive,structured_normal","","1,3,4,2","true","","",""
"null","","html-keyboard-response","395","375096","0.0-395.0","3KV0LJBBH37WHZ8HHXAV7LX941ERMH","A1K8VUKRL53OX","3RKHNXPHGWIRLJ219DNI80W3E6SKUF","","<img src=""img/set1/S3.jpg"" width=""540"" height = ""360"" style=""border:16px solid orange"">","null","","","","","","","","","",""
