"rt","url","trial_type","trial_index","time_elapsed","internal_node_id","view_history","stimulus","key_press","state","test_part","correct_response","order_block","order_chunk","correct","responses","question_order","bonus"
"5075.4000000059605","consent.html","external-html","0","5115","0.0-0.0","","","","","","","","","","","",""
"8243.79999999702","","instructions","1","13360","0.0-1.0","[{""page_index"":0,""viewing_time"":1178.2999999970198},{""page_index"":1,""viewing_time"":719.7999999970198},{""page_index"":2,""viewing_time"":675.1000000089407},{""page_index"":3,""viewing_time"":2047.5999999940395},{""page_index"":4,""viewing_time"":978.5},{""page_index"":5,""viewing_time"":1597.2999999970198},{""page_index"":6,""viewing_time"":1046.4000000059605}]","","","","","","","","","","",""
"1854.0999999940395","","instructions","2","15215","0.0-2.0","[{""page_index"":0,""viewing_time"":1853.8999999910593}]","","","","","","","","","","",""
"2249.2000000029802","","instructions","3","17465","0.0-3.0","[{""page_index"":0,""viewing_time"":2249}]","","","","","","","","","","",""
"1279.1000000089407","","image-keyboard-response","4","18745","0.0-4.0","","img/set1/S3.jpg","74","3","random","72","random,structured_incentive,structured_load,structured_normal","2,3,3,4,2,1","false","","",""
"null","","html-keyboard-response","5","19098","0.0-5.0","","<img src=""img/set1/S3.jpg"" width=""540"" height = ""360"">","null","","","","","","","","",""
"null","","html-keyboard-response","6","19304","0.0-6.0","","","null","","","","","","","","",""
"564.4000000059605","","image-keyboard-response","7","19870","0.0-7.0","","img/set1/S3.jpg","68","3","random","72","random,structured_incentive,structured_load,structured_normal","2,3,3,4,2,1","false","","",""
"null","","html-keyboard-response","8","20227","0.0-8.0","","<img src=""img/set1/S3.jpg"" width=""540"" height = ""360"">","null","","","","","","","","",""
"null","","html-keyboard-response","9","20432","0.0-9.0","","","null","","","","","","","","",""
"550.5999999940395","","image-keyboard-response","10","20984","0.0-10.0","","img/set1/S4.jpg","83","4","random","74","random,structured_incentive,structured_load,structured_normal","2,3,3,4,2,1","false","","",""
"null","","html-keyboard-response","11","21336","0.0-11.0","","<img src=""img/set1/S4.jpg"" width=""540"" height = ""360"">","null","","","","","","","","",""
"null","","html-keyboard-response","12","21539","0.0-12.0","","","null","","","","","","","","",""
"478.29999999701977","","image-keyboard-response","13","22018","0.0-13.0","","img/set1/S4.jpg","74","4","random","74","random,structured_incentive,structured_load,structured_normal","2,3,3,4,2,1","true","","",""
"null","","html-keyboard-response","14","22372","0.0-14.0","","<img src=""img/set1/S4.jpg"" width=""540"" height = ""360"" style=""border:16px solid orange"">","null","","","","","","","","",""
"null","","html-keyboard-response","15","22577","0.0-15.0","","","null","","","","","","","","",""
"902.7000000029802","","image-keyboard-response","16","23481","0.0-16.0","","img/set1/S1.jpg","83","1","random","83","random,structured_incentive,structured_load,structured_normal","2,3,3,4,2,1","true","","",""
"null","","html-keyboard-response","17","23835","0.0-17.0","","<img src=""img/set1/S1.jpg"" width=""540"" height = ""360"" style=""border:16px solid orange"">","null","","","","","","","","",""
"null","","html-keyboard-response","18","24038","0.0-18.0","","","null","","","","","","","","",""
"735.2999999970198","","image-keyboard-response","19","24775","0.0-19.0","","img/set1/S1.jpg","83","1","random","83","random,structured_incentive,structured_load,structured_normal","2,3,3,4,2,1","true","","",""
"null","","html-keyboard-response","20","25130","0.0-20.0","","<img src=""img/set1/S1.jpg"" width=""540"" height = ""360"" style=""border:16px solid orange"">","null","","","","","","","","",""
"null","","html-keyboard-response","21","25335","0.0-21.0","","","null","","","","","","","","",""
"788.8000000119209","","image-keyboard-response","22","26124","0.0-22.0","","img/set1/S2.jpg","68","2","random","68","random,structured_incentive,structured_load,structured_normal","2,3,3,4,2,1","true","","",""
"null","","html-keyboard-response","23","26481","0.0-23.0","","<img src=""img/set1/S2.jpg"" width=""540"" height = ""360"" style=""border:16px solid orange"">","null","","","","","","","","",""
"null","","html-keyboard-response","24","26686","0.0-24.0","","","null","","","","","","","","",""
"697.4000000059605","","image-keyboard-response","25","27384","0.0-25.0","","img/set1/S1.jpg","83","1","random","83","random,structured_incentive,structured_load,structured_normal","2,3,3,4,2,1","true","","",""
"null","","html-keyboard-response","26","27736","0.0-26.0","","<img src=""img/set1/S1.jpg"" width=""540"" height = ""360"" style=""border:16px solid orange"">","null","","","","","","","","",""
"null","","html-keyboard-response","27","27939","0.0-27.0","","","null","","","","","","","","",""
"974.7000000029802","","image-keyboard-response","28","28914","0.0-28.0","","img/set1/S3.jpg","74","3","random","72","random,structured_incentive,structured_load,structured_normal","2,3,3,4,2,1","false","","",""
"null","","html-keyboard-response","29","29270","0.0-29.0","","<img src=""img/set1/S3.jpg"" width=""540"" height = ""360"">","null","","","","","","","","",""
"null","","html-keyboard-response","30","29474","0.0-30.0","","","null","","","","","","","","",""
"609.2999999970198","","image-keyboard-response","31","30084","0.0-31.0","","img/set1/S1.jpg","83","1","random","83","random,structured_incentive,structured_load,structured_normal","2,3,3,4,2,1","true","","",""
"null","","html-keyboard-response","32","30439","0.0-32.0","","<img src=""img/set1/S1.jpg"" width=""540"" height = ""360"" style=""border:16px solid orange"">","null","","","","","","","","",""
"null","","html-keyboard-response","33","30639","0.0-33.0","","","null","","","","","","","","",""
"501.59999999403954","","image-keyboard-response","34","31142","0.0-34.0","","img/set1/S3.jpg","72","3","random","72","random,structured_incentive,structured_load,structured_normal","2,3,3,4,2,1","true","","",""
"null","","html-keyboard-response","35","31498","0.0-35.0","","<img src=""img/set1/S3.jpg"" width=""540"" height = ""360"" style=""border:16px solid orange"">","null","","","","","","","","",""
"null","","html-keyboard-response","36","31703","0.0-36.0","","","null","","","","","","","","",""
"562.3000000119209","","image-keyboard-response","37","32267","0.0-37.0","","img/set1/S1.jpg","83","1","random","83","random,structured_incentive,structured_load,structured_normal","2,3,3,4,2,1","true","","",""
"null","","html-keyboard-response","38","32623","0.0-38.0","","<img src=""img/set1/S1.jpg"" width=""540"" height = ""360"" style=""border:16px solid orange"">","null","","","","","","","","",""
"null","","html-keyboard-response","39","32824","0.0-39.0","","","null","","","","","","","","",""
"499.40000000596046","","image-keyboard-response","40","33324","0.0-40.0","","img/set1/S1.jpg","83","1","random","83","random,structured_incentive,structured_load,structured_normal","2,3,3,4,2,1","true","","",""
"null","","html-keyboard-response","41","33680","0.0-41.0","","<img src=""img/set1/S1.jpg"" width=""540"" height = ""360"" style=""border:16px solid orange"">","null","","","","","","","","",""
"null","","html-keyboard-response","42","33885","0.0-42.0","","","null","","","","","","","","",""
"540.4000000059605","","image-keyboard-response","43","34426","0.0-43.0","","img/set1/S2.jpg","68","2","random","68","random,structured_incentive,structured_load,structured_normal","2,3,3,4,2,1","true","","",""
"null","","html-keyboard-response","44","34783","0.0-44.0","","<img src=""img/set1/S2.jpg"" width=""540"" height = ""360"" style=""border:16px solid orange"">","null","","","","","","","","",""
"null","","html-keyboard-response","45","34987","0.0-45.0","","","null","","","","","","","","",""
"743.3000000119209","","image-keyboard-response","46","35731","0.0-46.0","","img/set1/S4.jpg","74","4","random","74","random,structured_incentive,structured_load,structured_normal","2,3,3,4,2,1","true","","",""
"null","","html-keyboard-response","47","36085","0.0-47.0","","<img src=""img/set1/S4.jpg"" width=""540"" height = ""360"" style=""border:16px solid orange"">","null","","","","","","","","",""
"null","","html-keyboard-response","48","36291","0.0-48.0","","","null","","","","","","","","",""
"722","","image-keyboard-response","49","37014","0.0-49.0","","img/set1/S2.jpg","68","2","random","68","random,structured_incentive,structured_load,structured_normal","2,3,3,4,2,1","true","","",""
"null","","html-keyboard-response","50","37370","0.0-50.0","","<img src=""img/set1/S2.jpg"" width=""540"" height = ""360"" style=""border:16px solid orange"">","null","","","","","","","","",""
"null","","html-keyboard-response","51","37576","0.0-51.0","","","null","","","","","","","","",""
"956.0999999940395","","image-keyboard-response","52","38532","0.0-52.0","","img/set1/S4.jpg","74","4","random","74","random,structured_incentive,structured_load,structured_normal","2,3,3,4,2,1","true","","",""
"null","","html-keyboard-response","53","38889","0.0-53.0","","<img src=""img/set1/S4.jpg"" width=""540"" height = ""360"" style=""border:16px solid orange"">","null","","","","","","","","",""
"null","","html-keyboard-response","54","39094","0.0-54.0","","","null","","","","","","","","",""
"720.0999999940395","","image-keyboard-response","55","39815","0.0-55.0","","img/set1/S3.jpg","72","3","random","72","random,structured_incentive,structured_load,structured_normal","2,3,3,4,2,1","true","","",""
"null","","html-keyboard-response","56","40171","0.0-56.0","","<img src=""img/set1/S3.jpg"" width=""540"" height = ""360"" style=""border:16px solid orange"">","null","","","","","","","","",""
"null","","html-keyboard-response","57","40377","0.0-57.0","","","null","","","","","","","","",""
"787.5999999940395","","image-keyboard-response","58","41165","0.0-58.0","","img/set1/S4.jpg","74","4","random","74","random,structured_incentive,structured_load,structured_normal","2,3,3,4,2,1","true","","",""
"null","","html-keyboard-response","59","41517","0.0-59.0","","<img src=""img/set1/S4.jpg"" width=""540"" height = ""360"" style=""border:16px solid orange"">","null","","","","","","","","",""
"null","","html-keyboard-response","60","41720","0.0-60.0","","","null","","","","","","","","",""
"659.5","","image-keyboard-response","61","42380","0.0-61.0","","img/set1/S1.jpg","83","1","random","83","random,structured_incentive,structured_load,structured_normal","2,3,3,4,2,1","true","","",""
"null","","html-keyboard-response","62","42736","0.0-62.0","","<img src=""img/set1/S1.jpg"" width=""540"" height = ""360"" style=""border:16px solid orange"">","null","","","","","","","","",""
"null","","html-keyboard-response","63","42938","0.0-63.0","","","null","","","","","","","","",""
"970.9000000059605","","image-keyboard-response","64","43910","0.0-64.0","","img/set1/S3.jpg","72","3","random","72","random,structured_incentive,structured_load,structured_normal","2,3,3,4,2,1","true","","",""
"null","","html-keyboard-response","65","44265","0.0-65.0","","<img src=""img/set1/S3.jpg"" width=""540"" height = ""360"" style=""border:16px solid orange"">","null","","","","","","","","",""
"null","","html-keyboard-response","66","44470","0.0-66.0","","","null","","","","","","","","",""
"743.7000000029802","","image-keyboard-response","67","45215","0.0-67.0","","img/set1/S2.jpg","68","2","random","68","random,structured_incentive,structured_load,structured_normal","2,3,3,4,2,1","true","","",""
"null","","html-keyboard-response","68","45566","0.0-68.0","","<img src=""img/set1/S2.jpg"" width=""540"" height = ""360"" style=""border:16px solid orange"">","null","","","","","","","","",""
"null","","html-keyboard-response","69","45772","0.0-69.0","","","null","","","","","","","","",""
"566.2000000029802","","image-keyboard-response","70","46340","0.0-70.0","","img/set1/S3.jpg","68","3","random","72","random,structured_incentive,structured_load,structured_normal","2,3,3,4,2,1","false","","",""
"null","","html-keyboard-response","71","46696","0.0-71.0","","<img src=""img/set1/S3.jpg"" width=""540"" height = ""360"">","null","","","","","","","","",""
"null","","html-keyboard-response","72","46902","0.0-72.0","","","null","","","","","","","","",""
"652.3999999910593","","image-keyboard-response","73","47555","0.0-73.0","","img/set1/S3.jpg","68","3","random","72","random,structured_incentive,structured_load,structured_normal","2,3,3,4,2,1","false","","",""
"null","","html-keyboard-response","74","47906","0.0-74.0","","<img src=""img/set1/S3.jpg"" width=""540"" height = ""360"">","null","","","","","","","","",""
"null","","html-keyboard-response","75","48111","0.0-75.0","","","null","","","","","","","","",""
"792.5","","image-keyboard-response","76","48905","0.0-76.0","","img/set1/S4.jpg","74","4","random","74","random,structured_incentive,structured_load,structured_normal","2,3,3,4,2,1","true","","",""
"null","","html-keyboard-response","77","49259","0.0-77.0","","<img src=""img/set1/S4.jpg"" width=""540"" height = ""360"" style=""border:16px solid orange"">","null","","","","","","","","",""
"null","","html-keyboard-response","78","49461","0.0-78.0","","","null","","","","","","","","",""
"635.2000000029802","","image-keyboard-response","79","50097","0.0-79.0","","img/set1/S4.jpg","74","4","random","74","random,structured_incentive,structured_load,structured_normal","2,3,3,4,2,1","true","","",""
"null","","html-keyboard-response","80","50452","0.0-80.0","","<img src=""img/set1/S4.jpg"" width=""540"" height = ""360"" style=""border:16px solid orange"">","null","","","","","","","","",""
"null","","html-keyboard-response","81","50658","0.0-81.0","","","null","","","","","","","","",""
"676.1000000089407","","image-keyboard-response","82","51335","0.0-82.0","","img/set1/S1.jpg","83","1","random","83","random,structured_incentive,structured_load,structured_normal","2,3,3,4,2,1","true","","",""
"null","","html-keyboard-response","83","51691","0.0-83.0","","<img src=""img/set1/S1.jpg"" width=""540"" height = ""360"" style=""border:16px solid orange"">","null","","","","","","","","",""
"null","","html-keyboard-response","84","51896","0.0-84.0","","","null","","","","","","","","",""
"989.2000000029802","","image-keyboard-response","85","52886","0.0-85.0","","img/set1/S3.jpg","68","3","random","72","random,structured_incentive,structured_load,structured_normal","2,3,3,4,2,1","false","","",""
"null","","html-keyboard-response","86","53237","0.0-86.0","","<img src=""img/set1/S3.jpg"" width=""540"" height = ""360"">","null","","","","","","","","",""
"null","","html-keyboard-response","87","53443","0.0-87.0","","","null","","","","","","","","",""
"680.6000000089407","","image-keyboard-response","88","54124","0.0-88.0","","img/set1/S2.jpg","68","2","random","68","random,structured_incentive,structured_load,structured_normal","2,3,3,4,2,1","true","","",""
"null","","html-keyboard-response","89","54478","0.0-89.0","","<img src=""img/set1/S2.jpg"" width=""540"" height = ""360"" style=""border:16px solid orange"">","null","","","","","","","","",""
"null","","html-keyboard-response","90","54683","0.0-90.0","","","null","","","","","","","","",""
"666.3999999910593","","image-keyboard-response","91","55350","0.0-91.0","","img/set1/S1.jpg","83","1","random","83","random,structured_incentive,structured_load,structured_normal","2,3,3,4,2,1","true","","",""
"null","","html-keyboard-response","92","55702","0.0-92.0","","<img src=""img/set1/S1.jpg"" width=""540"" height = ""360"" style=""border:16px solid orange"">","null","","","","","","","","",""
"null","","html-keyboard-response","93","55903","0.0-93.0","","","null","","","","","","","","",""
"504.20000000298023","","image-keyboard-response","94","56408","0.0-94.0","","img/set1/S3.jpg","72","3","random","72","random,structured_incentive,structured_load,structured_normal","2,3,3,4,2,1","true","","",""
"null","","html-keyboard-response","95","56764","0.0-95.0","","<img src=""img/set1/S3.jpg"" width=""540"" height = ""360"" style=""border:16px solid orange"">","null","","","","","","","","",""
"null","","html-keyboard-response","96","56970","0.0-96.0","","","null","","","","","","","","",""
"607.5","","image-keyboard-response","97","57578","0.0-97.0","","img/set1/S1.jpg","83","1","random","83","random,structured_incentive,structured_load,structured_normal","2,3,3,4,2,1","true","","",""
"null","","html-keyboard-response","98","57934","0.0-98.0","","<img src=""img/set1/S1.jpg"" width=""540"" height = ""360"" style=""border:16px solid orange"">","null","","","","","","","","",""
"null","","html-keyboard-response","99","58138","0.0-99.0","","","null","","","","","","","","",""
"609.6000000089407","","image-keyboard-response","100","58748","0.0-100.0","","img/set1/S1.jpg","83","1","random","83","random,structured_incentive,structured_load,structured_normal","2,3,3,4,2,1","true","","",""
"null","","html-keyboard-response","101","59104","0.0-101.0","","<img src=""img/set1/S1.jpg"" width=""540"" height = ""360"" style=""border:16px solid orange"">","null","","","","","","","","",""
"null","","html-keyboard-response","102","59309","0.0-102.0","","","null","","","","","","","","",""
"833.5","","image-keyboard-response","103","60143","0.0-103.0","","img/set1/S3.jpg","72","3","random","72","random,structured_incentive,structured_load,structured_normal","2,3,3,4,2,1","true","","",""
"null","","html-keyboard-response","104","60499","0.0-104.0","","<img src=""img/set1/S3.jpg"" width=""540"" height = ""360"" style=""border:16px solid orange"">","null","","","","","","","","",""
"null","","html-keyboard-response","105","60705","0.0-105.0","","","null","","","","","","","","",""
"517.3999999910593","","image-keyboard-response","106","61223","0.0-106.0","","img/set1/S3.jpg","72","3","random","72","random,structured_incentive,structured_load,structured_normal","2,3,3,4,2,1","true","","",""
"null","","html-keyboard-response","107","61576","0.0-107.0","","<img src=""img/set1/S3.jpg"" width=""540"" height = ""360"" style=""border:16px solid orange"">","null","","","","","","","","",""
"null","","html-keyboard-response","108","61778","0.0-108.0","","","null","","","","","","","","",""
"613.1000000089407","","image-keyboard-response","109","62392","0.0-109.0","","img/set1/S4.jpg","74","4","random","74","random,structured_incentive,structured_load,structured_normal","2,3,3,4,2,1","true","","",""
"null","","html-keyboard-response","110","62744","0.0-110.0","","<img src=""img/set1/S4.jpg"" width=""540"" height = ""360"" style=""border:16px solid orange"">","null","","","","","","","","",""
"null","","html-keyboard-response","111","62948","0.0-111.0","","","null","","","","","","","","",""
"693","","image-keyboard-response","112","63641","0.0-112.0","","img/set1/S2.jpg","68","2","random","68","random,structured_incentive,structured_load,structured_normal","2,3,3,4,2,1","true","","",""
"null","","html-keyboard-response","113","63994","0.0-113.0","","<img src=""img/set1/S2.jpg"" width=""540"" height = ""360"" style=""border:16px solid orange"">","null","","","","","","","","",""
"null","","html-keyboard-response","114","64200","0.0-114.0","","","null","","","","","","","","",""
"700.5","","image-keyboard-response","115","64901","0.0-115.0","","img/set1/S4.jpg","74","4","random","74","random,structured_incentive,structured_load,structured_normal","2,3,3,4,2,1","true","","",""
"null","","html-keyboard-response","116","65257","0.0-116.0","","<img src=""img/set1/S4.jpg"" width=""540"" height = ""360"" style=""border:16px solid orange"">","null","","","","","","","","",""
"null","","html-keyboard-response","117","65459","0.0-117.0","","","null","","","","","","","","",""
"1151.2999999970198","","image-keyboard-response","118","66611","0.0-118.0","","img/set1/S3.jpg","72","3","random","72","random,structured_incentive,structured_load,structured_normal","2,3,3,4,2,1","true","","",""
"null","","html-keyboard-response","119","66963","0.0-119.0","","<img src=""img/set1/S3.jpg"" width=""540"" height = ""360"" style=""border:16px solid orange"">","null","","","","","","","","",""
"null","","html-keyboard-response","120","67169","0.0-120.0","","","null","","","","","","","","",""
"690.3999999910593","","image-keyboard-response","121","67860","0.0-121.0","","img/set1/S2.jpg","68","2","random","68","random,structured_incentive,structured_load,structured_normal","2,3,3,4,2,1","true","","",""
"null","","html-keyboard-response","122","68214","0.0-122.0","","<img src=""img/set1/S2.jpg"" width=""540"" height = ""360"" style=""border:16px solid orange"">","null","","","","","","","","",""
"null","","html-keyboard-response","123","68416","0.0-123.0","","","null","","","","","","","","",""
"546","","image-keyboard-response","124","68962","0.0-124.0","","img/set1/S2.jpg","68","2","random","68","random,structured_incentive,structured_load,structured_normal","2,3,3,4,2,1","true","","",""
"null","","html-keyboard-response","125","69315","0.0-125.0","","<img src=""img/set1/S2.jpg"" width=""540"" height = ""360"" style=""border:16px solid orange"">","null","","","","","","","","",""
"null","","html-keyboard-response","126","69520","0.0-126.0","","","null","","","","","","","","",""
"498.80000001192093","","image-keyboard-response","127","70020","0.0-127.0","","img/set1/S1.jpg","83","1","random","83","random,structured_incentive,structured_load,structured_normal","2,3,3,4,2,1","true","","",""
"null","","html-keyboard-response","128","70372","0.0-128.0","","<img src=""img/set1/S1.jpg"" width=""540"" height = ""360"" style=""border:16px solid orange"">","null","","","","","","","","",""
"null","","html-keyboard-response","129","70578","0.0-129.0","","","null","","","","","","","","",""
"633.9000000059605","","image-keyboard-response","130","71212","0.0-130.0","","img/set1/S3.jpg","72","3","random","72","random,structured_incentive,structured_load,structured_normal","2,3,3,4,2,1","true","","",""
"null","","html-keyboard-response","131","71568","0.0-131.0","","<img src=""img/set1/S3.jpg"" width=""540"" height = ""360"" style=""border:16px solid orange"">","null","","","","","","","","",""
"null","","html-keyboard-response","132","71774","0.0-132.0","","","null","","","","","","","","",""
"540.0999999940395","","image-keyboard-response","133","72315","0.0-133.0","","img/set1/S3.jpg","72","3","random","72","random,structured_incentive,structured_load,structured_normal","2,3,3,4,2,1","true","","",""
"null","","html-keyboard-response","134","72666","0.0-134.0","","<img src=""img/set1/S3.jpg"" width=""540"" height = ""360"" style=""border:16px solid orange"">","null","","","","","","","","",""
"null","","html-keyboard-response","135","72871","0.0-135.0","","","null","","","","","","","","",""
"658.1000000089407","","image-keyboard-response","136","73530","0.0-136.0","","img/set1/S2.jpg","68","2","random","68","random,structured_incentive,structured_load,structured_normal","2,3,3,4,2,1","true","","",""
"null","","html-keyboard-response","137","73884","0.0-137.0","","<img src=""img/set1/S2.jpg"" width=""540"" height = ""360"" style=""border:16px solid orange"">","null","","","","","","","","",""
"null","","html-keyboard-response","138","74086","0.0-138.0","","","null","","","","","","","","",""
"657.8999999910593","","image-keyboard-response","139","74745","0.0-139.0","","img/set1/S1.jpg","83","1","random","83","random,structured_incentive,structured_load,structured_normal","2,3,3,4,2,1","true","","",""
"null","","html-keyboard-response","140","75101","0.0-140.0","","<img src=""img/set1/S1.jpg"" width=""540"" height = ""360"" style=""border:16px solid orange"">","null","","","","","","","","",""
"null","","html-keyboard-response","141","75302","0.0-141.0","","","null","","","","","","","","",""
"668.2000000029802","","image-keyboard-response","142","75971","0.0-142.0","","img/set1/S2.jpg","68","2","random","68","random,structured_incentive,structured_load,structured_normal","2,3,3,4,2,1","true","","",""
"null","","html-keyboard-response","143","76323","0.0-143.0","","<img src=""img/set1/S2.jpg"" width=""540"" height = ""360"" style=""border:16px solid orange"">","null","","","","","","","","",""
"null","","html-keyboard-response","144","76529","0.0-144.0","","","null","","","","","","","","",""
"566.2999999970198","","image-keyboard-response","145","77096","0.0-145.0","","img/set1/S2.jpg","68","2","random","68","random,structured_incentive,structured_load,structured_normal","2,3,3,4,2,1","true","","",""
"null","","html-keyboard-response","146","77452","0.0-146.0","","<img src=""img/set1/S2.jpg"" width=""540"" height = ""360"" style=""border:16px solid orange"">","null","","","","","","","","",""
"null","","html-keyboard-response","147","77653","0.0-147.0","","","null","","","","","","","","",""
"1084.0999999940395","","image-keyboard-response","148","78738","0.0-148.0","","img/set1/S3.jpg","72","3","random","72","random,structured_incentive,structured_load,structured_normal","2,3,3,4,2,1","true","","",""
"null","","html-keyboard-response","149","79094","0.0-149.0","","<img src=""img/set1/S3.jpg"" width=""540"" height = ""360"" style=""border:16px solid orange"">","null","","","","","","","","",""
"null","","html-keyboard-response","150","79300","0.0-150.0","","","null","","","","","","","","",""
"562.5","","image-keyboard-response","151","79863","0.0-151.0","","img/set1/S4.jpg","74","4","random","74","random,structured_incentive,structured_load,structured_normal","2,3,3,4,2,1","true","","",""
"null","","html-keyboard-response","152","80219","0.0-152.0","","<img src=""img/set1/S4.jpg"" width=""540"" height = ""360"" style=""border:16px solid orange"">","null","","","","","","","","",""
"null","","html-keyboard-response","153","80422","0.0-153.0","","","null","","","","","","","","",""
"542.9000000059605","","image-keyboard-response","154","80966","0.0-154.0","","img/set1/S3.jpg","72","3","random","72","random,structured_incentive,structured_load,structured_normal","2,3,3,4,2,1","true","","",""
"null","","html-keyboard-response","155","81322","0.0-155.0","","<img src=""img/set1/S3.jpg"" width=""540"" height = ""360"" style=""border:16px solid orange"">","null","","","","","","","","",""
"null","","html-keyboard-response","156","81523","0.0-156.0","","","null","","","","","","","","",""
"566.9000000059605","","image-keyboard-response","157","82090","0.0-157.0","","img/set1/S4.jpg","74","4","random","74","random,structured_incentive,structured_load,structured_normal","2,3,3,4,2,1","true","","",""
"null","","html-keyboard-response","158","82447","0.0-158.0","","<img src=""img/set1/S4.jpg"" width=""540"" height = ""360"" style=""border:16px solid orange"">","null","","","","","","","","",""
"null","","html-keyboard-response","159","82650","0.0-159.0","","","null","","","","","","","","",""
"587.3000000119209","","image-keyboard-response","160","83238","0.0-160.0","","img/set1/S2.jpg","68","2","random","68","random,structured_incentive,structured_load,structured_normal","2,3,3,4,2,1","true","","",""
"null","","html-keyboard-response","161","83595","0.0-161.0","","<img src=""img/set1/S2.jpg"" width=""540"" height = ""360"" style=""border:16px solid orange"">","null","","","","","","","","",""
"null","","html-keyboard-response","162","83795","0.0-162.0","","","null","","","","","","","","",""
"522.0999999940395","","image-keyboard-response","163","84318","0.0-163.0","","img/set1/S2.jpg","68","2","random","68","random,structured_incentive,structured_load,structured_normal","2,3,3,4,2,1","true","","",""
"null","","html-keyboard-response","164","84674","0.0-164.0","","<img src=""img/set1/S2.jpg"" width=""540"" height = ""360"" style=""border:16px solid orange"">","null","","","","","","","","",""
"null","","html-keyboard-response","165","84875","0.0-165.0","","","null","","","","","","","","",""
"724.5","","image-keyboard-response","166","85600","0.0-166.0","","img/set1/S4.jpg","74","4","random","74","random,structured_incentive,structured_load,structured_normal","2,3,3,4,2,1","true","","",""
"null","","html-keyboard-response","167","85956","0.0-167.0","","<img src=""img/set1/S4.jpg"" width=""540"" height = ""360"" style=""border:16px solid orange"">","null","","","","","","","","",""
"null","","html-keyboard-response","168","86159","0.0-168.0","","","null","","","","","","","","",""
"565.9000000059605","","image-keyboard-response","169","86725","0.0-169.0","","img/set1/S4.jpg","74","4","random","74","random,structured_incentive,structured_load,structured_normal","2,3,3,4,2,1","true","","",""
"null","","html-keyboard-response","170","87081","0.0-170.0","","<img src=""img/set1/S4.jpg"" width=""540"" height = ""360"" style=""border:16px solid orange"">","null","","","","","","","","",""
"null","","html-keyboard-response","171","87287","0.0-171.0","","","null","","","","","","","","",""
"810.1000000089407","","image-keyboard-response","172","88098","0.0-172.0","","img/set1/S2.jpg","68","2","random","68","random,structured_incentive,structured_load,structured_normal","2,3,3,4,2,1","true","","",""
"null","","html-keyboard-response","173","88450","0.0-173.0","","<img src=""img/set1/S2.jpg"" width=""540"" height = ""360"" style=""border:16px solid orange"">","null","","","","","","","","",""
"null","","html-keyboard-response","174","88653","0.0-174.0","","","null","","","","","","","","",""
"783.1000000089407","","image-keyboard-response","175","89436","0.0-175.0","","img/set1/S1.jpg","83","1","random","83","random,structured_incentive,structured_load,structured_normal","2,3,3,4,2,1","true","","",""
"null","","html-keyboard-response","176","89788","0.0-176.0","","<img src=""img/set1/S1.jpg"" width=""540"" height = ""360"" style=""border:16px solid orange"">","null","","","","","","","","",""
"null","","html-keyboard-response","177","89993","0.0-177.0","","","null","","","","","","","","",""
"736.0999999940395","","image-keyboard-response","178","90730","0.0-178.0","","img/set1/S4.jpg","74","4","random","74","random,structured_incentive,structured_load,structured_normal","2,3,3,4,2,1","true","","",""
"null","","html-keyboard-response","179","91082","0.0-179.0","","<img src=""img/set1/S4.jpg"" width=""540"" height = ""360"" style=""border:16px solid orange"">","null","","","","","","","","",""
"null","","html-keyboard-response","180","91287","0.0-180.0","","","null","","","","","","","","",""
"600.7999999970198","","image-keyboard-response","181","91889","0.0-181.0","","img/set1/S3.jpg","72","3","random","72","random,structured_incentive,structured_load,structured_normal","2,3,3,4,2,1","true","","",""
"null","","html-keyboard-response","182","92245","0.0-182.0","","<img src=""img/set1/S3.jpg"" width=""540"" height = ""360"" style=""border:16px solid orange"">","null","","","","","","","","",""
"null","","html-keyboard-response","183","92451","0.0-183.0","","","null","","","","","","","","",""
"562.5","","image-keyboard-response","184","93014","0.0-184.0","","img/set1/S3.jpg","72","3","random","72","random,structured_incentive,structured_load,structured_normal","2,3,3,4,2,1","true","","",""
"null","","html-keyboard-response","185","93365","0.0-185.0","","<img src=""img/set1/S3.jpg"" width=""540"" height = ""360"" style=""border:16px solid orange"">","null","","","","","","","","",""
"null","","html-keyboard-response","186","93570","0.0-186.0","","","null","","","","","","","","",""
"546","","image-keyboard-response","187","94117","0.0-187.0","","img/set1/S3.jpg","72","3","random","72","random,structured_incentive,structured_load,structured_normal","2,3,3,4,2,1","true","","",""
"null","","html-keyboard-response","188","94469","0.0-188.0","","<img src=""img/set1/S3.jpg"" width=""540"" height = ""360"" style=""border:16px solid orange"">","null","","","","","","","","",""
"null","","html-keyboard-response","189","94673","0.0-189.0","","","null","","","","","","","","",""
"589.7999999970198","","image-keyboard-response","190","95264","0.0-190.0","","img/set1/S4.jpg","74","4","random","74","random,structured_incentive,structured_load,structured_normal","2,3,3,4,2,1","true","","",""
"null","","html-keyboard-response","191","95615","0.0-191.0","","<img src=""img/set1/S4.jpg"" width=""540"" height = ""360"" style=""border:16px solid orange"">","null","","","","","","","","",""
"null","","html-keyboard-response","192","95816","0.0-192.0","","","null","","","","","","","","",""
"616.7999999970198","","image-keyboard-response","193","96433","0.0-193.0","","img/set1/S2.jpg","68","2","random","68","random,structured_incentive,structured_load,structured_normal","2,3,3,4,2,1","true","","",""
"null","","html-keyboard-response","194","96789","0.0-194.0","","<img src=""img/set1/S2.jpg"" width=""540"" height = ""360"" style=""border:16px solid orange"">","null","","","","","","","","",""
"null","","html-keyboard-response","195","96994","0.0-195.0","","","null","","","","","","","","",""
"496.79999999701977","","image-keyboard-response","196","97491","0.0-196.0","","img/set1/S2.jpg","68","2","random","68","random,structured_incentive,structured_load,structured_normal","2,3,3,4,2,1","true","","",""
"null","","html-keyboard-response","197","97847","0.0-197.0","","<img src=""img/set1/S2.jpg"" width=""540"" height = ""360"" style=""border:16px solid orange"">","null","","","","","","","","",""
"null","","html-keyboard-response","198","98053","0.0-198.0","","","null","","","","","","","","",""
"663.4000000059605","","image-keyboard-response","199","98717","0.0-199.0","","img/set1/S3.jpg","72","3","random","72","random,structured_incentive,structured_load,structured_normal","2,3,3,4,2,1","true","","",""
"null","","html-keyboard-response","200","99072","0.0-200.0","","<img src=""img/set1/S3.jpg"" width=""540"" height = ""360"" style=""border:16px solid orange"">","null","","","","","","","","",""
"null","","html-keyboard-response","201","99274","0.0-201.0","","","null","","","","","","","","",""
"680.0999999940395","","image-keyboard-response","202","99955","0.0-202.0","","img/set1/S2.jpg","68","2","random","68","random,structured_incentive,structured_load,structured_normal","2,3,3,4,2,1","true","","",""
"null","","html-keyboard-response","203","100311","0.0-203.0","","<img src=""img/set1/S2.jpg"" width=""540"" height = ""360"" style=""border:16px solid orange"">","null","","","","","","","","",""
"null","","html-keyboard-response","204","100512","0.0-204.0","","","null","","","","","","","","",""
"634.8000000119209","","image-keyboard-response","205","101147","0.0-205.0","","img/set1/S1.jpg","83","1","random","83","random,structured_incentive,structured_load,structured_normal","2,3,3,4,2,1","true","","",""
"null","","html-keyboard-response","206","101503","0.0-206.0","","<img src=""img/set1/S1.jpg"" width=""540"" height = ""360"" style=""border:16px solid orange"">","null","","","","","","","","",""
"null","","html-keyboard-response","207","101708","0.0-207.0","","","null","","","","","","","","",""
"541.0999999940395","","image-keyboard-response","208","102250","0.0-208.0","","img/set1/S1.jpg","83","1","random","83","random,structured_incentive,structured_load,structured_normal","2,3,3,4,2,1","true","","",""
"null","","html-keyboard-response","209","102603","0.0-209.0","","<img src=""img/set1/S1.jpg"" width=""540"" height = ""360"" style=""border:16px solid orange"">","null","","","","","","","","",""
"null","","html-keyboard-response","210","102809","0.0-210.0","","","null","","","","","","","","",""
"609.8999999910593","","image-keyboard-response","211","103419","0.0-211.0","","img/set1/S2.jpg","68","2","random","68","random,structured_incentive,structured_load,structured_normal","2,3,3,4,2,1","true","","",""
"null","","html-keyboard-response","212","103771","0.0-212.0","","<img src=""img/set1/S2.jpg"" width=""540"" height = ""360"" style=""border:16px solid orange"">","null","","","","","","","","",""
"null","","html-keyboard-response","213","103976","0.0-213.0","","","null","","","","","","","","",""
"589.8999999910593","","image-keyboard-response","214","104567","0.0-214.0","","img/set1/S1.jpg","83","1","random","83","random,structured_incentive,structured_load,structured_normal","2,3,3,4,2,1","true","","",""
"null","","html-keyboard-response","215","104923","0.0-215.0","","<img src=""img/set1/S1.jpg"" width=""540"" height = ""360"" style=""border:16px solid orange"">","null","","","","","","","","",""
"null","","html-keyboard-response","216","105129","0.0-216.0","","","null","","","","","","","","",""
"562.3999999910593","","image-keyboard-response","217","105692","0.0-217.0","","img/set1/S3.jpg","72","3","random","72","random,structured_incentive,structured_load,structured_normal","2,3,3,4,2,1","true","","",""
"null","","html-keyboard-response","218","106048","0.0-218.0","","<img src=""img/set1/S3.jpg"" width=""540"" height = ""360"" style=""border:16px solid orange"">","null","","","","","","","","",""
"null","","html-keyboard-response","219","106253","0.0-219.0","","","null","","","","","","","","",""
"630.0999999940395","","image-keyboard-response","220","106884","0.0-220.0","","img/set1/S2.jpg","68","2","random","68","random,structured_incentive,structured_load,structured_normal","2,3,3,4,2,1","true","","",""
"null","","html-keyboard-response","221","107236","0.0-221.0","","<img src=""img/set1/S2.jpg"" width=""540"" height = ""360"" style=""border:16px solid orange"">","null","","","","","","","","",""
"null","","html-keyboard-response","222","107440","0.0-222.0","","","null","","","","","","","","",""
"490","","image-keyboard-response","223","107930","0.0-223.0","","img/set1/S4.jpg","74","4","random","74","random,structured_incentive,structured_load,structured_normal","2,3,3,4,2,1","true","","",""
"null","","html-keyboard-response","224","108286","0.0-224.0","","<img src=""img/set1/S4.jpg"" width=""540"" height = ""360"" style=""border:16px solid orange"">","null","","","","","","","","",""
"null","","html-keyboard-response","225","108490","0.0-225.0","","","null","","","","","","","","",""
"665.7000000029802","","image-keyboard-response","226","109157","0.0-226.0","","img/set1/S1.jpg","83","1","random","83","random,structured_incentive,structured_load,structured_normal","2,3,3,4,2,1","true","","",""
"null","","html-keyboard-response","227","109508","0.0-227.0","","<img src=""img/set1/S1.jpg"" width=""540"" height = ""360"" style=""border:16px solid orange"">","null","","","","","","","","",""
"null","","html-keyboard-response","228","109713","0.0-228.0","","","null","","","","","","","","",""
"578.6999999880791","","image-keyboard-response","229","110293","0.0-229.0","","img/set1/S1.jpg","83","1","random","83","random,structured_incentive,structured_load,structured_normal","2,3,3,4,2,1","true","","",""
"null","","html-keyboard-response","230","110649","0.0-230.0","","<img src=""img/set1/S1.jpg"" width=""540"" height = ""360"" style=""border:16px solid orange"">","null","","","","","","","","",""
"null","","html-keyboard-response","231","110855","0.0-231.0","","","null","","","","","","","","",""
"742.4000000059605","","image-keyboard-response","232","111598","0.0-232.0","","img/set1/S2.jpg","68","2","random","68","random,structured_incentive,structured_load,structured_normal","2,3,3,4,2,1","true","","",""
"null","","html-keyboard-response","233","111954","0.0-233.0","","<img src=""img/set1/S2.jpg"" width=""540"" height = ""360"" style=""border:16px solid orange"">","null","","","","","","","","",""
"null","","html-keyboard-response","234","112159","0.0-234.0","","","null","","","","","","","","",""
"697.7999999970198","","image-keyboard-response","235","112858","0.0-235.0","","img/set1/S4.jpg","74","4","random","74","random,structured_incentive,structured_load,structured_normal","2,3,3,4,2,1","true","","",""
"null","","html-keyboard-response","236","113210","0.0-236.0","","<img src=""img/set1/S4.jpg"" width=""540"" height = ""360"" style=""border:16px solid orange"">","null","","","","","","","","",""
"null","","html-keyboard-response","237","113416","0.0-237.0","","","null","","","","","","","","",""
"701.2999999970198","","image-keyboard-response","238","114118","0.0-238.0","","img/set1/S2.jpg","68","2","random","68","random,structured_incentive,structured_load,structured_normal","2,3,3,4,2,1","true","","",""
"null","","html-keyboard-response","239","114474","0.0-239.0","","<img src=""img/set1/S2.jpg"" width=""540"" height = ""360"" style=""border:16px solid orange"">","null","","","","","","","","",""
"null","","html-keyboard-response","240","114675","0.0-240.0","","","null","","","","","","","","",""
"656.9000000059605","","image-keyboard-response","241","115333","0.0-241.0","","img/set1/S2.jpg","68","2","random","68","random,structured_incentive,structured_load,structured_normal","2,3,3,4,2,1","true","","",""
"null","","html-keyboard-response","242","115688","0.0-242.0","","<img src=""img/set1/S2.jpg"" width=""540"" height = ""360"" style=""border:16px solid orange"">","null","","","","","","","","",""
"null","","html-keyboard-response","243","115894","0.0-243.0","","","null","","","","","","","","",""
"720.5999999940395","","image-keyboard-response","244","116615","0.0-244.0","","img/set1/S1.jpg","83","1","random","83","random,structured_incentive,structured_load,structured_normal","2,3,3,4,2,1","true","","",""
"null","","html-keyboard-response","245","116971","0.0-245.0","","<img src=""img/set1/S1.jpg"" width=""540"" height = ""360"" style=""border:16px solid orange"">","null","","","","","","","","",""
"null","","html-keyboard-response","246","117176","0.0-246.0","","","null","","","","","","","","",""
"900.7000000029802","","image-keyboard-response","247","118078","0.0-247.0","","img/set1/S2.jpg","68","2","random","68","random,structured_incentive,structured_load,structured_normal","2,3,3,4,2,1","true","","",""
"null","","html-keyboard-response","248","118430","0.0-248.0","","<img src=""img/set1/S2.jpg"" width=""540"" height = ""360"" style=""border:16px solid orange"">","null","","","","","","","","",""
"null","","html-keyboard-response","249","118637","0.0-249.0","","","null","","","","","","","","",""
"699.9000000059605","","image-keyboard-response","250","119337","0.0-250.0","","img/set1/S1.jpg","83","1","random","83","random,structured_incentive,structured_load,structured_normal","2,3,3,4,2,1","true","","",""
"null","","html-keyboard-response","251","119689","0.0-251.0","","<img src=""img/set1/S1.jpg"" width=""540"" height = ""360"" style=""border:16px solid orange"">","null","","","","","","","","",""
"null","","html-keyboard-response","252","119891","0.0-252.0","","","null","","","","","","","","",""
"593.5","","image-keyboard-response","253","120485","0.0-253.0","","img/set1/S3.jpg","72","3","random","72","random,structured_incentive,structured_load,structured_normal","2,3,3,4,2,1","true","","",""
"null","","html-keyboard-response","254","120841","0.0-254.0","","<img src=""img/set1/S3.jpg"" width=""540"" height = ""360"" style=""border:16px solid orange"">","null","","","","","","","","",""
"null","","html-keyboard-response","255","121046","0.0-255.0","","","null","","","","","","","","",""
"698.2000000029802","","image-keyboard-response","256","121745","0.0-256.0","","img/set1/S1.jpg","83","1","random","83","random,structured_incentive,structured_load,structured_normal","2,3,3,4,2,1","true","","",""
"null","","html-keyboard-response","257","122098","0.0-257.0","","<img src=""img/set1/S1.jpg"" width=""540"" height = ""360"" style=""border:16px solid orange"">","null","","","","","","","","",""
"null","","html-keyboard-response","258","122299","0.0-258.0","","","null","","","","","","","","",""
"637.0999999940395","","image-keyboard-response","259","122937","0.0-259.0","","img/set1/S3.jpg","72","3","random","72","random,structured_incentive,structured_load,structured_normal","2,3,3,4,2,1","true","","",""
"null","","html-keyboard-response","260","123293","0.0-260.0","","<img src=""img/set1/S3.jpg"" width=""540"" height = ""360"" style=""border:16px solid orange"">","null","","","","","","","","",""
"null","","html-keyboard-response","261","123499","0.0-261.0","","","null","","","","","","","","",""
"641.2000000029802","","image-keyboard-response","262","124141","0.0-262.0","","img/set1/S4.jpg","74","4","random","74","random,structured_incentive,structured_load,structured_normal","2,3,3,4,2,1","true","","",""
"null","","html-keyboard-response","263","124495","0.0-263.0","","<img src=""img/set1/S4.jpg"" width=""540"" height = ""360"" style=""border:16px solid orange"">","null","","","","","","","","",""
"null","","html-keyboard-response","264","124700","0.0-264.0","","","null","","","","","","","","",""
"609.7999999970198","","image-keyboard-response","265","125311","0.0-265.0","","img/set1/S3.jpg","72","3","random","72","random,structured_incentive,structured_load,structured_normal","2,3,3,4,2,1","true","","",""
"null","","html-keyboard-response","266","125667","0.0-266.0","","<img src=""img/set1/S3.jpg"" width=""540"" height = ""360"" style=""border:16px solid orange"">","null","","","","","","","","",""
"null","","html-keyboard-response","267","125873","0.0-267.0","","","null","","","","","","","","",""
"596.2000000029802","","image-keyboard-response","268","126470","0.0-268.0","","img/set1/S3.jpg","72","3","random","72","random,structured_incentive,structured_load,structured_normal","2,3,3,4,2,1","true","","",""
"null","","html-keyboard-response","269","126826","0.0-269.0","","<img src=""img/set1/S3.jpg"" width=""540"" height = ""360"" style=""border:16px solid orange"">","null","","","","","","","","",""
"null","","html-keyboard-response","270","127031","0.0-270.0","","","null","","","","","","","","",""
"663.7999999970198","","image-keyboard-response","271","127696","0.0-271.0","","img/set1/S3.jpg","72","3","random","72","random,structured_incentive,structured_load,structured_normal","2,3,3,4,2,1","true","","",""
"null","","html-keyboard-response","272","128052","0.0-272.0","","<img src=""img/set1/S3.jpg"" width=""540"" height = ""360"" style=""border:16px solid orange"">","null","","","","","","","","",""
"null","","html-keyboard-response","273","128253","0.0-273.0","","","null","","","","","","","","",""
"690.5","","image-keyboard-response","274","128945","0.0-274.0","","img/set1/S4.jpg","74","4","random","74","random,structured_incentive,structured_load,structured_normal","2,3,3,4,2,1","true","","",""
"null","","html-keyboard-response","275","129301","0.0-275.0","","<img src=""img/set1/S4.jpg"" width=""540"" height = ""360"" style=""border:16px solid orange"">","null","","","","","","","","",""
"null","","html-keyboard-response","276","129504","0.0-276.0","","","null","","","","","","","","",""
"598.1999999880791","","image-keyboard-response","277","130103","0.0-277.0","","img/set1/S3.jpg","72","3","random","72","random,structured_incentive,structured_load,structured_normal","2,3,3,4,2,1","true","","",""
"null","","html-keyboard-response","278","130457","0.0-278.0","","<img src=""img/set1/S3.jpg"" width=""540"" height = ""360"" style=""border:16px solid orange"">","null","","","","","","","","",""
"null","","html-keyboard-response","279","130660","0.0-279.0","","","null","","","","","","","","",""
"634.5999999940395","","image-keyboard-response","280","131296","0.0-280.0","","img/set1/S2.jpg","68","2","random","68","random,structured_incentive,structured_load,structured_normal","2,3,3,4,2,1","true","","",""
"null","","html-keyboard-response","281","131652","0.0-281.0","","<img src=""img/set1/S2.jpg"" width=""540"" height = ""360"" style=""border:16px solid orange"">","null","","","","","","","","",""
"null","","html-keyboard-response","282","131856","0.0-282.0","","","null","","","","","","","","",""
"586.5","","image-keyboard-response","283","132443","0.0-283.0","","img/set1/S2.jpg","68","2","random","68","random,structured_incentive,structured_load,structured_normal","2,3,3,4,2,1","true","","",""
"null","","html-keyboard-response","284","132799","0.0-284.0","","<img src=""img/set1/S2.jpg"" width=""540"" height = ""360"" style=""border:16px solid orange"">","null","","","","","","","","",""
"null","","html-keyboard-response","285","133001","0.0-285.0","","","null","","","","","","","","",""
"633.7999999970198","","image-keyboard-response","286","133635","0.0-286.0","","img/set1/S4.jpg","74","4","random","74","random,structured_incentive,structured_load,structured_normal","2,3,3,4,2,1","true","","",""
"null","","html-keyboard-response","287","133991","0.0-287.0","","<img src=""img/set1/S4.jpg"" width=""540"" height = ""360"" style=""border:16px solid orange"">","null","","","","","","","","",""
"null","","html-keyboard-response","288","134196","0.0-288.0","","","null","","","","","","","","",""
"473.3999999910593","","image-keyboard-response","289","134671","0.0-289.0","","img/set1/S4.jpg","74","4","random","74","random,structured_incentive,structured_load,structured_normal","2,3,3,4,2,1","true","","",""
"null","","html-keyboard-response","290","135025","0.0-290.0","","<img src=""img/set1/S4.jpg"" width=""540"" height = ""360"" style=""border:16px solid orange"">","null","","","","","","","","",""
"null","","html-keyboard-response","291","135230","0.0-291.0","","","null","","","","","","","","",""
"609.3999999910593","","image-keyboard-response","292","135840","0.0-292.0","","img/set1/S2.jpg","68","2","random","68","random,structured_incentive,structured_load,structured_normal","2,3,3,4,2,1","true","","",""
"null","","html-keyboard-response","293","136195","0.0-293.0","","<img src=""img/set1/S2.jpg"" width=""540"" height = ""360"" style=""border:16px solid orange"">","null","","","","","","","","",""
"null","","html-keyboard-response","294","136401","0.0-294.0","","","null","","","","","","","","",""
"608.6999999880791","","image-keyboard-response","295","137010","0.0-295.0","","img/set1/S3.jpg","72","3","random","72","random,structured_incentive,structured_load,structured_normal","2,3,3,4,2,1","true","","",""
"null","","html-keyboard-response","296","137363","0.0-296.0","","<img src=""img/set1/S3.jpg"" width=""540"" height = ""360"" style=""border:16px solid orange"">","null","","","","","","","","",""
"null","","html-keyboard-response","297","137568","0.0-297.0","","","null","","","","","","","","",""
"678.8999999910593","","image-keyboard-response","298","138248","0.0-298.0","","img/set1/S4.jpg","74","4","random","74","random,structured_incentive,structured_load,structured_normal","2,3,3,4,2,1","true","","",""
"null","","html-keyboard-response","299","138604","0.0-299.0","","<img src=""img/set1/S4.jpg"" width=""540"" height = ""360"" style=""border:16px solid orange"">","null","","","","","","","","",""
"null","","html-keyboard-response","300","138806","0.0-300.0","","","null","","","","","","","","",""
"634","","image-keyboard-response","301","139440","0.0-301.0","","img/set1/S1.jpg","83","1","random","83","random,structured_incentive,structured_load,structured_normal","2,3,3,4,2,1","true","","",""
"null","","html-keyboard-response","302","139791","0.0-302.0","","<img src=""img/set1/S1.jpg"" width=""540"" height = ""360"" style=""border:16px solid orange"">","null","","","","","","","","",""
"null","","html-keyboard-response","303","139994","0.0-303.0","","","null","","","","","","","","",""
"682.6000000089407","","image-keyboard-response","304","140678","0.0-304.0","","img/set1/S4.jpg","74","4","random","74","random,structured_incentive,structured_load,structured_normal","2,3,3,4,2,1","true","","",""
"null","","html-keyboard-response","305","141029","0.0-305.0","","<img src=""img/set1/S4.jpg"" width=""540"" height = ""360"" style=""border:16px solid orange"">","null","","","","","","","","",""
"null","","html-keyboard-response","306","141234","0.0-306.0","","","null","","","","","","","","",""
"590.3999999910593","","image-keyboard-response","307","141825","0.0-307.0","","img/set1/S4.jpg","74","4","random","74","random,structured_incentive,structured_load,structured_normal","2,3,3,4,2,1","true","","",""
"null","","html-keyboard-response","308","142177","0.0-308.0","","<img src=""img/set1/S4.jpg"" width=""540"" height = ""360"" style=""border:16px solid orange"">","null","","","","","","","","",""
"null","","html-keyboard-response","309","142379","0.0-309.0","","","null","","","","","","","","",""
"592.7999999970198","","image-keyboard-response","310","142973","0.0-310.0","","img/set1/S3.jpg","72","3","random","72","random,structured_incentive,structured_load,structured_normal","2,3,3,4,2,1","true","","",""
"null","","html-keyboard-response","311","143324","0.0-311.0","","<img src=""img/set1/S3.jpg"" width=""540"" height = ""360"" style=""border:16px solid orange"">","null","","","","","","","","",""
"null","","html-keyboard-response","312","143526","0.0-312.0","","","null","","","","","","","","",""
"548.1999999880791","","image-keyboard-response","313","144075","0.0-313.0","","img/set1/S1.jpg","83","1","random","83","random,structured_incentive,structured_load,structured_normal","2,3,3,4,2,1","true","","",""
"null","","html-keyboard-response","314","144431","0.0-314.0","","<img src=""img/set1/S1.jpg"" width=""540"" height = ""360"" style=""border:16px solid orange"">","null","","","","","","","","",""
"null","","html-keyboard-response","315","144636","0.0-315.0","","","null","","","","","","","","",""
"540.2999999970198","","image-keyboard-response","316","145177","0.0-316.0","","img/set1/S2.jpg","68","2","random","68","random,structured_incentive,structured_load,structured_normal","2,3,3,4,2,1","true","","",""
"null","","html-keyboard-response","317","145532","0.0-317.0","","<img src=""img/set1/S2.jpg"" width=""540"" height = ""360"" style=""border:16px solid orange"">","null","","","","","","","","",""
"null","","html-keyboard-response","318","145737","0.0-318.0","","","null","","","","","","","","",""
"508.70000000298023","","image-keyboard-response","319","146246","0.0-319.0","","img/set1/S1.jpg","83","1","random","83","random,structured_incentive,structured_load,structured_normal","2,3,3,4,2,1","true","","",""
"null","","html-keyboard-response","320","146602","0.0-320.0","","<img src=""img/set1/S1.jpg"" width=""540"" height = ""360"" style=""border:16px solid orange"">","null","","","","","","","","",""
"null","","html-keyboard-response","321","146804","0.0-321.0","","","null","","","","","","","","",""
"656.7000000029802","","image-keyboard-response","322","147461","0.0-322.0","","img/set1/S2.jpg","68","2","random","68","random,structured_incentive,structured_load,structured_normal","2,3,3,4,2,1","true","","",""
"null","","html-keyboard-response","323","147816","0.0-323.0","","<img src=""img/set1/S2.jpg"" width=""540"" height = ""360"" style=""border:16px solid orange"">","null","","","","","","","","",""
"null","","html-keyboard-response","324","148022","0.0-324.0","","","null","","","","","","","","",""
"585.4000000059605","","image-keyboard-response","325","148609","0.0-325.0","","img/set1/S4.jpg","74","4","random","74","random,structured_incentive,structured_load,structured_normal","2,3,3,4,2,1","true","","",""
"null","","html-keyboard-response","326","148965","0.0-326.0","","<img src=""img/set1/S4.jpg"" width=""540"" height = ""360"" style=""border:16px solid orange"">","null","","","","","","","","",""
"null","","html-keyboard-response","327","149170","0.0-327.0","","","null","","","","","","","","",""
"607.2999999970198","","image-keyboard-response","328","149779","0.0-328.0","","img/set1/S2.jpg","68","2","random","68","random,structured_incentive,structured_load,structured_normal","2,3,3,4,2,1","true","","",""
"null","","html-keyboard-response","329","150134","0.0-329.0","","<img src=""img/set1/S2.jpg"" width=""540"" height = ""360"" style=""border:16px solid orange"">","null","","","","","","","","",""
"null","","html-keyboard-response","330","150339","0.0-330.0","","","null","","","","","","","","",""
"585.5","","image-keyboard-response","331","150926","0.0-331.0","","img/set1/S1.jpg","83","1","random","83","random,structured_incentive,structured_load,structured_normal","2,3,3,4,2,1","true","","",""
"null","","html-keyboard-response","332","151282","0.0-332.0","","<img src=""img/set1/S1.jpg"" width=""540"" height = ""360"" style=""border:16px solid orange"">","null","","","","","","","","",""
"null","","html-keyboard-response","333","151485","0.0-333.0","","","null","","","","","","","","",""
"564.7999999970198","","image-keyboard-response","334","152051","0.0-334.0","","img/set1/S4.jpg","74","4","random","74","random,structured_incentive,structured_load,structured_normal","2,3,3,4,2,1","true","","",""
"null","","html-keyboard-response","335","152403","0.0-335.0","","<img src=""img/set1/S4.jpg"" width=""540"" height = ""360"" style=""border:16px solid orange"">","null","","","","","","","","",""
"null","","html-keyboard-response","336","152608","0.0-336.0","","","null","","","","","","","","",""
"589.2999999970198","","image-keyboard-response","337","153198","0.0-337.0","","img/set1/S4.jpg","74","4","random","74","random,structured_incentive,structured_load,structured_normal","2,3,3,4,2,1","true","","",""
"null","","html-keyboard-response","338","153553","0.0-338.0","","<img src=""img/set1/S4.jpg"" width=""540"" height = ""360"" style=""border:16px solid orange"">","null","","","","","","","","",""
"null","","html-keyboard-response","339","153757","0.0-339.0","","","null","","","","","","","","",""
"543.2000000029802","","image-keyboard-response","340","154301","0.0-340.0","","img/set1/S4.jpg","74","4","random","74","random,structured_incentive,structured_load,structured_normal","2,3,3,4,2,1","true","","",""
"null","","html-keyboard-response","341","154656","0.0-341.0","","<img src=""img/set1/S4.jpg"" width=""540"" height = ""360"" style=""border:16px solid orange"">","null","","","","","","","","",""
"null","","html-keyboard-response","342","154862","0.0-342.0","","","null","","","","","","","","",""
"607.7999999970198","","image-keyboard-response","343","155471","0.0-343.0","","img/set1/S2.jpg","68","2","random","68","random,structured_incentive,structured_load,structured_normal","2,3,3,4,2,1","true","","",""
"null","","html-keyboard-response","344","155822","0.0-344.0","","<img src=""img/set1/S2.jpg"" width=""540"" height = ""360"" style=""border:16px solid orange"">","null","","","","","","","","",""
"null","","html-keyboard-response","345","156028","0.0-345.0","","","null","","","","","","","","",""
"522.4000000059605","","image-keyboard-response","346","156551","0.0-346.0","","img/set1/S1.jpg","83","1","random","83","random,structured_incentive,structured_load,structured_normal","2,3,3,4,2,1","true","","",""
"null","","html-keyboard-response","347","156906","0.0-347.0","","<img src=""img/set1/S1.jpg"" width=""540"" height = ""360"" style=""border:16px solid orange"">","null","","","","","","","","",""
"null","","html-keyboard-response","348","157111","0.0-348.0","","","null","","","","","","","","",""
"574.6000000089407","","image-keyboard-response","349","157687","0.0-349.0","","img/set1/S1.jpg","83","1","random","83","random,structured_incentive,structured_load,structured_normal","2,3,3,4,2,1","true","","",""
"null","","html-keyboard-response","350","158040","0.0-350.0","","<img src=""img/set1/S1.jpg"" width=""540"" height = ""360"" style=""border:16px solid orange"">","null","","","","","","","","",""
"null","","html-keyboard-response","351","158244","0.0-351.0","","","null","","","","","","","","",""
"601.4000000059605","","image-keyboard-response","352","158846","0.0-352.0","","img/set1/S4.jpg","74","4","random","74","random,structured_incentive,structured_load,structured_normal","2,3,3,4,2,1","true","","",""
"null","","html-keyboard-response","353","159202","0.0-353.0","","<img src=""img/set1/S4.jpg"" width=""540"" height = ""360"" style=""border:16px solid orange"">","null","","","","","","","","",""
"null","","html-keyboard-response","354","159406","0.0-354.0","","","null","","","","","","","","",""
"519.2999999970198","","image-keyboard-response","355","159925","0.0-355.0","","img/set1/S4.jpg","74","4","random","74","random,structured_incentive,structured_load,structured_normal","2,3,3,4,2,1","true","","",""
"null","","html-keyboard-response","356","160282","0.0-356.0","","<img src=""img/set1/S4.jpg"" width=""540"" height = ""360"" style=""border:16px solid orange"">","null","","","","","","","","",""
"null","","html-keyboard-response","357","160484","0.0-357.0","","","null","","","","","","","","",""
"588.1000000089407","","image-keyboard-response","358","161073","0.0-358.0","","img/set1/S1.jpg","83","1","random","83","random,structured_incentive,structured_load,structured_normal","2,3,3,4,2,1","true","","",""
"null","","html-keyboard-response","359","161428","0.0-359.0","","<img src=""img/set1/S1.jpg"" width=""540"" height = ""360"" style=""border:16px solid orange"">","null","","","","","","","","",""
"null","","html-keyboard-response","360","161633","0.0-360.0","","","null","","","","","","","","",""
"451.40000000596046","","image-keyboard-response","361","162085","0.0-361.0","","img/set1/S1.jpg","83","1","random","83","random,structured_incentive,structured_load,structured_normal","2,3,3,4,2,1","true","","",""
"null","","html-keyboard-response","362","162441","0.0-362.0","","<img src=""img/set1/S1.jpg"" width=""540"" height = ""360"" style=""border:16px solid orange"">","null","","","","","","","","",""
"null","","html-keyboard-response","363","162643","0.0-363.0","","","null","","","","","","","","",""
"1860.800000011921","","html-keyboard-response","364","164504","0.0-364.0","","<p class=""center-content"">You have completed a block! </p><p class=""center-content"">Press any key on the keyboard to continue, </p><p class=""center-content"">or wait for the automatic progression to the next block after one minute.</p>","32","","","","","","","","",""
"12511.90000000596","","instructions","365","177016","0.0-365.0","[{""page_index"":0,""viewing_time"":12511.70000000298}]","","","","","","","","","","",""
"7266.79999999702","","instructions","366","184283","0.0-366.0","[{""page_index"":0,""viewing_time"":5725.5},{""page_index"":1,""viewing_time"":1541}]","","","","","","","","","","",""
"1279.4000000059605","","image-keyboard-response","367","185563","0.0-367.0","","img/set2/S4.jpg","74","4","structured_incentive","74","random,structured_incentive,structured_load,structured_normal","2,3,3,4,2,1","true","","",""
"null","","html-keyboard-response","368","185919","0.0-368.0","","<img src=""img/set2/S4.jpg"" width=""540"" height = ""360"" style=""border:16px solid orange"">","null","","","","","","","","",""
"null","","html-keyboard-response","369","186125","0.0-369.0","","","null","","","","","","","","",""
"911.2000000029802","","image-keyboard-response","370","187037","0.0-370.0","","img/set2/S1.jpg","83","1","structured_incentive","83","random,structured_incentive,structured_load,structured_normal","2,3,3,4,2,1","true","","",""
"null","","html-keyboard-response","371","187392","0.0-371.0","","<img src=""img/set2/S1.jpg"" width=""540"" height = ""360"" style=""border:16px solid orange"">","null","","","","","","","","",""
"null","","html-keyboard-response","372","187598","0.0-372.0","","","null","","","","","","","","",""
"495.09999999403954","","image-keyboard-response","373","188094","0.0-373.0","","img/set2/S4.jpg","74","4","structured_incentive","74","random,structured_incentive,structured_load,structured_normal","2,3,3,4,2,1","true","","",""
"null","","html-keyboard-response","374","188447","0.0-374.0","","<img src=""img/set2/S4.jpg"" width=""540"" height = ""360"" style=""border:16px solid orange"">","null","","","","","","","","",""
"null","","html-keyboard-response","375","188652","0.0-375.0","","","null","","","","","","","","",""
"487","","image-keyboard-response","376","189140","0.0-376.0","","img/set2/S2.jpg","83","2","structured_incentive","68","random,structured_incentive,structured_load,structured_normal","2,3,3,4,2,1","false","","",""
"null","","html-keyboard-response","377","189494","0.0-377.0","","<img src=""img/set2/S2.jpg"" width=""540"" height = ""360"">","null","","","","","","","","",""
"null","","html-keyboard-response","378","189698","0.0-378.0","","","null","","","","","","","","",""
"1106.199999988079","","image-keyboard-response","379","190805","0.0-379.0","","img/set2/S3.jpg","72","3","structured_incentive","72","random,structured_incentive,structured_load,structured_normal","2,3,3,4,2,1","true","","",""
"null","","html-keyboard-response","380","191161","0.0-380.0","","<img src=""img/set2/S3.jpg"" width=""540"" height = ""360"" style=""border:16px solid Violet"">","null","","","","","","","","",""
"null","","html-keyboard-response","381","191362","0.0-381.0","","","null","","","","","","","","",""
"747.2999999970198","","image-keyboard-response","382","192110","0.0-382.0","","img/set2/S1.jpg","83","1","structured_incentive","83","random,structured_incentive,structured_load,structured_normal","2,3,3,4,2,1","true","","",""
"null","","html-keyboard-response","383","192465","0.0-383.0","","<img src=""img/set2/S1.jpg"" width=""540"" height = ""360"" style=""border:16px solid orange"">","null","","","","","","","","",""
"null","","html-keyboard-response","384","192671","0.0-384.0","","","null","","","","","","","","",""
"619.9000000059605","","image-keyboard-response","385","193292","0.0-385.0","","img/set2/S4.jpg","72","4","structured_incentive","74","random,structured_incentive,structured_load,structured_normal","2,3,3,4,2,1","false","","",""
"null","","html-keyboard-response","386","193644","0.0-386.0","","<img src=""img/set2/S4.jpg"" width=""540"" height = ""360"">","null","","","","","","","","",""
"null","","html-keyboard-response","387","193847","0.0-387.0","","","null","","","","","","","","",""
"793.2999999970198","","image-keyboard-response","388","194641","0.0-388.0","","img/set2/S2.jpg","68","2","structured_incentive","68","random,structured_incentive,structured_load,structured_normal","2,3,3,4,2,1","true","","",""
"null","","html-keyboard-response","389","194997","0.0-389.0","","<img src=""img/set2/S2.jpg"" width=""540"" height = ""360"" style=""border:16px solid orange"">","null","","","","","","","","",""
"null","","html-keyboard-response","390","195203","0.0-390.0","","","null","","","","","","","","",""
"1079.2000000029802","","image-keyboard-response","391","196283","0.0-391.0","","img/set2/S3.jpg","72","3","structured_incentive","72","random,structured_incentive,structured_load,structured_normal","2,3,3,4,2,1","true","","",""
"null","","html-keyboard-response","392","196640","0.0-392.0","","<img src=""img/set2/S3.jpg"" width=""540"" height = ""360"" style=""border:16px solid Violet"">","null","","","","","","","","",""
"null","","html-keyboard-response","393","196845","0.0-393.0","","","null","","","","","","","","",""
"810.6999999880791","","image-keyboard-response","394","197656","0.0-394.0","","img/set2/S1.jpg","83","1","structured_incentive","83","random,structured_incentive,structured_load,structured_normal","2,3,3,4,2,1","true","","",""
"null","","html-keyboard-response","395","198007","0.0-395.0","","<img src=""img/set2/S1.jpg"" width=""540"" height = ""360"" style=""border:16px solid orange"">","null","","","","","","","","",""
"null","","html-keyboard-response","396","198213","0.0-396.0","","","null","","","","","","","","",""
"657.2999999970198","","image-keyboard-response","397","198871","0.0-397.0","","img/set2/S4.jpg","72","4","structured_incentive","74","random,structured_incentive,structured_load,structured_normal","2,3,3,4,2,1","false","","",""
"null","","html-keyboard-response","398","199227","0.0-398.0","","<img src=""img/set2/S4.jpg"" width=""540"" height = ""360"">","null","","","","","","","","",""
"null","","html-keyboard-response","399","199432","0.0-399.0","","","null","","","","","","","","",""
"923.4000000059605","","image-keyboard-response","400","200356","0.0-400.0","","img/set2/S1.jpg","83","1","structured_incentive","83","random,structured_incentive,structured_load,structured_normal","2,3,3,4,2,1","true","","",""
"null","","html-keyboard-response","401","200709","0.0-401.0","","<img src=""img/set2/S1.jpg"" width=""540"" height = ""360"" style=""border:16px solid orange"">","null","","","","","","","","",""
"null","","html-keyboard-response","402","200911","0.0-402.0","","","null","","","","","","","","",""
"884.5","","image-keyboard-response","403","201796","0.0-403.0","","img/set2/S2.jpg","68","2","structured_incentive","68","random,structured_incentive,structured_load,structured_normal","2,3,3,4,2,1","true","","",""
"null","","html-keyboard-response","404","202149","0.0-404.0","","<img src=""img/set2/S2.jpg"" width=""540"" height = ""360"" style=""border:16px solid orange"">","null","","","","","","","","",""
"null","","html-keyboard-response","405","202355","0.0-405.0","","","null","","","","","","","","",""
"722.8000000119209","","image-keyboard-response","406","203078","0.0-406.0","","img/set2/S3.jpg","74","3","structured_incentive","72","random,structured_incentive,structured_load,structured_normal","2,3,3,4,2,1","false","","",""
"null","","html-keyboard-response","407","203432","0.0-407.0","","<img src=""img/set2/S3.jpg"" width=""540"" height = ""360"">","null","","","","","","","","",""
"null","","html-keyboard-response","408","203636","0.0-408.0","","","null","","","","","","","","",""
"993.7000000029802","","image-keyboard-response","409","204631","0.0-409.0","","img/set2/S2.jpg","68","2","structured_incentive","68","random,structured_incentive,structured_load,structured_normal","2,3,3,4,2,1","true","","",""
"null","","html-keyboard-response","410","204982","0.0-410.0","","<img src=""img/set2/S2.jpg"" width=""540"" height = ""360"" style=""border:16px solid orange"">","null","","","","","","","","",""
"null","","html-keyboard-response","411","205187","0.0-411.0","","","null","","","","","","","","",""
"837.5","","image-keyboard-response","412","206026","0.0-412.0","","img/set2/S3.jpg","72","3","structured_incentive","72","random,structured_incentive,structured_load,structured_normal","2,3,3,4,2,1","true","","",""
"null","","html-keyboard-response","413","206378","0.0-413.0","","<img src=""img/set2/S3.jpg"" width=""540"" height = ""360"" style=""border:16px solid Violet"">","null","","","","","","","","",""
"null","","html-keyboard-response","414","206584","0.0-414.0","","","null","","","","","","","","",""
"993.4000000059605","","image-keyboard-response","415","207578","0.0-415.0","","img/set2/S2.jpg","68","2","structured_incentive","68","random,structured_incentive,structured_load,structured_normal","2,3,3,4,2,1","true","","",""
"null","","html-keyboard-response","416","207931","0.0-416.0","","<img src=""img/set2/S2.jpg"" width=""540"" height = ""360"" style=""border:16px solid orange"">","null","","","","","","","","",""
"null","","html-keyboard-response","417","208131","0.0-417.0","","","null","","","","","","","","",""
"818.5","","image-keyboard-response","418","208951","0.0-418.0","","img/set2/S3.jpg","72","3","structured_incentive","72","random,structured_incentive,structured_load,structured_normal","2,3,3,4,2,1","true","","",""
"null","","html-keyboard-response","419","209307","0.0-419.0","","<img src=""img/set2/S3.jpg"" width=""540"" height = ""360"" style=""border:16px solid Violet"">","null","","","","","","","","",""
"null","","html-keyboard-response","420","209513","0.0-420.0","","","null","","","","","","","","",""
"775.9000000059605","","image-keyboard-response","421","210289","0.0-421.0","","img/set2/S1.jpg","83","1","structured_incentive","83","random,structured_incentive,structured_load,structured_normal","2,3,3,4,2,1","true","","",""
"null","","html-keyboard-response","422","210641","0.0-422.0","","<img src=""img/set2/S1.jpg"" width=""540"" height = ""360"" style=""border:16px solid orange"">","null","","","","","","","","",""
"null","","html-keyboard-response","423","210847","0.0-423.0","","","null","","","","","","","","",""
"656.6000000089407","","image-keyboard-response","424","211504","0.0-424.0","","img/set2/S1.jpg","83","1","structured_incentive","83","random,structured_incentive,structured_load,structured_normal","2,3,3,4,2,1","true","","",""
"null","","html-keyboard-response","425","211856","0.0-425.0","","<img src=""img/set2/S1.jpg"" width=""540"" height = ""360"" style=""border:16px solid orange"">","null","","","","","","","","",""
"null","","html-keyboard-response","426","212059","0.0-426.0","","","null","","","","","","","","",""
"862","","image-keyboard-response","427","212921","0.0-427.0","","img/set2/S1.jpg","83","1","structured_incentive","83","random,structured_incentive,structured_load,structured_normal","2,3,3,4,2,1","true","","",""
"null","","html-keyboard-response","428","213277","0.0-428.0","","<img src=""img/set2/S1.jpg"" width=""540"" height = ""360"" style=""border:16px solid orange"">","null","","","","","","","","",""
"null","","html-keyboard-response","429","213483","0.0-429.0","","","null","","","","","","","","",""
"630.0999999940395","","image-keyboard-response","430","214114","0.0-430.0","","img/set2/S1.jpg","83","1","structured_incentive","83","random,structured_incentive,structured_load,structured_normal","2,3,3,4,2,1","true","","",""
"null","","html-keyboard-response","431","214467","0.0-431.0","","<img src=""img/set2/S1.jpg"" width=""540"" height = ""360"" style=""border:16px solid orange"">","null","","","","","","","","",""
"null","","html-keyboard-response","432","214672","0.0-432.0","","","null","","","","","","","","",""
"813.4000000059605","","image-keyboard-response","433","215487","0.0-433.0","","img/set2/S2.jpg","68","2","structured_incentive","68","random,structured_incentive,structured_load,structured_normal","2,3,3,4,2,1","true","","",""
"null","","html-keyboard-response","434","215843","0.0-434.0","","<img src=""img/set2/S2.jpg"" width=""540"" height = ""360"" style=""border:16px solid orange"">","null","","","","","","","","",""
"null","","html-keyboard-response","435","216045","0.0-435.0","","","null","","","","","","","","",""
"768.5","","image-keyboard-response","436","216814","0.0-436.0","","img/set2/S3.jpg","72","3","structured_incentive","72","random,structured_incentive,structured_load,structured_normal","2,3,3,4,2,1","true","","",""
"null","","html-keyboard-response","437","217170","0.0-437.0","","<img src=""img/set2/S3.jpg"" width=""540"" height = ""360"" style=""border:16px solid Violet"">","null","","","","","","","","",""
"null","","html-keyboard-response","438","217376","0.0-438.0","","","null","","","","","","","","",""
"1012.5","","image-keyboard-response","439","218389","0.0-439.0","","img/set2/S2.jpg","68","2","structured_incentive","68","random,structured_incentive,structured_load,structured_normal","2,3,3,4,2,1","true","","",""
"null","","html-keyboard-response","440","218745","0.0-440.0","","<img src=""img/set2/S2.jpg"" width=""540"" height = ""360"" style=""border:16px solid orange"">","null","","","","","","","","",""
"null","","html-keyboard-response","441","218951","0.0-441.0","","","null","","","","","","","","",""
"765.0999999940395","","image-keyboard-response","442","219716","0.0-442.0","","img/set2/S3.jpg","72","3","structured_incentive","72","random,structured_incentive,structured_load,structured_normal","2,3,3,4,2,1","true","","",""
"null","","html-keyboard-response","443","220072","0.0-443.0","","<img src=""img/set2/S3.jpg"" width=""540"" height = ""360"" style=""border:16px solid Violet"">","null","","","","","","","","",""
"null","","html-keyboard-response","444","220278","0.0-444.0","","","null","","","","","","","","",""
"742.5","","image-keyboard-response","445","221021","0.0-445.0","","img/set2/S1.jpg","83","1","structured_incentive","83","random,structured_incentive,structured_load,structured_normal","2,3,3,4,2,1","true","","",""
"null","","html-keyboard-response","446","221377","0.0-446.0","","<img src=""img/set2/S1.jpg"" width=""540"" height = ""360"" style=""border:16px solid orange"">","null","","","","","","","","",""
"null","","html-keyboard-response","447","221581","0.0-447.0","","","null","","","","","","","","",""
"834.4000000059605","","image-keyboard-response","448","222416","0.0-448.0","","img/set2/S4.jpg","72","4","structured_incentive","74","random,structured_incentive,structured_load,structured_normal","2,3,3,4,2,1","false","","",""
"null","","html-keyboard-response","449","222772","0.0-449.0","","<img src=""img/set2/S4.jpg"" width=""540"" height = ""360"">","null","","","","","","","","",""
"null","","html-keyboard-response","450","222978","0.0-450.0","","","null","","","","","","","","",""
"607.4000000059605","","image-keyboard-response","451","223586","0.0-451.0","","img/set2/S4.jpg","74","4","structured_incentive","74","random,structured_incentive,structured_load,structured_normal","2,3,3,4,2,1","true","","",""
"null","","html-keyboard-response","452","223942","0.0-452.0","","<img src=""img/set2/S4.jpg"" width=""540"" height = ""360"" style=""border:16px solid orange"">","null","","","","","","","","",""
"null","","html-keyboard-response","453","224148","0.0-453.0","","","null","","","","","","","","",""
"607.4000000059605","","image-keyboard-response","454","224756","0.0-454.0","","img/set2/S4.jpg","74","4","structured_incentive","74","random,structured_incentive,structured_load,structured_normal","2,3,3,4,2,1","true","","",""
"null","","html-keyboard-response","455","225107","0.0-455.0","","<img src=""img/set2/S4.jpg"" width=""540"" height = ""360"" style=""border:16px solid orange"">","null","","","","","","","","",""
"null","","html-keyboard-response","456","225313","0.0-456.0","","","null","","","","","","","","",""
"724.7999999970198","","image-keyboard-response","457","226038","0.0-457.0","","img/set2/S1.jpg","83","1","structured_incentive","83","random,structured_incentive,structured_load,structured_normal","2,3,3,4,2,1","true","","",""
"null","","html-keyboard-response","458","226394","0.0-458.0","","<img src=""img/set2/S1.jpg"" width=""540"" height = ""360"" style=""border:16px solid orange"">","null","","","","","","","","",""
"null","","html-keyboard-response","459","226598","0.0-459.0","","","null","","","","","","","","",""
"699.2000000029802","","image-keyboard-response","460","227298","0.0-460.0","","img/set2/S2.jpg","68","2","structured_incentive","68","random,structured_incentive,structured_load,structured_normal","2,3,3,4,2,1","true","","",""
"null","","html-keyboard-response","461","227652","0.0-461.0","","<img src=""img/set2/S2.jpg"" width=""540"" height = ""360"" style=""border:16px solid orange"">","null","","","","","","","","",""
"null","","html-keyboard-response","462","227856","0.0-462.0","","","null","","","","","","","","",""
"599.7999999970198","","image-keyboard-response","463","228457","0.0-463.0","","img/set2/S3.jpg","72","3","structured_incentive","72","random,structured_incentive,structured_load,structured_normal","2,3,3,4,2,1","true","","",""
"null","","html-keyboard-response","464","228813","0.0-464.0","","<img src=""img/set2/S3.jpg"" width=""540"" height = ""360"" style=""border:16px solid Violet"">","null","","","","","","","","",""
"null","","html-keyboard-response","465","229019","0.0-465.0","","","null","","","","","","","","",""
"697.7000000029802","","image-keyboard-response","466","229717","0.0-466.0","","img/set2/S1.jpg","83","1","structured_incentive","83","random,structured_incentive,structured_load,structured_normal","2,3,3,4,2,1","true","","",""
"null","","html-keyboard-response","467","230071","0.0-467.0","","<img src=""img/set2/S1.jpg"" width=""540"" height = ""360"" style=""border:16px solid orange"">","null","","","","","","","","",""
"null","","html-keyboard-response","468","230276","0.0-468.0","","","null","","","","","","","","",""
"610","","image-keyboard-response","469","230887","0.0-469.0","","img/set2/S4.jpg","72","4","structured_incentive","74","random,structured_incentive,structured_load,structured_normal","2,3,3,4,2,1","false","","",""
"null","","html-keyboard-response","470","231238","0.0-470.0","","<img src=""img/set2/S4.jpg"" width=""540"" height = ""360"">","null","","","","","","","","",""
"null","","html-keyboard-response","471","231442","0.0-471.0","","","null","","","","","","","","",""
"794.7999999970198","","image-keyboard-response","472","232237","0.0-472.0","","img/set2/S2.jpg","68","2","structured_incentive","68","random,structured_incentive,structured_load,structured_normal","2,3,3,4,2,1","true","","",""
"null","","html-keyboard-response","473","232589","0.0-473.0","","<img src=""img/set2/S2.jpg"" width=""540"" height = ""360"" style=""border:16px solid orange"">","null","","","","","","","","",""
"null","","html-keyboard-response","474","232795","0.0-474.0","","","null","","","","","","","","",""
"847.7000000029802","","image-keyboard-response","475","233643","0.0-475.0","","img/set2/S3.jpg","72","3","structured_incentive","72","random,structured_incentive,structured_load,structured_normal","2,3,3,4,2,1","true","","",""
"null","","html-keyboard-response","476","233999","0.0-476.0","","<img src=""img/set2/S3.jpg"" width=""540"" height = ""360"" style=""border:16px solid Violet"">","null","","","","","","","","",""
"null","","html-keyboard-response","477","234202","0.0-477.0","","","null","","","","","","","","",""
"835.2000000029802","","image-keyboard-response","478","235038","0.0-478.0","","img/set2/S2.jpg","68","2","structured_incentive","68","random,structured_incentive,structured_load,structured_normal","2,3,3,4,2,1","true","","",""
"null","","html-keyboard-response","479","235391","0.0-479.0","","<img src=""img/set2/S2.jpg"" width=""540"" height = ""360"" style=""border:16px solid orange"">","null","","","","","","","","",""
"null","","html-keyboard-response","480","235596","0.0-480.0","","","null","","","","","","","","",""
"813.2999999970198","","image-keyboard-response","481","236410","0.0-481.0","","img/set2/S3.jpg","72","3","structured_incentive","72","random,structured_incentive,structured_load,structured_normal","2,3,3,4,2,1","true","","",""
"null","","html-keyboard-response","482","236766","0.0-482.0","","<img src=""img/set2/S3.jpg"" width=""540"" height = ""360"" style=""border:16px solid Violet"">","null","","","","","","","","",""
"null","","html-keyboard-response","483","236972","0.0-483.0","","","null","","","","","","","","",""
"787.6000000089407","","image-keyboard-response","484","237760","0.0-484.0","","img/set2/S1.jpg","83","1","structured_incentive","83","random,structured_incentive,structured_load,structured_normal","2,3,3,4,2,1","true","","",""
"null","","html-keyboard-response","485","238117","0.0-485.0","","<img src=""img/set2/S1.jpg"" width=""540"" height = ""360"" style=""border:16px solid orange"">","null","","","","","","","","",""
"null","","html-keyboard-response","486","238319","0.0-486.0","","","null","","","","","","","","",""
"722.8000000119209","","image-keyboard-response","487","239043","0.0-487.0","","img/set2/S4.jpg","72","4","structured_incentive","74","random,structured_incentive,structured_load,structured_normal","2,3,3,4,2,1","false","","",""
"null","","html-keyboard-response","488","239399","0.0-488.0","","<img src=""img/set2/S4.jpg"" width=""540"" height = ""360"">","null","","","","","","","","",""
"null","","html-keyboard-response","489","239605","0.0-489.0","","","null","","","","","","","","",""
"720.0999999940395","","image-keyboard-response","490","240326","0.0-490.0","","img/set2/S4.jpg","74","4","structured_incentive","74","random,structured_incentive,structured_load,structured_normal","2,3,3,4,2,1","true","","",""
"null","","html-keyboard-response","491","240678","0.0-491.0","","<img src=""img/set2/S4.jpg"" width=""540"" height = ""360"" style=""border:16px solid orange"">","null","","","","","","","","",""
"null","","html-keyboard-response","492","240883","0.0-492.0","","","null","","","","","","","","",""
"746.2000000029802","","image-keyboard-response","493","241630","0.0-493.0","","img/set2/S4.jpg","74","4","structured_incentive","74","random,structured_incentive,structured_load,structured_normal","2,3,3,4,2,1","true","","",""
"null","","html-keyboard-response","494","241986","0.0-494.0","","<img src=""img/set2/S4.jpg"" width=""540"" height = ""360"" style=""border:16px solid orange"">","null","","","","","","","","",""
"null","","html-keyboard-response","495","242192","0.0-495.0","","","null","","","","","","","","",""
"720.2000000029802","","image-keyboard-response","496","242913","0.0-496.0","","img/set2/S2.jpg","68","2","structured_incentive","68","random,structured_incentive,structured_load,structured_normal","2,3,3,4,2,1","true","","",""
"null","","html-keyboard-response","497","243269","0.0-497.0","","<img src=""img/set2/S2.jpg"" width=""540"" height = ""360"" style=""border:16px solid orange"">","null","","","","","","","","",""
"null","","html-keyboard-response","498","243472","0.0-498.0","","","null","","","","","","","","",""
"699.6000000089407","","image-keyboard-response","499","244173","0.0-499.0","","img/set2/S3.jpg","72","3","structured_incentive","72","random,structured_incentive,structured_load,structured_normal","2,3,3,4,2,1","true","","",""
"null","","html-keyboard-response","500","244528","0.0-500.0","","<img src=""img/set2/S3.jpg"" width=""540"" height = ""360"" style=""border:16px solid Violet"">","null","","","","","","","","",""
"null","","html-keyboard-response","501","244729","0.0-501.0","","","null","","","","","","","","",""
"702.2999999970198","","image-keyboard-response","502","245433","0.0-502.0","","img/set2/S1.jpg","83","1","structured_incentive","83","random,structured_incentive,structured_load,structured_normal","2,3,3,4,2,1","true","","",""
"null","","html-keyboard-response","503","245789","0.0-503.0","","<img src=""img/set2/S1.jpg"" width=""540"" height = ""360"" style=""border:16px solid orange"">","null","","","","","","","","",""
"null","","html-keyboard-response","504","245993","0.0-504.0","","","null","","","","","","","","",""
"642.2999999970198","","image-keyboard-response","505","246636","0.0-505.0","","img/set2/S1.jpg","83","1","structured_incentive","83","random,structured_incentive,structured_load,structured_normal","2,3,3,4,2,1","true","","",""
"null","","html-keyboard-response","506","246989","0.0-506.0","","<img src=""img/set2/S1.jpg"" width=""540"" height = ""360"" style=""border:16px solid orange"">","null","","","","","","","","",""
"null","","html-keyboard-response","507","247195","0.0-507.0","","","null","","","","","","","","",""
"633","","image-keyboard-response","508","247829","0.0-508.0","","img/set2/S1.jpg","83","1","structured_incentive","83","random,structured_incentive,structured_load,structured_normal","2,3,3,4,2,1","true","","",""
"null","","html-keyboard-response","509","248182","0.0-509.0","","<img src=""img/set2/S1.jpg"" width=""540"" height = ""360"" style=""border:16px solid orange"">","null","","","","","","","","",""
"null","","html-keyboard-response","510","248388","0.0-510.0","","","null","","","","","","","","",""
"666","","image-keyboard-response","511","249055","0.0-511.0","","img/set2/S2.jpg","68","2","structured_incentive","68","random,structured_incentive,structured_load,structured_normal","2,3,3,4,2,1","true","","",""
"null","","html-keyboard-response","512","249407","0.0-512.0","","<img src=""img/set2/S2.jpg"" width=""540"" height = ""360"" style=""border:16px solid orange"">","null","","","","","","","","",""
"null","","html-keyboard-response","513","249609","0.0-513.0","","","null","","","","","","","","",""
"998.2999999970198","","image-keyboard-response","514","250608","0.0-514.0","","img/set2/S3.jpg","72","3","structured_incentive","72","random,structured_incentive,structured_load,structured_normal","2,3,3,4,2,1","true","","",""
"null","","html-keyboard-response","515","250964","0.0-515.0","","<img src=""img/set2/S3.jpg"" width=""540"" height = ""360"" style=""border:16px solid Violet"">","null","","","","","","","","",""
"null","","html-keyboard-response","516","251169","0.0-516.0","","","null","","","","","","","","",""
"674.7000000029802","","image-keyboard-response","517","251845","0.0-517.0","","img/set2/S1.jpg","83","1","structured_incentive","83","random,structured_incentive,structured_load,structured_normal","2,3,3,4,2,1","true","","",""
"null","","html-keyboard-response","518","252201","0.0-518.0","","<img src=""img/set2/S1.jpg"" width=""540"" height = ""360"" style=""border:16px solid orange"">","null","","","","","","","","",""
"null","","html-keyboard-response","519","252402","0.0-519.0","","","null","","","","","","","","",""
"612.2000000029802","","image-keyboard-response","520","253015","0.0-520.0","","img/set2/S1.jpg","83","1","structured_incentive","83","random,structured_incentive,structured_load,structured_normal","2,3,3,4,2,1","true","","",""
"null","","html-keyboard-response","521","253366","0.0-521.0","","<img src=""img/set2/S1.jpg"" width=""540"" height = ""360"" style=""border:16px solid orange"">","null","","","","","","","","",""
"null","","html-keyboard-response","522","253568","0.0-522.0","","","null","","","","","","","","",""
"683.2000000029802","","image-keyboard-response","523","254252","0.0-523.0","","img/set2/S1.jpg","83","1","structured_incentive","83","random,structured_incentive,structured_load,structured_normal","2,3,3,4,2,1","true","","",""
"null","","html-keyboard-response","524","254603","0.0-524.0","","<img src=""img/set2/S1.jpg"" width=""540"" height = ""360"" style=""border:16px solid orange"">","null","","","","","","","","",""
"null","","html-keyboard-response","525","254809","0.0-525.0","","","null","","","","","","","","",""
"702.2999999970198","","image-keyboard-response","526","255512","0.0-526.0","","img/set2/S1.jpg","83","1","structured_incentive","83","random,structured_incentive,structured_load,structured_normal","2,3,3,4,2,1","true","","",""
"null","","html-keyboard-response","527","255863","0.0-527.0","","<img src=""img/set2/S1.jpg"" width=""540"" height = ""360"" style=""border:16px solid orange"">","null","","","","","","","","",""
"null","","html-keyboard-response","528","256065","0.0-528.0","","","null","","","","","","","","",""
"683.5","","image-keyboard-response","529","256750","0.0-529.0","","img/set2/S4.jpg","74","4","structured_incentive","74","random,structured_incentive,structured_load,structured_normal","2,3,3,4,2,1","true","","",""
"null","","html-keyboard-response","530","257106","0.0-530.0","","<img src=""img/set2/S4.jpg"" width=""540"" height = ""360"" style=""border:16px solid orange"">","null","","","","","","","","",""
"null","","html-keyboard-response","531","257311","0.0-531.0","","","null","","","","","","","","",""
"675.2000000029802","","image-keyboard-response","532","257987","0.0-532.0","","img/set2/S4.jpg","74","4","structured_incentive","74","random,structured_incentive,structured_load,structured_normal","2,3,3,4,2,1","true","","",""
"null","","html-keyboard-response","533","258339","0.0-533.0","","<img src=""img/set2/S4.jpg"" width=""540"" height = ""360"" style=""border:16px solid orange"">","null","","","","","","","","",""
"null","","html-keyboard-response","534","258540","0.0-534.0","","","null","","","","","","","","",""
"661.0999999940395","","image-keyboard-response","535","259202","0.0-535.0","","img/set2/S1.jpg","83","1","structured_incentive","83","random,structured_incentive,structured_load,structured_normal","2,3,3,4,2,1","true","","",""
"null","","html-keyboard-response","536","259558","0.0-536.0","","<img src=""img/set2/S1.jpg"" width=""540"" height = ""360"" style=""border:16px solid orange"">","null","","","","","","","","",""
"null","","html-keyboard-response","537","259763","0.0-537.0","","","null","","","","","","","","",""
"742.9000000059605","","image-keyboard-response","538","260507","0.0-538.0","","img/set2/S4.jpg","74","4","structured_incentive","74","random,structured_incentive,structured_load,structured_normal","2,3,3,4,2,1","true","","",""
"null","","html-keyboard-response","539","260863","0.0-539.0","","<img src=""img/set2/S4.jpg"" width=""540"" height = ""360"" style=""border:16px solid orange"">","null","","","","","","","","",""
"null","","html-keyboard-response","540","261068","0.0-540.0","","","null","","","","","","","","",""
"698.4000000059605","","image-keyboard-response","541","261767","0.0-541.0","","img/set2/S4.jpg","74","4","structured_incentive","74","random,structured_incentive,structured_load,structured_normal","2,3,3,4,2,1","true","","",""
"null","","html-keyboard-response","542","262118","0.0-542.0","","<img src=""img/set2/S4.jpg"" width=""540"" height = ""360"" style=""border:16px solid orange"">","null","","","","","","","","",""
"null","","html-keyboard-response","543","262324","0.0-543.0","","","null","","","","","","","","",""
"702.0999999940395","","image-keyboard-response","544","263027","0.0-544.0","","img/set2/S4.jpg","74","4","structured_incentive","74","random,structured_incentive,structured_load,structured_normal","2,3,3,4,2,1","true","","",""
"null","","html-keyboard-response","545","263383","0.0-545.0","","<img src=""img/set2/S4.jpg"" width=""540"" height = ""360"" style=""border:16px solid orange"">","null","","","","","","","","",""
"null","","html-keyboard-response","546","263589","0.0-546.0","","","null","","","","","","","","",""
"697.2999999970198","","image-keyboard-response","547","264287","0.0-547.0","","img/set2/S1.jpg","83","1","structured_incentive","83","random,structured_incentive,structured_load,structured_normal","2,3,3,4,2,1","true","","",""
"null","","html-keyboard-response","548","264640","0.0-548.0","","<img src=""img/set2/S1.jpg"" width=""540"" height = ""360"" style=""border:16px solid orange"">","null","","","","","","","","",""
"null","","html-keyboard-response","549","264843","0.0-549.0","","","null","","","","","","","","",""
"634.7999999970198","","image-keyboard-response","550","265479","0.0-550.0","","img/set2/S4.jpg","74","4","structured_incentive","74","random,structured_incentive,structured_load,structured_normal","2,3,3,4,2,1","true","","",""
"null","","html-keyboard-response","551","265830","0.0-551.0","","<img src=""img/set2/S4.jpg"" width=""540"" height = ""360"" style=""border:16px solid orange"">","null","","","","","","","","",""
"null","","html-keyboard-response","552","266032","0.0-552.0","","","null","","","","","","","","",""
"706.5","","image-keyboard-response","553","266739","0.0-553.0","","img/set2/S2.jpg","68","2","structured_incentive","68","random,structured_incentive,structured_load,structured_normal","2,3,3,4,2,1","true","","",""
"null","","html-keyboard-response","554","267095","0.0-554.0","","<img src=""img/set2/S2.jpg"" width=""540"" height = ""360"" style=""border:16px solid orange"">","null","","","","","","","","",""
"null","","html-keyboard-response","555","267299","0.0-555.0","","","null","","","","","","","","",""
"586.7000000029802","","image-keyboard-response","556","267887","0.0-556.0","","img/set2/S3.jpg","72","3","structured_incentive","72","random,structured_incentive,structured_load,structured_normal","2,3,3,4,2,1","true","","",""
"null","","html-keyboard-response","557","268243","0.0-557.0","","<img src=""img/set2/S3.jpg"" width=""540"" height = ""360"" style=""border:16px solid Violet"">","null","","","","","","","","",""
"null","","html-keyboard-response","558","268446","0.0-558.0","","","null","","","","","","","","",""
"846.1000000089407","","image-keyboard-response","559","269293","0.0-559.0","","img/set2/S2.jpg","68","2","structured_incentive","68","random,structured_incentive,structured_load,structured_normal","2,3,3,4,2,1","true","","",""
"null","","html-keyboard-response","560","269647","0.0-560.0","","<img src=""img/set2/S2.jpg"" width=""540"" height = ""360"" style=""border:16px solid orange"">","null","","","","","","","","",""
"null","","html-keyboard-response","561","269852","0.0-561.0","","","null","","","","","","","","",""
"598.6000000089407","","image-keyboard-response","562","270451","0.0-562.0","","img/set2/S3.jpg","72","3","structured_incentive","72","random,structured_incentive,structured_load,structured_normal","2,3,3,4,2,1","true","","",""
"null","","html-keyboard-response","563","270806","0.0-563.0","","<img src=""img/set2/S3.jpg"" width=""540"" height = ""360"" style=""border:16px solid Violet"">","null","","","","","","","","",""
"null","","html-keyboard-response","564","271009","0.0-564.0","","","null","","","","","","","","",""
"859","","image-keyboard-response","565","271869","0.0-565.0","","img/set2/S4.jpg","74","4","structured_incentive","74","random,structured_incentive,structured_load,structured_normal","2,3,3,4,2,1","true","","",""
"null","","html-keyboard-response","566","272225","0.0-566.0","","<img src=""img/set2/S4.jpg"" width=""540"" height = ""360"" style=""border:16px solid orange"">","null","","","","","","","","",""
"null","","html-keyboard-response","567","272429","0.0-567.0","","","null","","","","","","","","",""
"721.6999999880791","","image-keyboard-response","568","273151","0.0-568.0","","img/set2/S2.jpg","68","2","structured_incentive","68","random,structured_incentive,structured_load,structured_normal","2,3,3,4,2,1","true","","",""
"null","","html-keyboard-response","569","273507","0.0-569.0","","<img src=""img/set2/S2.jpg"" width=""540"" height = ""360"" style=""border:16px solid orange"">","null","","","","","","","","",""
"null","","html-keyboard-response","570","273713","0.0-570.0","","","null","","","","","","","","",""
"731.2000000029802","","image-keyboard-response","571","274445","0.0-571.0","","img/set2/S3.jpg","72","3","structured_incentive","72","random,structured_incentive,structured_load,structured_normal","2,3,3,4,2,1","true","","",""
"null","","html-keyboard-response","572","274800","0.0-572.0","","<img src=""img/set2/S3.jpg"" width=""540"" height = ""360"" style=""border:16px solid Violet"">","null","","","","","","","","",""
"null","","html-keyboard-response","573","275002","0.0-573.0","","","null","","","","","","","","",""
"679.3000000119209","","image-keyboard-response","574","275682","0.0-574.0","","img/set2/S4.jpg","74","4","structured_incentive","74","random,structured_incentive,structured_load,structured_normal","2,3,3,4,2,1","true","","",""
"null","","html-keyboard-response","575","276034","0.0-575.0","","<img src=""img/set2/S4.jpg"" width=""540"" height = ""360"" style=""border:16px solid orange"">","null","","","","","","","","",""
"null","","html-keyboard-response","576","276240","0.0-576.0","","","null","","","","","","","","",""
"724.2000000029802","","image-keyboard-response","577","276965","0.0-577.0","","img/set2/S1.jpg","83","1","structured_incentive","83","random,structured_incentive,structured_load,structured_normal","2,3,3,4,2,1","true","","",""
"null","","html-keyboard-response","578","277318","0.0-578.0","","<img src=""img/set2/S1.jpg"" width=""540"" height = ""360"" style=""border:16px solid orange"">","null","","","","","","","","",""
