"rt","url","trial_type","trial_index","time_elapsed","internal_node_id","view_history","stimulus","key_press","state","test_part","correct_response","order_block","order_chunk","correct","responses","bonus"
"723516.9000000358","consent.html","external-html","0","723629","0.0-0.0","","","","","","","","","","",""
"88269.29999995232","","instructions","1","811900","0.0-1.0","[{""page_index"":0,""viewing_time"":5069},{""page_index"":1,""viewing_time"":7599.899999976158},{""page_index"":2,""viewing_time"":12104.100000023842},{""page_index"":3,""viewing_time"":16407.899999976158},{""page_index"":4,""viewing_time"":8488},{""page_index"":5,""viewing_time"":28767.899999976158},{""page_index"":6,""viewing_time"":9832}]","","","","","","","","","",""
"21647","","instructions","2","833548","0.0-2.0","[{""page_index"":0,""viewing_time"":21646.69999998808}]","","","","","","","","","",""
"8430.800000011921","","instructions","3","841979","0.0-3.0","[{""page_index"":0,""viewing_time"":8430.600000023842}]","","","","","","","","","",""
"527.5","","image-keyboard-response","4","842509","0.0-4.0","","img/set1/S4.jpg","83","4","random","74","random,structured_load,structured_normal,structured_incentive","2,1,3,4,2,3","false","",""
"null","","html-keyboard-response","5","842863","0.0-5.0","","<img src=""img/set1/S4.jpg"" width=""540"" height = ""360"">","null","","","","","","","",""
"null","","html-keyboard-response","6","843065","0.0-6.0","","","null","","","","","","","",""
"1184.300000011921","","image-keyboard-response","7","844251","0.0-7.0","","img/set1/S1.jpg","68","1","random","83","random,structured_load,structured_normal,structured_incentive","2,1,3,4,2,3","false","",""
"null","","html-keyboard-response","8","844604","0.0-8.0","","<img src=""img/set1/S1.jpg"" width=""540"" height = ""360"">","null","","","","","","","",""
"null","","html-keyboard-response","9","844807","0.0-9.0","","","null","","","","","","","",""
"723.5999999642372","","image-keyboard-response","10","845532","0.0-10.0","","img/set1/S3.jpg","68","3","random","72","random,structured_load,structured_normal,structured_incentive","2,1,3,4,2,3","false","",""
"null","","html-keyboard-response","11","845885","0.0-11.0","","<img src=""img/set1/S3.jpg"" width=""540"" height = ""360"">","null","","","","","","","",""
"null","","html-keyboard-response","12","846087","0.0-12.0","","","null","","","","","","","",""
"603.7000000476837","","image-keyboard-response","13","846691","0.0-13.0","","img/set1/S2.jpg","68","2","random","68","random,structured_load,structured_normal,structured_incentive","2,1,3,4,2,3","true","",""
"null","","html-keyboard-response","14","847044","0.0-14.0","","<img src=""img/set1/S2.jpg"" width=""540"" height = ""360"" style=""border:16px solid orange"">","null","","","","","","","",""
"null","","html-keyboard-response","15","847246","0.0-15.0","","","null","","","","","","","",""
"741.1999999880791","","image-keyboard-response","16","847988","0.0-16.0","","img/set1/S3.jpg","83","3","random","72","random,structured_load,structured_normal,structured_incentive","2,1,3,4,2,3","false","",""
"null","","html-keyboard-response","17","848340","0.0-17.0","","<img src=""img/set1/S3.jpg"" width=""540"" height = ""360"">","null","","","","","","","",""
"null","","html-keyboard-response","18","848541","0.0-18.0","","","null","","","","","","","",""
"749.5","","image-keyboard-response","19","849292","0.0-19.0","","img/set1/S3.jpg","74","3","random","72","random,structured_load,structured_normal,structured_incentive","2,1,3,4,2,3","false","",""
"null","","html-keyboard-response","20","849644","0.0-20.0","","<img src=""img/set1/S3.jpg"" width=""540"" height = ""360"">","null","","","","","","","",""
"null","","html-keyboard-response","21","849845","0.0-21.0","","","null","","","","","","","",""
"853.5","","image-keyboard-response","22","850700","0.0-22.0","","img/set1/S2.jpg","68","2","random","68","random,structured_load,structured_normal,structured_incentive","2,1,3,4,2,3","true","",""
"null","","html-keyboard-response","23","851051","0.0-23.0","","<img src=""img/set1/S2.jpg"" width=""540"" height = ""360"" style=""border:16px solid orange"">","null","","","","","","","",""
"null","","html-keyboard-response","24","851253","0.0-24.0","","","null","","","","","","","",""
"853.6999999880791","","image-keyboard-response","25","852108","0.0-25.0","","img/set1/S1.jpg","72","1","random","83","random,structured_load,structured_normal,structured_incentive","2,1,3,4,2,3","false","",""
"null","","html-keyboard-response","26","852460","0.0-26.0","","<img src=""img/set1/S1.jpg"" width=""540"" height = ""360"">","null","","","","","","","",""
"null","","html-keyboard-response","27","852662","0.0-27.0","","","null","","","","","","","",""
"452.89999997615814","","image-keyboard-response","28","853115","0.0-28.0","","img/set1/S2.jpg","68","2","random","68","random,structured_load,structured_normal,structured_incentive","2,1,3,4,2,3","true","",""
"null","","html-keyboard-response","29","853467","0.0-29.0","","<img src=""img/set1/S2.jpg"" width=""540"" height = ""360"" style=""border:16px solid orange"">","null","","","","","","","",""
"null","","html-keyboard-response","30","853669","0.0-30.0","","","null","","","","","","","",""
"605.5","","image-keyboard-response","31","854276","0.0-31.0","","img/set1/S1.jpg","83","1","random","83","random,structured_load,structured_normal,structured_incentive","2,1,3,4,2,3","true","",""
"null","","html-keyboard-response","32","854629","0.0-32.0","","<img src=""img/set1/S1.jpg"" width=""540"" height = ""360"" style=""border:16px solid orange"">","null","","","","","","","",""
"null","","html-keyboard-response","33","854831","0.0-33.0","","","null","","","","","","","",""
"708.1999999880791","","image-keyboard-response","34","855540","0.0-34.0","","img/set1/S2.jpg","68","2","random","68","random,structured_load,structured_normal,structured_incentive","2,1,3,4,2,3","true","",""
"null","","html-keyboard-response","35","855892","0.0-35.0","","<img src=""img/set1/S2.jpg"" width=""540"" height = ""360"" style=""border:16px solid orange"">","null","","","","","","","",""
"null","","html-keyboard-response","36","856094","0.0-36.0","","","null","","","","","","","",""
"525.1000000238419","","image-keyboard-response","37","856620","0.0-37.0","","img/set1/S1.jpg","83","1","random","83","random,structured_load,structured_normal,structured_incentive","2,1,3,4,2,3","true","",""
"null","","html-keyboard-response","38","856972","0.0-38.0","","<img src=""img/set1/S1.jpg"" width=""540"" height = ""360"" style=""border:16px solid orange"">","null","","","","","","","",""
"null","","html-keyboard-response","39","857173","0.0-39.0","","","null","","","","","","","",""
"517.9000000357628","","image-keyboard-response","40","857692","0.0-40.0","","img/set1/S3.jpg","72","3","random","72","random,structured_load,structured_normal,structured_incentive","2,1,3,4,2,3","true","",""
"null","","html-keyboard-response","41","858044","0.0-41.0","","<img src=""img/set1/S3.jpg"" width=""540"" height = ""360"" style=""border:16px solid orange"">","null","","","","","","","",""
"null","","html-keyboard-response","42","858245","0.0-42.0","","","null","","","","","","","",""
"821.7000000476837","","image-keyboard-response","43","859068","0.0-43.0","","img/set1/S1.jpg","83","1","random","83","random,structured_load,structured_normal,structured_incentive","2,1,3,4,2,3","true","",""
"null","","html-keyboard-response","44","859420","0.0-44.0","","<img src=""img/set1/S1.jpg"" width=""540"" height = ""360"" style=""border:16px solid orange"">","null","","","","","","","",""
"null","","html-keyboard-response","45","859622","0.0-45.0","","","null","","","","","","","",""
"742","","image-keyboard-response","46","860365","0.0-46.0","","img/set1/S2.jpg","68","2","random","68","random,structured_load,structured_normal,structured_incentive","2,1,3,4,2,3","true","",""
"null","","html-keyboard-response","47","860717","0.0-47.0","","<img src=""img/set1/S2.jpg"" width=""540"" height = ""360"" style=""border:16px solid orange"">","null","","","","","","","",""
"null","","html-keyboard-response","48","860919","0.0-48.0","","","null","","","","","","","",""
"787.6999999880791","","image-keyboard-response","49","861708","0.0-49.0","","img/set1/S4.jpg","74","4","random","74","random,structured_load,structured_normal,structured_incentive","2,1,3,4,2,3","true","",""
"null","","html-keyboard-response","50","862060","0.0-50.0","","<img src=""img/set1/S4.jpg"" width=""540"" height = ""360"" style=""border:16px solid orange"">","null","","","","","","","",""
"null","","html-keyboard-response","51","862263","0.0-51.0","","","null","","","","","","","",""
"524.3000000119209","","image-keyboard-response","52","862788","0.0-52.0","","img/set1/S4.jpg","74","4","random","74","random,structured_load,structured_normal,structured_incentive","2,1,3,4,2,3","true","",""
"null","","html-keyboard-response","53","863140","0.0-53.0","","<img src=""img/set1/S4.jpg"" width=""540"" height = ""360"" style=""border:16px solid orange"">","null","","","","","","","",""
"null","","html-keyboard-response","54","863342","0.0-54.0","","","null","","","","","","","",""
"428.60000002384186","","image-keyboard-response","55","863772","0.0-55.0","","img/set1/S4.jpg","74","4","random","74","random,structured_load,structured_normal,structured_incentive","2,1,3,4,2,3","true","",""
"null","","html-keyboard-response","56","864125","0.0-56.0","","<img src=""img/set1/S4.jpg"" width=""540"" height = ""360"" style=""border:16px solid orange"">","null","","","","","","","",""
"null","","html-keyboard-response","57","864327","0.0-57.0","","","null","","","","","","","",""
"1108.199999988079","","image-keyboard-response","58","865435","0.0-58.0","","img/set1/S3.jpg","72","3","random","72","random,structured_load,structured_normal,structured_incentive","2,1,3,4,2,3","true","",""
"null","","html-keyboard-response","59","865788","0.0-59.0","","<img src=""img/set1/S3.jpg"" width=""540"" height = ""360"" style=""border:16px solid orange"">","null","","","","","","","",""
"null","","html-keyboard-response","60","865990","0.0-60.0","","","null","","","","","","","",""
"773","","image-keyboard-response","61","866764","0.0-61.0","","img/set1/S1.jpg","83","1","random","83","random,structured_load,structured_normal,structured_incentive","2,1,3,4,2,3","true","",""
"null","","html-keyboard-response","62","867116","0.0-62.0","","<img src=""img/set1/S1.jpg"" width=""540"" height = ""360"" style=""border:16px solid orange"">","null","","","","","","","",""
"null","","html-keyboard-response","63","867318","0.0-63.0","","","null","","","","","","","",""
"501.0999999642372","","image-keyboard-response","64","867820","0.0-64.0","","img/set1/S1.jpg","83","1","random","83","random,structured_load,structured_normal,structured_incentive","2,1,3,4,2,3","true","",""
"null","","html-keyboard-response","65","868172","0.0-65.0","","<img src=""img/set1/S1.jpg"" width=""540"" height = ""360"" style=""border:16px solid orange"">","null","","","","","","","",""
"null","","html-keyboard-response","66","868373","0.0-66.0","","","null","","","","","","","",""
"454.30000001192093","","image-keyboard-response","67","868828","0.0-67.0","","img/set1/S1.jpg","83","1","random","83","random,structured_load,structured_normal,structured_incentive","2,1,3,4,2,3","true","",""
"null","","html-keyboard-response","68","869180","0.0-68.0","","<img src=""img/set1/S1.jpg"" width=""540"" height = ""360"" style=""border:16px solid orange"">","null","","","","","","","",""
"null","","html-keyboard-response","69","869383","0.0-69.0","","","null","","","","","","","",""
"481.7000000476837","","image-keyboard-response","70","869868","0.0-70.0","","img/set1/S2.jpg","68","2","random","68","random,structured_load,structured_normal,structured_incentive","2,1,3,4,2,3","true","",""
"null","","html-keyboard-response","71","870220","0.0-71.0","","<img src=""img/set1/S2.jpg"" width=""540"" height = ""360"" style=""border:16px solid orange"">","null","","","","","","","",""
"null","","html-keyboard-response","72","870422","0.0-72.0","","","null","","","","","","","",""
"596.8999999761581","","image-keyboard-response","73","871020","0.0-73.0","","img/set1/S1.jpg","83","1","random","83","random,structured_load,structured_normal,structured_incentive","2,1,3,4,2,3","true","",""
"null","","html-keyboard-response","74","871372","0.0-74.0","","<img src=""img/set1/S1.jpg"" width=""540"" height = ""360"" style=""border:16px solid orange"">","null","","","","","","","",""
"null","","html-keyboard-response","75","871574","0.0-75.0","","","null","","","","","","","",""
"763.9000000357628","","image-keyboard-response","76","872339","0.0-76.0","","img/set1/S2.jpg","68","2","random","68","random,structured_load,structured_normal,structured_incentive","2,1,3,4,2,3","true","",""
"null","","html-keyboard-response","77","872691","0.0-77.0","","<img src=""img/set1/S2.jpg"" width=""540"" height = ""360"" style=""border:16px solid orange"">","null","","","","","","","",""
"null","","html-keyboard-response","78","872892","0.0-78.0","","","null","","","","","","","",""
"446.19999998807907","","image-keyboard-response","79","873339","0.0-79.0","","img/set1/S2.jpg","68","2","random","68","random,structured_load,structured_normal,structured_incentive","2,1,3,4,2,3","true","",""
"null","","html-keyboard-response","80","873691","0.0-80.0","","<img src=""img/set1/S2.jpg"" width=""540"" height = ""360"" style=""border:16px solid orange"">","null","","","","","","","",""
"null","","html-keyboard-response","81","873892","0.0-81.0","","","null","","","","","","","",""
"798.5999999642372","","image-keyboard-response","82","874691","0.0-82.0","","img/set1/S1.jpg","83","1","random","83","random,structured_load,structured_normal,structured_incentive","2,1,3,4,2,3","true","",""
"null","","html-keyboard-response","83","875043","0.0-83.0","","<img src=""img/set1/S1.jpg"" width=""540"" height = ""360"" style=""border:16px solid orange"">","null","","","","","","","",""
"null","","html-keyboard-response","84","875244","0.0-84.0","","","null","","","","","","","",""
"670.1999999880791","","image-keyboard-response","85","875916","0.0-85.0","","img/set1/S1.jpg","83","1","random","83","random,structured_load,structured_normal,structured_incentive","2,1,3,4,2,3","true","",""
"null","","html-keyboard-response","86","876268","0.0-86.0","","<img src=""img/set1/S1.jpg"" width=""540"" height = ""360"" style=""border:16px solid orange"">","null","","","","","","","",""
"null","","html-keyboard-response","87","876470","0.0-87.0","","","null","","","","","","","",""
"813.1000000238419","","image-keyboard-response","88","877284","0.0-88.0","","img/set1/S2.jpg","68","2","random","68","random,structured_load,structured_normal,structured_incentive","2,1,3,4,2,3","true","",""
"null","","html-keyboard-response","89","877636","0.0-89.0","","<img src=""img/set1/S2.jpg"" width=""540"" height = ""360"" style=""border:16px solid orange"">","null","","","","","","","",""
"null","","html-keyboard-response","90","877838","0.0-90.0","","","null","","","","","","","",""
"677.5999999642372","","image-keyboard-response","91","878516","0.0-91.0","","img/set1/S4.jpg","74","4","random","74","random,structured_load,structured_normal,structured_incentive","2,1,3,4,2,3","true","",""
"null","","html-keyboard-response","92","878869","0.0-92.0","","<img src=""img/set1/S4.jpg"" width=""540"" height = ""360"" style=""border:16px solid orange"">","null","","","","","","","",""
"null","","html-keyboard-response","93","879072","0.0-93.0","","","null","","","","","","","",""
"514.3999999761581","","image-keyboard-response","94","879587","0.0-94.0","","img/set1/S4.jpg","74","4","random","74","random,structured_load,structured_normal,structured_incentive","2,1,3,4,2,3","true","",""
"null","","html-keyboard-response","95","879938","0.0-95.0","","<img src=""img/set1/S4.jpg"" width=""540"" height = ""360"" style=""border:16px solid orange"">","null","","","","","","","",""
"null","","html-keyboard-response","96","880141","0.0-96.0","","","null","","","","","","","",""
"550","","image-keyboard-response","97","880692","0.0-97.0","","img/set1/S3.jpg","72","3","random","72","random,structured_load,structured_normal,structured_incentive","2,1,3,4,2,3","true","",""
"null","","html-keyboard-response","98","881045","0.0-98.0","","<img src=""img/set1/S3.jpg"" width=""540"" height = ""360"" style=""border:16px solid orange"">","null","","","","","","","",""
"null","","html-keyboard-response","99","881247","0.0-99.0","","","null","","","","","","","",""
"540","","image-keyboard-response","100","881788","0.0-100.0","","img/set1/S4.jpg","74","4","random","74","random,structured_load,structured_normal,structured_incentive","2,1,3,4,2,3","true","",""
"null","","html-keyboard-response","101","882140","0.0-101.0","","<img src=""img/set1/S4.jpg"" width=""540"" height = ""360"" style=""border:16px solid orange"">","null","","","","","","","",""
"null","","html-keyboard-response","102","882342","0.0-102.0","","","null","","","","","","","",""
"636.6999999880791","","image-keyboard-response","103","882979","0.0-103.0","","img/set1/S1.jpg","83","1","random","83","random,structured_load,structured_normal,structured_incentive","2,1,3,4,2,3","true","",""
"null","","html-keyboard-response","104","883331","0.0-104.0","","<img src=""img/set1/S1.jpg"" width=""540"" height = ""360"" style=""border:16px solid orange"">","null","","","","","","","",""
"null","","html-keyboard-response","105","883532","0.0-105.0","","","null","","","","","","","",""
"494.80000001192093","","image-keyboard-response","106","884029","0.0-106.0","","img/set1/S1.jpg","83","1","random","83","random,structured_load,structured_normal,structured_incentive","2,1,3,4,2,3","true","",""
"null","","html-keyboard-response","107","884381","0.0-107.0","","<img src=""img/set1/S1.jpg"" width=""540"" height = ""360"" style=""border:16px solid orange"">","null","","","","","","","",""
"null","","html-keyboard-response","108","884583","0.0-108.0","","","null","","","","","","","",""
"675.5999999642372","","image-keyboard-response","109","885260","0.0-109.0","","img/set1/S4.jpg","74","4","random","74","random,structured_load,structured_normal,structured_incentive","2,1,3,4,2,3","true","",""
"null","","html-keyboard-response","110","885611","0.0-110.0","","<img src=""img/set1/S4.jpg"" width=""540"" height = ""360"" style=""border:16px solid orange"">","null","","","","","","","",""
"null","","html-keyboard-response","111","885813","0.0-111.0","","","null","","","","","","","",""
"573.4000000357628","","image-keyboard-response","112","886388","0.0-112.0","","img/set1/S2.jpg","68","2","random","68","random,structured_load,structured_normal,structured_incentive","2,1,3,4,2,3","true","",""
"null","","html-keyboard-response","113","886740","0.0-113.0","","<img src=""img/set1/S2.jpg"" width=""540"" height = ""360"" style=""border:16px solid orange"">","null","","","","","","","",""
"null","","html-keyboard-response","114","886942","0.0-114.0","","","null","","","","","","","",""
"589.1999999880791","","image-keyboard-response","115","887532","0.0-115.0","","img/set1/S4.jpg","74","4","random","74","random,structured_load,structured_normal,structured_incentive","2,1,3,4,2,3","true","",""
"null","","html-keyboard-response","116","887885","0.0-116.0","","<img src=""img/set1/S4.jpg"" width=""540"" height = ""360"" style=""border:16px solid orange"">","null","","","","","","","",""
"null","","html-keyboard-response","117","888087","0.0-117.0","","","null","","","","","","","",""
"451.5","","image-keyboard-response","118","888539","0.0-118.0","","img/set1/S4.jpg","74","4","random","74","random,structured_load,structured_normal,structured_incentive","2,1,3,4,2,3","true","",""
"null","","html-keyboard-response","119","888891","0.0-119.0","","<img src=""img/set1/S4.jpg"" width=""540"" height = ""360"" style=""border:16px solid orange"">","null","","","","","","","",""
"null","","html-keyboard-response","120","889093","0.0-120.0","","","null","","","","","","","",""
"790.6999999880791","","image-keyboard-response","121","889884","0.0-121.0","","img/set1/S1.jpg","83","1","random","83","random,structured_load,structured_normal,structured_incentive","2,1,3,4,2,3","true","",""
"null","","html-keyboard-response","122","890237","0.0-122.0","","<img src=""img/set1/S1.jpg"" width=""540"" height = ""360"" style=""border:16px solid orange"">","null","","","","","","","",""
"null","","html-keyboard-response","123","890439","0.0-123.0","","","null","","","","","","","",""
"451.60000002384186","","image-keyboard-response","124","890891","0.0-124.0","","img/set1/S1.jpg","83","1","random","83","random,structured_load,structured_normal,structured_incentive","2,1,3,4,2,3","true","",""
"null","","html-keyboard-response","125","891244","0.0-125.0","","<img src=""img/set1/S1.jpg"" width=""540"" height = ""360"" style=""border:16px solid orange"">","null","","","","","","","",""
"null","","html-keyboard-response","126","891446","0.0-126.0","","","null","","","","","","","",""
"668.8999999761581","","image-keyboard-response","127","892116","0.0-127.0","","img/set1/S4.jpg","74","4","random","74","random,structured_load,structured_normal,structured_incentive","2,1,3,4,2,3","true","",""
"null","","html-keyboard-response","128","892470","0.0-128.0","","<img src=""img/set1/S4.jpg"" width=""540"" height = ""360"" style=""border:16px solid orange"">","null","","","","","","","",""
"null","","html-keyboard-response","129","892671","0.0-129.0","","","null","","","","","","","",""
"580","","image-keyboard-response","130","893252","0.0-130.0","","img/set1/S1.jpg","83","1","random","83","random,structured_load,structured_normal,structured_incentive","2,1,3,4,2,3","true","",""
"null","","html-keyboard-response","131","893604","0.0-131.0","","<img src=""img/set1/S1.jpg"" width=""540"" height = ""360"" style=""border:16px solid orange"">","null","","","","","","","",""
"null","","html-keyboard-response","132","893806","0.0-132.0","","","null","","","","","","","",""
"652.8000000119209","","image-keyboard-response","133","894460","0.0-133.0","","img/set1/S2.jpg","68","2","random","68","random,structured_load,structured_normal,structured_incentive","2,1,3,4,2,3","true","",""
"null","","html-keyboard-response","134","894813","0.0-134.0","","<img src=""img/set1/S2.jpg"" width=""540"" height = ""360"" style=""border:16px solid orange"">","null","","","","","","","",""
"null","","html-keyboard-response","135","895016","0.0-135.0","","","null","","","","","","","",""
"683.0999999642372","","image-keyboard-response","136","895700","0.0-136.0","","img/set1/S3.jpg","72","3","random","72","random,structured_load,structured_normal,structured_incentive","2,1,3,4,2,3","true","",""
"null","","html-keyboard-response","137","896053","0.0-137.0","","<img src=""img/set1/S3.jpg"" width=""540"" height = ""360"" style=""border:16px solid orange"">","null","","","","","","","",""
"null","","html-keyboard-response","138","896254","0.0-138.0","","","null","","","","","","","",""
"757.3000000119209","","image-keyboard-response","139","897012","0.0-139.0","","img/set1/S2.jpg","68","2","random","68","random,structured_load,structured_normal,structured_incentive","2,1,3,4,2,3","true","",""
"null","","html-keyboard-response","140","897364","0.0-140.0","","<img src=""img/set1/S2.jpg"" width=""540"" height = ""360"" style=""border:16px solid orange"">","null","","","","","","","",""
"null","","html-keyboard-response","141","897565","0.0-141.0","","","null","","","","","","","",""
"699.1000000238419","","image-keyboard-response","142","898265","0.0-142.0","","img/set1/S4.jpg","74","4","random","74","random,structured_load,structured_normal,structured_incentive","2,1,3,4,2,3","true","",""
"null","","html-keyboard-response","143","898616","0.0-143.0","","<img src=""img/set1/S4.jpg"" width=""540"" height = ""360"" style=""border:16px solid orange"">","null","","","","","","","",""
"null","","html-keyboard-response","144","898819","0.0-144.0","","","null","","","","","","","",""
"647.1999999880791","","image-keyboard-response","145","899467","0.0-145.0","","img/set1/S2.jpg","68","2","random","68","random,structured_load,structured_normal,structured_incentive","2,1,3,4,2,3","true","",""
"null","","html-keyboard-response","146","899819","0.0-146.0","","<img src=""img/set1/S2.jpg"" width=""540"" height = ""360"" style=""border:16px solid orange"">","null","","","","","","","",""
"null","","html-keyboard-response","147","900020","0.0-147.0","","","null","","","","","","","",""
"590.6999999880791","","image-keyboard-response","148","900612","0.0-148.0","","img/set1/S4.jpg","74","4","random","74","random,structured_load,structured_normal,structured_incentive","2,1,3,4,2,3","true","",""
"null","","html-keyboard-response","149","900964","0.0-149.0","","<img src=""img/set1/S4.jpg"" width=""540"" height = ""360"" style=""border:16px solid orange"">","null","","","","","","","",""
"null","","html-keyboard-response","150","901166","0.0-150.0","","","null","","","","","","","",""
"525.3000000119209","","image-keyboard-response","151","901692","0.0-151.0","","img/set1/S2.jpg","68","2","random","68","random,structured_load,structured_normal,structured_incentive","2,1,3,4,2,3","true","",""
"null","","html-keyboard-response","152","902046","0.0-152.0","","<img src=""img/set1/S2.jpg"" width=""540"" height = ""360"" style=""border:16px solid orange"">","null","","","","","","","",""
"null","","html-keyboard-response","153","902248","0.0-153.0","","","null","","","","","","","",""
"450.0999999642372","","image-keyboard-response","154","902699","0.0-154.0","","img/set1/S2.jpg","68","2","random","68","random,structured_load,structured_normal,structured_incentive","2,1,3,4,2,3","true","",""
"null","","html-keyboard-response","155","903055","0.0-155.0","","<img src=""img/set1/S2.jpg"" width=""540"" height = ""360"" style=""border:16px solid orange"">","null","","","","","","","",""
"null","","html-keyboard-response","156","903257","0.0-156.0","","","null","","","","","","","",""
"561.6999999880791","","image-keyboard-response","157","903820","0.0-157.0","","img/set1/S3.jpg","72","3","random","72","random,structured_load,structured_normal,structured_incentive","2,1,3,4,2,3","true","",""
"null","","html-keyboard-response","158","904175","0.0-158.0","","<img src=""img/set1/S3.jpg"" width=""540"" height = ""360"" style=""border:16px solid orange"">","null","","","","","","","",""
"null","","html-keyboard-response","159","904378","0.0-159.0","","","null","","","","","","","",""
"576.5","","image-keyboard-response","160","904956","0.0-160.0","","img/set1/S3.jpg","72","3","random","72","random,structured_load,structured_normal,structured_incentive","2,1,3,4,2,3","true","",""
"null","","html-keyboard-response","161","905307","0.0-161.0","","<img src=""img/set1/S3.jpg"" width=""540"" height = ""360"" style=""border:16px solid orange"">","null","","","","","","","",""
"null","","html-keyboard-response","162","905509","0.0-162.0","","","null","","","","","","","",""
"365.5","","image-keyboard-response","163","905876","0.0-163.0","","img/set1/S3.jpg","72","3","random","72","random,structured_load,structured_normal,structured_incentive","2,1,3,4,2,3","true","",""
"null","","html-keyboard-response","164","906228","0.0-164.0","","<img src=""img/set1/S3.jpg"" width=""540"" height = ""360"" style=""border:16px solid orange"">","null","","","","","","","",""
"null","","html-keyboard-response","165","906430","0.0-165.0","","","null","","","","","","","",""
"396.39999997615814","","image-keyboard-response","166","906828","0.0-166.0","","img/set1/S3.jpg","72","3","random","72","random,structured_load,structured_normal,structured_incentive","2,1,3,4,2,3","true","",""
"null","","html-keyboard-response","167","907180","0.0-167.0","","<img src=""img/set1/S3.jpg"" width=""540"" height = ""360"" style=""border:16px solid orange"">","null","","","","","","","",""
"null","","html-keyboard-response","168","907381","0.0-168.0","","","null","","","","","","","",""
"431.30000001192093","","image-keyboard-response","169","907813","0.0-169.0","","img/set1/S3.jpg","72","3","random","72","random,structured_load,structured_normal,structured_incentive","2,1,3,4,2,3","true","",""
"null","","html-keyboard-response","170","908165","0.0-170.0","","<img src=""img/set1/S3.jpg"" width=""540"" height = ""360"" style=""border:16px solid orange"">","null","","","","","","","",""
"null","","html-keyboard-response","171","908368","0.0-171.0","","","null","","","","","","","",""
"395.0999999642372","","image-keyboard-response","172","908764","0.0-172.0","","img/set1/S3.jpg","72","3","random","72","random,structured_load,structured_normal,structured_incentive","2,1,3,4,2,3","true","",""
"null","","html-keyboard-response","173","909116","0.0-173.0","","<img src=""img/set1/S3.jpg"" width=""540"" height = ""360"" style=""border:16px solid orange"">","null","","","","","","","",""
"null","","html-keyboard-response","174","909318","0.0-174.0","","","null","","","","","","","",""
"652.3999999761581","","image-keyboard-response","175","909972","0.0-175.0","","img/set1/S2.jpg","68","2","random","68","random,structured_load,structured_normal,structured_incentive","2,1,3,4,2,3","true","",""
"null","","html-keyboard-response","176","910323","0.0-176.0","","<img src=""img/set1/S2.jpg"" width=""540"" height = ""360"" style=""border:16px solid orange"">","null","","","","","","","",""
"null","","html-keyboard-response","177","910525","0.0-177.0","","","null","","","","","","","",""
"446.0999999642372","","image-keyboard-response","178","910972","0.0-178.0","","img/set1/S2.jpg","68","2","random","68","random,structured_load,structured_normal,structured_incentive","2,1,3,4,2,3","true","",""
"null","","html-keyboard-response","179","911324","0.0-179.0","","<img src=""img/set1/S2.jpg"" width=""540"" height = ""360"" style=""border:16px solid orange"">","null","","","","","","","",""
"null","","html-keyboard-response","180","911526","0.0-180.0","","","null","","","","","","","",""
"652.8000000119209","","image-keyboard-response","181","912180","0.0-181.0","","img/set1/S3.jpg","72","3","random","72","random,structured_load,structured_normal,structured_incentive","2,1,3,4,2,3","true","",""
"null","","html-keyboard-response","182","912539","0.0-182.0","","<img src=""img/set1/S3.jpg"" width=""540"" height = ""360"" style=""border:16px solid orange"">","null","","","","","","","",""
"null","","html-keyboard-response","183","912741","0.0-183.0","","","null","","","","","","","",""
"429.5","","image-keyboard-response","184","913172","0.0-184.0","","img/set1/S4.jpg","74","4","random","74","random,structured_load,structured_normal,structured_incentive","2,1,3,4,2,3","true","",""
"null","","html-keyboard-response","185","913523","0.0-185.0","","<img src=""img/set1/S4.jpg"" width=""540"" height = ""360"" style=""border:16px solid orange"">","null","","","","","","","",""
"null","","html-keyboard-response","186","913724","0.0-186.0","","","null","","","","","","","",""
"390.80000001192093","","image-keyboard-response","187","914116","0.0-187.0","","img/set1/S4.jpg","74","4","random","74","random,structured_load,structured_normal,structured_incentive","2,1,3,4,2,3","true","",""
"null","","html-keyboard-response","188","914469","0.0-188.0","","<img src=""img/set1/S4.jpg"" width=""540"" height = ""360"" style=""border:16px solid orange"">","null","","","","","","","",""
"null","","html-keyboard-response","189","914671","0.0-189.0","","","null","","","","","","","",""
"835.3999999761581","","image-keyboard-response","190","915508","0.0-190.0","","img/set1/S2.jpg","68","2","random","68","random,structured_load,structured_normal,structured_incentive","2,1,3,4,2,3","true","",""
"null","","html-keyboard-response","191","915861","0.0-191.0","","<img src=""img/set1/S2.jpg"" width=""540"" height = ""360"" style=""border:16px solid orange"">","null","","","","","","","",""
"null","","html-keyboard-response","192","916064","0.0-192.0","","","null","","","","","","","",""
"474.89999997615814","","image-keyboard-response","193","916540","0.0-193.0","","img/set1/S2.jpg","68","2","random","68","random,structured_load,structured_normal,structured_incentive","2,1,3,4,2,3","true","",""
"null","","html-keyboard-response","194","916891","0.0-194.0","","<img src=""img/set1/S2.jpg"" width=""540"" height = ""360"" style=""border:16px solid orange"">","null","","","","","","","",""
"null","","html-keyboard-response","195","917092","0.0-195.0","","","null","","","","","","","",""
"502.80000001192093","","image-keyboard-response","196","917596","0.0-196.0","","img/set1/S1.jpg","83","1","random","83","random,structured_load,structured_normal,structured_incentive","2,1,3,4,2,3","true","",""
"null","","html-keyboard-response","197","917948","0.0-197.0","","<img src=""img/set1/S1.jpg"" width=""540"" height = ""360"" style=""border:16px solid orange"">","null","","","","","","","",""
"null","","html-keyboard-response","198","918150","0.0-198.0","","","null","","","","","","","",""
"404.69999998807907","","image-keyboard-response","199","918556","0.0-199.0","","img/set1/S1.jpg","83","1","random","83","random,structured_load,structured_normal,structured_incentive","2,1,3,4,2,3","true","",""
"null","","html-keyboard-response","200","918909","0.0-200.0","","<img src=""img/set1/S1.jpg"" width=""540"" height = ""360"" style=""border:16px solid orange"">","null","","","","","","","",""
"null","","html-keyboard-response","201","919111","0.0-201.0","","","null","","","","","","","",""
"627.4000000357628","","image-keyboard-response","202","919739","0.0-202.0","","img/set1/S4.jpg","74","4","random","74","random,structured_load,structured_normal,structured_incentive","2,1,3,4,2,3","true","",""
"null","","html-keyboard-response","203","920092","0.0-203.0","","<img src=""img/set1/S4.jpg"" width=""540"" height = ""360"" style=""border:16px solid orange"">","null","","","","","","","",""
"null","","html-keyboard-response","204","920295","0.0-204.0","","","null","","","","","","","",""
"787.6000000238419","","image-keyboard-response","205","921084","0.0-205.0","","img/set1/S2.jpg","68","2","random","68","random,structured_load,structured_normal,structured_incentive","2,1,3,4,2,3","true","",""
"null","","html-keyboard-response","206","921436","0.0-206.0","","<img src=""img/set1/S2.jpg"" width=""540"" height = ""360"" style=""border:16px solid orange"">","null","","","","","","","",""
"null","","html-keyboard-response","207","921639","0.0-207.0","","","null","","","","","","","",""
"596.1000000238419","","image-keyboard-response","208","922236","0.0-208.0","","img/set1/S3.jpg","72","3","random","72","random,structured_load,structured_normal,structured_incentive","2,1,3,4,2,3","true","",""
"null","","html-keyboard-response","209","922588","0.0-209.0","","<img src=""img/set1/S3.jpg"" width=""540"" height = ""360"" style=""border:16px solid orange"">","null","","","","","","","",""
"null","","html-keyboard-response","210","922790","0.0-210.0","","","null","","","","","","","",""
"588.9000000357628","","image-keyboard-response","211","923380","0.0-211.0","","img/set1/S4.jpg","74","4","random","74","random,structured_load,structured_normal,structured_incentive","2,1,3,4,2,3","true","",""
"null","","html-keyboard-response","212","923732","0.0-212.0","","<img src=""img/set1/S4.jpg"" width=""540"" height = ""360"" style=""border:16px solid orange"">","null","","","","","","","",""
"null","","html-keyboard-response","213","923933","0.0-213.0","","","null","","","","","","","",""
"749.3000000119209","","image-keyboard-response","214","924683","0.0-214.0","","img/set1/S3.jpg","72","3","random","72","random,structured_load,structured_normal,structured_incentive","2,1,3,4,2,3","true","",""
"null","","html-keyboard-response","215","925035","0.0-215.0","","<img src=""img/set1/S3.jpg"" width=""540"" height = ""360"" style=""border:16px solid orange"">","null","","","","","","","",""
"null","","html-keyboard-response","216","925236","0.0-216.0","","","null","","","","","","","",""
"910.5","","image-keyboard-response","217","926147","0.0-217.0","","img/set1/S1.jpg","83","1","random","83","random,structured_load,structured_normal,structured_incentive","2,1,3,4,2,3","true","",""
"null","","html-keyboard-response","218","926499","0.0-218.0","","<img src=""img/set1/S1.jpg"" width=""540"" height = ""360"" style=""border:16px solid orange"">","null","","","","","","","",""
"null","","html-keyboard-response","219","926701","0.0-219.0","","","null","","","","","","","",""
"453.69999998807907","","image-keyboard-response","220","927155","0.0-220.0","","img/set1/S1.jpg","83","1","random","83","random,structured_load,structured_normal,structured_incentive","2,1,3,4,2,3","true","",""
"null","","html-keyboard-response","221","927507","0.0-221.0","","<img src=""img/set1/S1.jpg"" width=""540"" height = ""360"" style=""border:16px solid orange"">","null","","","","","","","",""
"null","","html-keyboard-response","222","927708","0.0-222.0","","","null","","","","","","","",""
"710.4000000357628","","image-keyboard-response","223","928419","0.0-223.0","","img/set1/S4.jpg","74","4","random","74","random,structured_load,structured_normal,structured_incentive","2,1,3,4,2,3","true","",""
"null","","html-keyboard-response","224","928771","0.0-224.0","","<img src=""img/set1/S4.jpg"" width=""540"" height = ""360"" style=""border:16px solid orange"">","null","","","","","","","",""
"null","","html-keyboard-response","225","928973","0.0-225.0","","","null","","","","","","","",""
"494.19999998807907","","image-keyboard-response","226","929469","0.0-226.0","","img/set1/S4.jpg","74","4","random","74","random,structured_load,structured_normal,structured_incentive","2,1,3,4,2,3","true","",""
"null","","html-keyboard-response","227","929821","0.0-227.0","","<img src=""img/set1/S4.jpg"" width=""540"" height = ""360"" style=""border:16px solid orange"">","null","","","","","","","",""
"null","","html-keyboard-response","228","930023","0.0-228.0","","","null","","","","","","","",""
"587.7000000476837","","image-keyboard-response","229","930612","0.0-229.0","","img/set1/S3.jpg","72","3","random","72","random,structured_load,structured_normal,structured_incentive","2,1,3,4,2,3","true","",""
"null","","html-keyboard-response","230","930964","0.0-230.0","","<img src=""img/set1/S3.jpg"" width=""540"" height = ""360"" style=""border:16px solid orange"">","null","","","","","","","",""
"null","","html-keyboard-response","231","931166","0.0-231.0","","","null","","","","","","","",""
"636.5999999642372","","image-keyboard-response","232","931803","0.0-232.0","","img/set1/S4.jpg","74","4","random","74","random,structured_load,structured_normal,structured_incentive","2,1,3,4,2,3","true","",""
"null","","html-keyboard-response","233","932163","0.0-233.0","","<img src=""img/set1/S4.jpg"" width=""540"" height = ""360"" style=""border:16px solid orange"">","null","","","","","","","",""
"null","","html-keyboard-response","234","932364","0.0-234.0","","","null","","","","","","","",""
"534.3999999761581","","image-keyboard-response","235","932901","0.0-235.0","","img/set1/S4.jpg","74","4","random","74","random,structured_load,structured_normal,structured_incentive","2,1,3,4,2,3","true","",""
"null","","html-keyboard-response","236","933253","0.0-236.0","","<img src=""img/set1/S4.jpg"" width=""540"" height = ""360"" style=""border:16px solid orange"">","null","","","","","","","",""
"null","","html-keyboard-response","237","933455","0.0-237.0","","","null","","","","","","","",""
"707.5","","image-keyboard-response","238","934165","0.0-238.0","","img/set1/S3.jpg","72","3","random","72","random,structured_load,structured_normal,structured_incentive","2,1,3,4,2,3","true","",""
"null","","html-keyboard-response","239","934517","0.0-239.0","","<img src=""img/set1/S3.jpg"" width=""540"" height = ""360"" style=""border:16px solid orange"">","null","","","","","","","",""
"null","","html-keyboard-response","240","934719","0.0-240.0","","","null","","","","","","","",""
"548.3000000119209","","image-keyboard-response","241","935269","0.0-241.0","","img/set1/S4.jpg","74","4","random","74","random,structured_load,structured_normal,structured_incentive","2,1,3,4,2,3","true","",""
"null","","html-keyboard-response","242","935621","0.0-242.0","","<img src=""img/set1/S4.jpg"" width=""540"" height = ""360"" style=""border:16px solid orange"">","null","","","","","","","",""
"null","","html-keyboard-response","243","935836","0.0-243.0","","","null","","","","","","","",""
"654.7999999523163","","image-keyboard-response","244","936492","0.0-244.0","","img/set1/S3.jpg","72","3","random","72","random,structured_load,structured_normal,structured_incentive","2,1,3,4,2,3","true","",""
"null","","html-keyboard-response","245","936845","0.0-245.0","","<img src=""img/set1/S3.jpg"" width=""540"" height = ""360"" style=""border:16px solid orange"">","null","","","","","","","",""
"null","","html-keyboard-response","246","937047","0.0-246.0","","","null","","","","","","","",""
"692.0999999642372","","image-keyboard-response","247","937740","0.0-247.0","","img/set1/S2.jpg","68","2","random","68","random,structured_load,structured_normal,structured_incentive","2,1,3,4,2,3","true","",""
"null","","html-keyboard-response","248","938093","0.0-248.0","","<img src=""img/set1/S2.jpg"" width=""540"" height = ""360"" style=""border:16px solid orange"">","null","","","","","","","",""
"null","","html-keyboard-response","249","938294","0.0-249.0","","","null","","","","","","","",""
"573.3000000119209","","image-keyboard-response","250","938868","0.0-250.0","","img/set1/S1.jpg","83","1","random","83","random,structured_load,structured_normal,structured_incentive","2,1,3,4,2,3","true","",""
"null","","html-keyboard-response","251","939220","0.0-251.0","","<img src=""img/set1/S1.jpg"" width=""540"" height = ""360"" style=""border:16px solid orange"">","null","","","","","","","",""
"null","","html-keyboard-response","252","939423","0.0-252.0","","","null","","","","","","","",""
"812","","image-keyboard-response","253","940236","0.0-253.0","","img/set1/S3.jpg","72","3","random","72","random,structured_load,structured_normal,structured_incentive","2,1,3,4,2,3","true","",""
"null","","html-keyboard-response","254","940588","0.0-254.0","","<img src=""img/set1/S3.jpg"" width=""540"" height = ""360"" style=""border:16px solid orange"">","null","","","","","","","",""
"null","","html-keyboard-response","255","940790","0.0-255.0","","","null","","","","","","","",""
"612.8000000119209","","image-keyboard-response","256","941404","0.0-256.0","","img/set1/S2.jpg","68","2","random","68","random,structured_load,structured_normal,structured_incentive","2,1,3,4,2,3","true","",""
"null","","html-keyboard-response","257","941755","0.0-257.0","","<img src=""img/set1/S2.jpg"" width=""540"" height = ""360"" style=""border:16px solid orange"">","null","","","","","","","",""
"null","","html-keyboard-response","258","941958","0.0-258.0","","","null","","","","","","","",""
"620","","image-keyboard-response","259","942580","0.0-259.0","","img/set1/S4.jpg","74","4","random","74","random,structured_load,structured_normal,structured_incentive","2,1,3,4,2,3","true","",""
"null","","html-keyboard-response","260","942932","0.0-260.0","","<img src=""img/set1/S4.jpg"" width=""540"" height = ""360"" style=""border:16px solid orange"">","null","","","","","","","",""
"null","","html-keyboard-response","261","943134","0.0-261.0","","","null","","","","","","","",""
"620.9000000357628","","image-keyboard-response","262","943756","0.0-262.0","","img/set1/S3.jpg","72","3","random","72","random,structured_load,structured_normal,structured_incentive","2,1,3,4,2,3","true","",""
"null","","html-keyboard-response","263","944109","0.0-263.0","","<img src=""img/set1/S3.jpg"" width=""540"" height = ""360"" style=""border:16px solid orange"">","null","","","","","","","",""
"null","","html-keyboard-response","264","944311","0.0-264.0","","","null","","","","","","","",""
"459.2000000476837","","image-keyboard-response","265","944772","0.0-265.0","","img/set1/S3.jpg","72","3","random","72","random,structured_load,structured_normal,structured_incentive","2,1,3,4,2,3","true","",""
"null","","html-keyboard-response","266","945124","0.0-266.0","","<img src=""img/set1/S3.jpg"" width=""540"" height = ""360"" style=""border:16px solid orange"">","null","","","","","","","",""
"null","","html-keyboard-response","267","945326","0.0-267.0","","","null","","","","","","","",""
"636.3000000119209","","image-keyboard-response","268","945964","0.0-268.0","","img/set1/S2.jpg","68","2","random","68","random,structured_load,structured_normal,structured_incentive","2,1,3,4,2,3","true","",""
"null","","html-keyboard-response","269","946316","0.0-269.0","","<img src=""img/set1/S2.jpg"" width=""540"" height = ""360"" style=""border:16px solid orange"">","null","","","","","","","",""
"null","","html-keyboard-response","270","946517","0.0-270.0","","","null","","","","","","","",""
"749.6999999880791","","image-keyboard-response","271","947267","0.0-271.0","","img/set1/S1.jpg","83","1","random","83","random,structured_load,structured_normal,structured_incentive","2,1,3,4,2,3","true","",""
"null","","html-keyboard-response","272","947618","0.0-272.0","","<img src=""img/set1/S1.jpg"" width=""540"" height = ""360"" style=""border:16px solid orange"">","null","","","","","","","",""
"null","","html-keyboard-response","273","947820","0.0-273.0","","","null","","","","","","","",""
"710.7000000476837","","image-keyboard-response","274","948531","0.0-274.0","","img/set1/S2.jpg","68","2","random","68","random,structured_load,structured_normal,structured_incentive","2,1,3,4,2,3","true","",""
"null","","html-keyboard-response","275","948884","0.0-275.0","","<img src=""img/set1/S2.jpg"" width=""540"" height = ""360"" style=""border:16px solid orange"">","null","","","","","","","",""
"null","","html-keyboard-response","276","949085","0.0-276.0","","","null","","","","","","","",""
"612.8999999761581","","image-keyboard-response","277","949699","0.0-277.0","","img/set1/S3.jpg","72","3","random","72","random,structured_load,structured_normal,structured_incentive","2,1,3,4,2,3","true","",""
"null","","html-keyboard-response","278","950052","0.0-278.0","","<img src=""img/set1/S3.jpg"" width=""540"" height = ""360"" style=""border:16px solid orange"">","null","","","","","","","",""
"null","","html-keyboard-response","279","950253","0.0-279.0","","","null","","","","","","","",""
"685.5","","image-keyboard-response","280","950940","0.0-280.0","","img/set1/S4.jpg","74","4","random","74","random,structured_load,structured_normal,structured_incentive","2,1,3,4,2,3","true","",""
"null","","html-keyboard-response","281","951292","0.0-281.0","","<img src=""img/set1/S4.jpg"" width=""540"" height = ""360"" style=""border:16px solid orange"">","null","","","","","","","",""
"null","","html-keyboard-response","282","951494","0.0-282.0","","","null","","","","","","","",""
"740.8999999761581","","image-keyboard-response","283","952236","0.0-283.0","","img/set1/S2.jpg","68","2","random","68","random,structured_load,structured_normal,structured_incentive","2,1,3,4,2,3","true","",""
"null","","html-keyboard-response","284","952587","0.0-284.0","","<img src=""img/set1/S2.jpg"" width=""540"" height = ""360"" style=""border:16px solid orange"">","null","","","","","","","",""
"null","","html-keyboard-response","285","952789","0.0-285.0","","","null","","","","","","","",""
"741.1999999880791","","image-keyboard-response","286","953532","0.0-286.0","","img/set1/S1.jpg","83","1","random","83","random,structured_load,structured_normal,structured_incentive","2,1,3,4,2,3","true","",""
"null","","html-keyboard-response","287","953883","0.0-287.0","","<img src=""img/set1/S1.jpg"" width=""540"" height = ""360"" style=""border:16px solid orange"">","null","","","","","","","",""
"null","","html-keyboard-response","288","954084","0.0-288.0","","","null","","","","","","","",""
"575.1999999880791","","image-keyboard-response","289","954661","0.0-289.0","","img/set1/S1.jpg","83","1","random","83","random,structured_load,structured_normal,structured_incentive","2,1,3,4,2,3","true","",""
"null","","html-keyboard-response","290","955014","0.0-290.0","","<img src=""img/set1/S1.jpg"" width=""540"" height = ""360"" style=""border:16px solid orange"">","null","","","","","","","",""
"null","","html-keyboard-response","291","955215","0.0-291.0","","","null","","","","","","","",""
"484.5","","image-keyboard-response","292","955701","0.0-292.0","","img/set1/S1.jpg","83","1","random","83","random,structured_load,structured_normal,structured_incentive","2,1,3,4,2,3","true","",""
"null","","html-keyboard-response","293","956053","0.0-293.0","","<img src=""img/set1/S1.jpg"" width=""540"" height = ""360"" style=""border:16px solid orange"">","null","","","","","","","",""
"null","","html-keyboard-response","294","956254","0.0-294.0","","","null","","","","","","","",""
"404.10000002384186","","image-keyboard-response","295","956660","0.0-295.0","","img/set1/S1.jpg","83","1","random","83","random,structured_load,structured_normal,structured_incentive","2,1,3,4,2,3","true","",""
"null","","html-keyboard-response","296","957012","0.0-296.0","","<img src=""img/set1/S1.jpg"" width=""540"" height = ""360"" style=""border:16px solid orange"">","null","","","","","","","",""
"null","","html-keyboard-response","297","957215","0.0-297.0","","","null","","","","","","","",""
"764.1000000238419","","image-keyboard-response","298","957979","0.0-298.0","","img/set1/S3.jpg","72","3","random","72","random,structured_load,structured_normal,structured_incentive","2,1,3,4,2,3","true","",""
"null","","html-keyboard-response","299","958332","0.0-299.0","","<img src=""img/set1/S3.jpg"" width=""540"" height = ""360"" style=""border:16px solid orange"">","null","","","","","","","",""
"null","","html-keyboard-response","300","958534","0.0-300.0","","","null","","","","","","","",""
"661.1999999880791","","image-keyboard-response","301","959196","0.0-301.0","","img/set1/S2.jpg","68","2","random","68","random,structured_load,structured_normal,structured_incentive","2,1,3,4,2,3","true","",""
"null","","html-keyboard-response","302","959548","0.0-302.0","","<img src=""img/set1/S2.jpg"" width=""540"" height = ""360"" style=""border:16px solid orange"">","null","","","","","","","",""
"null","","html-keyboard-response","303","959750","0.0-303.0","","","null","","","","","","","",""
"692.1000000238419","","image-keyboard-response","304","960443","0.0-304.0","","img/set1/S1.jpg","83","1","random","83","random,structured_load,structured_normal,structured_incentive","2,1,3,4,2,3","true","",""
"null","","html-keyboard-response","305","960796","0.0-305.0","","<img src=""img/set1/S1.jpg"" width=""540"" height = ""360"" style=""border:16px solid orange"">","null","","","","","","","",""
"null","","html-keyboard-response","306","960998","0.0-306.0","","","null","","","","","","","",""
"501.39999997615814","","image-keyboard-response","307","961501","0.0-307.0","","img/set1/S1.jpg","83","1","random","83","random,structured_load,structured_normal,structured_incentive","2,1,3,4,2,3","true","",""
"null","","html-keyboard-response","308","961853","0.0-308.0","","<img src=""img/set1/S1.jpg"" width=""540"" height = ""360"" style=""border:16px solid orange"">","null","","","","","","","",""
"null","","html-keyboard-response","309","962056","0.0-309.0","","","null","","","","","","","",""
"538.2999999523163","","image-keyboard-response","310","962596","0.0-310.0","","img/set1/S2.jpg","68","2","random","68","random,structured_load,structured_normal,structured_incentive","2,1,3,4,2,3","true","",""
"null","","html-keyboard-response","311","962948","0.0-311.0","","<img src=""img/set1/S2.jpg"" width=""540"" height = ""360"" style=""border:16px solid orange"">","null","","","","","","","",""
"null","","html-keyboard-response","312","963149","0.0-312.0","","","null","","","","","","","",""
"557.3000000119209","","image-keyboard-response","313","963707","0.0-313.0","","img/set1/S2.jpg","68","2","random","68","random,structured_load,structured_normal,structured_incentive","2,1,3,4,2,3","true","",""
"null","","html-keyboard-response","314","964059","0.0-314.0","","<img src=""img/set1/S2.jpg"" width=""540"" height = ""360"" style=""border:16px solid orange"">","null","","","","","","","",""
"null","","html-keyboard-response","315","964262","0.0-315.0","","","null","","","","","","","",""
"756.3999999761581","","image-keyboard-response","316","965019","0.0-316.0","","img/set1/S3.jpg","72","3","random","72","random,structured_load,structured_normal,structured_incentive","2,1,3,4,2,3","true","",""
"null","","html-keyboard-response","317","965371","0.0-317.0","","<img src=""img/set1/S3.jpg"" width=""540"" height = ""360"" style=""border:16px solid orange"">","null","","","","","","","",""
"null","","html-keyboard-response","318","965572","0.0-318.0","","","null","","","","","","","",""
"534.5","","image-keyboard-response","319","966108","0.0-319.0","","img/set1/S4.jpg","74","4","random","74","random,structured_load,structured_normal,structured_incentive","2,1,3,4,2,3","true","",""
"null","","html-keyboard-response","320","966460","0.0-320.0","","<img src=""img/set1/S4.jpg"" width=""540"" height = ""360"" style=""border:16px solid orange"">","null","","","","","","","",""
"null","","html-keyboard-response","321","966663","0.0-321.0","","","null","","","","","","","",""
"627.1999999880791","","image-keyboard-response","322","967292","0.0-322.0","","img/set1/S2.jpg","68","2","random","68","random,structured_load,structured_normal,structured_incentive","2,1,3,4,2,3","true","",""
"null","","html-keyboard-response","323","967645","0.0-323.0","","<img src=""img/set1/S2.jpg"" width=""540"" height = ""360"" style=""border:16px solid orange"">","null","","","","","","","",""
"null","","html-keyboard-response","324","967847","0.0-324.0","","","null","","","","","","","",""
"627.5999999642372","","image-keyboard-response","325","968475","0.0-325.0","","img/set1/S3.jpg","72","3","random","72","random,structured_load,structured_normal,structured_incentive","2,1,3,4,2,3","true","",""
"null","","html-keyboard-response","326","968828","0.0-326.0","","<img src=""img/set1/S3.jpg"" width=""540"" height = ""360"" style=""border:16px solid orange"">","null","","","","","","","",""
"null","","html-keyboard-response","327","969030","0.0-327.0","","","null","","","","","","","",""
"604.6000000238419","","image-keyboard-response","328","969635","0.0-328.0","","img/set1/S4.jpg","74","4","random","74","random,structured_load,structured_normal,structured_incentive","2,1,3,4,2,3","true","",""
"null","","html-keyboard-response","329","969987","0.0-329.0","","<img src=""img/set1/S4.jpg"" width=""540"" height = ""360"" style=""border:16px solid orange"">","null","","","","","","","",""
"null","","html-keyboard-response","330","970190","0.0-330.0","","","null","","","","","","","",""
"459.5","","image-keyboard-response","331","970652","0.0-331.0","","img/set1/S4.jpg","74","4","random","74","random,structured_load,structured_normal,structured_incentive","2,1,3,4,2,3","true","",""
"null","","html-keyboard-response","332","971006","0.0-332.0","","<img src=""img/set1/S4.jpg"" width=""540"" height = ""360"" style=""border:16px solid orange"">","null","","","","","","","",""
"null","","html-keyboard-response","333","971208","0.0-333.0","","","null","","","","","","","",""
"386.5","","image-keyboard-response","334","971595","0.0-334.0","","img/set1/S4.jpg","74","4","random","74","random,structured_load,structured_normal,structured_incentive","2,1,3,4,2,3","true","",""
"null","","html-keyboard-response","335","971947","0.0-335.0","","<img src=""img/set1/S4.jpg"" width=""540"" height = ""360"" style=""border:16px solid orange"">","null","","","","","","","",""
"null","","html-keyboard-response","336","972149","0.0-336.0","","","null","","","","","","","",""
"630.1000000238419","","image-keyboard-response","337","972779","0.0-337.0","","img/set1/S1.jpg","83","1","random","83","random,structured_load,structured_normal,structured_incentive","2,1,3,4,2,3","true","",""
"null","","html-keyboard-response","338","973131","0.0-338.0","","<img src=""img/set1/S1.jpg"" width=""540"" height = ""360"" style=""border:16px solid orange"">","null","","","","","","","",""
"null","","html-keyboard-response","339","973332","0.0-339.0","","","null","","","","","","","",""
"702","","image-keyboard-response","340","974035","0.0-340.0","","img/set1/S3.jpg","72","3","random","72","random,structured_load,structured_normal,structured_incentive","2,1,3,4,2,3","true","",""
"null","","html-keyboard-response","341","974387","0.0-341.0","","<img src=""img/set1/S3.jpg"" width=""540"" height = ""360"" style=""border:16px solid orange"">","null","","","","","","","",""
"null","","html-keyboard-response","342","974588","0.0-342.0","","","null","","","","","","","",""
"598","","image-keyboard-response","343","975187","0.0-343.0","","img/set1/S4.jpg","74","4","random","74","random,structured_load,structured_normal,structured_incentive","2,1,3,4,2,3","true","",""
"null","","html-keyboard-response","344","975545","0.0-344.0","","<img src=""img/set1/S4.jpg"" width=""540"" height = ""360"" style=""border:16px solid orange"">","null","","","","","","","",""
"null","","html-keyboard-response","345","975746","0.0-345.0","","","null","","","","","","","",""
"528.6999999880791","","image-keyboard-response","346","976276","0.0-346.0","","img/set1/S1.jpg","83","1","random","83","random,structured_load,structured_normal,structured_incentive","2,1,3,4,2,3","true","",""
"null","","html-keyboard-response","347","976629","0.0-347.0","","<img src=""img/set1/S1.jpg"" width=""540"" height = ""360"" style=""border:16px solid orange"">","null","","","","","","","",""
"null","","html-keyboard-response","348","976831","0.0-348.0","","","null","","","","","","","",""
"931.5","","image-keyboard-response","349","977764","0.0-349.0","","img/set1/S3.jpg","72","3","random","72","random,structured_load,structured_normal,structured_incentive","2,1,3,4,2,3","true","",""
"null","","html-keyboard-response","350","978116","0.0-350.0","","<img src=""img/set1/S3.jpg"" width=""540"" height = ""360"" style=""border:16px solid orange"">","null","","","","","","","",""
"null","","html-keyboard-response","351","978317","0.0-351.0","","","null","","","","","","","",""
"693.6999999880791","","image-keyboard-response","352","979011","0.0-352.0","","img/set1/S4.jpg","74","4","random","74","random,structured_load,structured_normal,structured_incentive","2,1,3,4,2,3","true","",""
"null","","html-keyboard-response","353","979364","0.0-353.0","","<img src=""img/set1/S4.jpg"" width=""540"" height = ""360"" style=""border:16px solid orange"">","null","","","","","","","",""
"null","","html-keyboard-response","354","979567","0.0-354.0","","","null","","","","","","","",""
"692.0999999642372","","image-keyboard-response","355","980260","0.0-355.0","","img/set1/S3.jpg","72","3","random","72","random,structured_load,structured_normal,structured_incentive","2,1,3,4,2,3","true","",""
"null","","html-keyboard-response","356","980612","0.0-356.0","","<img src=""img/set1/S3.jpg"" width=""540"" height = ""360"" style=""border:16px solid orange"">","null","","","","","","","",""
"null","","html-keyboard-response","357","980814","0.0-357.0","","","null","","","","","","","",""
"580.3000000119209","","image-keyboard-response","358","981396","0.0-358.0","","img/set1/S2.jpg","68","2","random","68","random,structured_load,structured_normal,structured_incentive","2,1,3,4,2,3","true","",""
"null","","html-keyboard-response","359","981749","0.0-359.0","","<img src=""img/set1/S2.jpg"" width=""540"" height = ""360"" style=""border:16px solid orange"">","null","","","","","","","",""
"null","","html-keyboard-response","360","981950","0.0-360.0","","","null","","","","","","","",""
"675.8000000119209","","image-keyboard-response","361","982627","0.0-361.0","","img/set1/S3.jpg","72","3","random","72","random,structured_load,structured_normal,structured_incentive","2,1,3,4,2,3","true","",""
"null","","html-keyboard-response","362","982979","0.0-362.0","","<img src=""img/set1/S3.jpg"" width=""540"" height = ""360"" style=""border:16px solid orange"">","null","","","","","","","",""
"null","","html-keyboard-response","363","983180","0.0-363.0","","","null","","","","","","","",""
"10103","","html-keyboard-response","364","993284","0.0-364.0","","<p class=""center-content"">You have completed a block! </p><p class=""center-content"">Press any key on the keyboard to continue, </p><p class=""center-content"">or wait for the automatic progression to the next block after one minute.</p>","74","","","","","","","",""
"18446.099999964237","","instructions","365","1011731","0.0-365.0","[{""page_index"":0,""viewing_time"":18445.899999976158}]","","","","","","","","","",""
"48543.30000001192","","instructions","366","1060275","0.0-366.0","[{""page_index"":0,""viewing_time"":38583.10000002384},{""page_index"":1,""viewing_time"":9960.100000023842}]","","","","","","","","","",""
"1288.2000000476837","","image-keyboard-response","367","1061564","0.0-367.0","","img/set2/S2.jpg","83","2","structured_load","68","random,structured_load,structured_normal,structured_incentive","2,1,3,4,2,3","false","",""
"null","","html-keyboard-response","368","1061916","0.0-368.0","","<img src=""img/set2/S2.jpg"" width=""540"" height = ""360"">","null","","","","","","","",""
"null","","html-keyboard-response","369","1062117","0.0-369.0","","","null","","","","","","","",""
"813.3999999761581","","image-keyboard-response","370","1062932","0.0-370.0","","img/set2/S1.jpg","83","1","structured_load","83","random,structured_load,structured_normal,structured_incentive","2,1,3,4,2,3","true","",""
"null","","html-keyboard-response","371","1063285","0.0-371.0","","<img src=""img/set2/S1.jpg"" width=""540"" height = ""360"" style=""border:16px solid orange"">","null","","","","","","","",""
"null","","html-keyboard-response","372","1063488","0.0-372.0","","","null","","","","","","","",""
"1218","","image-keyboard-response","373","1064707","0.0-373.0","","img/set2/S4.jpg","68","4","structured_load","74","random,structured_load,structured_normal,structured_incentive","2,1,3,4,2,3","false","",""
"null","","html-keyboard-response","374","1065060","0.0-374.0","","<img src=""img/set2/S4.jpg"" width=""540"" height = ""360"">","null","","","","","","","",""
"null","","html-keyboard-response","375","1065261","0.0-375.0","","","null","","","","","","","",""
"733.0999999642372","","image-keyboard-response","376","1065995","0.0-376.0","","img/set2/S2.jpg","72","2","structured_load","68","random,structured_load,structured_normal,structured_incentive","2,1,3,4,2,3","false","",""
"null","","html-keyboard-response","377","1066347","0.0-377.0","","<img src=""img/set2/S2.jpg"" width=""540"" height = ""360"">","null","","","","","","","",""
"null","","html-keyboard-response","378","1066550","0.0-378.0","","","null","","","","","","","",""
"1236.5999999642372","","image-keyboard-response","379","1067787","0.0-379.0","","img/set2/S1.jpg","83","1","structured_load","83","random,structured_load,structured_normal,structured_incentive","2,1,3,4,2,3","true","",""
"null","","html-keyboard-response","380","1068140","0.0-380.0","","<img src=""img/set2/S1.jpg"" width=""540"" height = ""360"" style=""border:16px solid orange"">","null","","","","","","","",""
"null","","html-keyboard-response","381","1068343","0.0-381.0","","","null","","","","","","","",""
"1554.7000000476837","","image-keyboard-response","382","1069900","0.0-382.0","","img/set2/S2.jpg","72","2","structured_load","68","random,structured_load,structured_normal,structured_incentive","2,1,3,4,2,3","false","",""
"null","","html-keyboard-response","383","1070252","0.0-383.0","","<img src=""img/set2/S2.jpg"" width=""540"" height = ""360"">","null","","","","","","","",""
"null","","html-keyboard-response","384","1070453","0.0-384.0","","","null","","","","","","","",""
"645.9000000357628","","image-keyboard-response","385","1071100","0.0-385.0","","img/set2/S1.jpg","83","1","structured_load","83","random,structured_load,structured_normal,structured_incentive","2,1,3,4,2,3","true","",""
"null","","html-keyboard-response","386","1071452","0.0-386.0","","<img src=""img/set2/S1.jpg"" width=""540"" height = ""360"" style=""border:16px solid orange"">","null","","","","","","","",""
"null","","html-keyboard-response","387","1071655","0.0-387.0","","","null","","","","","","","",""
"763.4000000357628","","image-keyboard-response","388","1072420","0.0-388.0","","img/set2/S4.jpg","68","4","structured_load","74","random,structured_load,structured_normal,structured_incentive","2,1,3,4,2,3","false","",""
"null","","html-keyboard-response","389","1072773","0.0-389.0","","<img src=""img/set2/S4.jpg"" width=""540"" height = ""360"">","null","","","","","","","",""
"null","","html-keyboard-response","390","1072975","0.0-390.0","","","null","","","","","","","",""
"1275.300000011921","","image-keyboard-response","391","1074251","0.0-391.0","","img/set2/S3.jpg","68","3","structured_load","72","random,structured_load,structured_normal,structured_incentive","2,1,3,4,2,3","false","",""
"null","","html-keyboard-response","392","1074603","0.0-392.0","","<img src=""img/set2/S3.jpg"" width=""540"" height = ""360"">","null","","","","","","","",""
"null","","html-keyboard-response","393","1074804","0.0-393.0","","","null","","","","","","","",""
"782.5","","image-keyboard-response","394","1075588","0.0-394.0","","img/set2/S3.jpg","72","3","structured_load","72","random,structured_load,structured_normal,structured_incentive","2,1,3,4,2,3","true","",""
"null","","html-keyboard-response","395","1075940","0.0-395.0","","<img src=""img/set2/S3.jpg"" width=""540"" height = ""360"" style=""border:16px solid orange"">","null","","","","","","","",""
"null","","html-keyboard-response","396","1076141","0.0-396.0","","","null","","","","","","","",""
"860.8000000119209","","image-keyboard-response","397","1077003","0.0-397.0","","img/set2/S2.jpg","74","2","structured_load","68","random,structured_load,structured_normal,structured_incentive","2,1,3,4,2,3","false","",""
"null","","html-keyboard-response","398","1077355","0.0-398.0","","<img src=""img/set2/S2.jpg"" width=""540"" height = ""360"">","null","","","","","","","",""
"null","","html-keyboard-response","399","1077556","0.0-399.0","","","null","","","","","","","",""
"646.1999999880791","","image-keyboard-response","400","1078203","0.0-400.0","","img/set2/S1.jpg","83","1","structured_load","83","random,structured_load,structured_normal,structured_incentive","2,1,3,4,2,3","true","",""
"null","","html-keyboard-response","401","1078555","0.0-401.0","","<img src=""img/set2/S1.jpg"" width=""540"" height = ""360"" style=""border:16px solid orange"">","null","","","","","","","",""
"null","","html-keyboard-response","402","1078756","0.0-402.0","","","null","","","","","","","",""
"1174.4000000357628","","image-keyboard-response","403","1079931","0.0-403.0","","img/set2/S4.jpg","72","4","structured_load","74","random,structured_load,structured_normal,structured_incentive","2,1,3,4,2,3","false","",""
"null","","html-keyboard-response","404","1080284","0.0-404.0","","<img src=""img/set2/S4.jpg"" width=""540"" height = ""360"">","null","","","","","","","",""
"null","","html-keyboard-response","405","1080485","0.0-405.0","","","null","","","","","","","",""
"821.6000000238419","","image-keyboard-response","406","1081307","0.0-406.0","","img/set2/S2.jpg","72","2","structured_load","68","random,structured_load,structured_normal,structured_incentive","2,1,3,4,2,3","false","",""
"null","","html-keyboard-response","407","1081660","0.0-407.0","","<img src=""img/set2/S2.jpg"" width=""540"" height = ""360"">","null","","","","","","","",""
"null","","html-keyboard-response","408","1081862","0.0-408.0","","","null","","","","","","","",""
"547.7000000476837","","image-keyboard-response","409","1082411","0.0-409.0","","img/set2/S1.jpg","83","1","structured_load","83","random,structured_load,structured_normal,structured_incentive","2,1,3,4,2,3","true","",""
"null","","html-keyboard-response","410","1082762","0.0-410.0","","<img src=""img/set2/S1.jpg"" width=""540"" height = ""360"" style=""border:16px solid orange"">","null","","","","","","","",""
"null","","html-keyboard-response","411","1082964","0.0-411.0","","","null","","","","","","","",""
"1174.5","","image-keyboard-response","412","1084139","0.0-412.0","","img/set2/S3.jpg","68","3","structured_load","72","random,structured_load,structured_normal,structured_incentive","2,1,3,4,2,3","false","",""
"null","","html-keyboard-response","413","1084492","0.0-413.0","","<img src=""img/set2/S3.jpg"" width=""540"" height = ""360"">","null","","","","","","","",""
"null","","html-keyboard-response","414","1084694","0.0-414.0","","","null","","","","","","","",""
"820.5","","image-keyboard-response","415","1085515","0.0-415.0","","img/set2/S2.jpg","68","2","structured_load","68","random,structured_load,structured_normal,structured_incentive","2,1,3,4,2,3","true","",""
"null","","html-keyboard-response","416","1085868","0.0-416.0","","<img src=""img/set2/S2.jpg"" width=""540"" height = ""360"" style=""border:16px solid orange"">","null","","","","","","","",""
"null","","html-keyboard-response","417","1086069","0.0-417.0","","","null","","","","","","","",""
"749.1999999880791","","image-keyboard-response","418","1086820","0.0-418.0","","img/set2/S1.jpg","83","1","structured_load","83","random,structured_load,structured_normal,structured_incentive","2,1,3,4,2,3","true","",""
"null","","html-keyboard-response","419","1087172","0.0-419.0","","<img src=""img/set2/S1.jpg"" width=""540"" height = ""360"" style=""border:16px solid orange"">","null","","","","","","","",""
"null","","html-keyboard-response","420","1087374","0.0-420.0","","","null","","","","","","","",""
"444.30000001192093","","image-keyboard-response","421","1087820","0.0-421.0","","img/set2/S2.jpg","68","2","structured_load","68","random,structured_load,structured_normal,structured_incentive","2,1,3,4,2,3","true","",""
"null","","html-keyboard-response","422","1088172","0.0-422.0","","<img src=""img/set2/S2.jpg"" width=""540"" height = ""360"" style=""border:16px solid orange"">","null","","","","","","","",""
"null","","html-keyboard-response","423","1088374","0.0-423.0","","","null","","","","","","","",""
"756.1999999880791","","image-keyboard-response","424","1089132","0.0-424.0","","img/set2/S1.jpg","83","1","structured_load","83","random,structured_load,structured_normal,structured_incentive","2,1,3,4,2,3","true","",""
"null","","html-keyboard-response","425","1089483","0.0-425.0","","<img src=""img/set2/S1.jpg"" width=""540"" height = ""360"" style=""border:16px solid orange"">","null","","","","","","","",""
"null","","html-keyboard-response","426","1089685","0.0-426.0","","","null","","","","","","","",""
"677.2000000476837","","image-keyboard-response","427","1090363","0.0-427.0","","img/set2/S2.jpg","68","2","structured_load","68","random,structured_load,structured_normal,structured_incentive","2,1,3,4,2,3","true","",""
"null","","html-keyboard-response","428","1090716","0.0-428.0","","<img src=""img/set2/S2.jpg"" width=""540"" height = ""360"" style=""border:16px solid orange"">","null","","","","","","","",""
"null","","html-keyboard-response","429","1090918","0.0-429.0","","","null","","","","","","","",""
"500.0999999642372","","image-keyboard-response","430","1091420","0.0-430.0","","img/set2/S1.jpg","83","1","structured_load","83","random,structured_load,structured_normal,structured_incentive","2,1,3,4,2,3","true","",""
"null","","html-keyboard-response","431","1091772","0.0-431.0","","<img src=""img/set2/S1.jpg"" width=""540"" height = ""360"" style=""border:16px solid orange"">","null","","","","","","","",""
"null","","html-keyboard-response","432","1091973","0.0-432.0","","","null","","","","","","","",""
"420.2999999523163","","image-keyboard-response","433","1092395","0.0-433.0","","img/set2/S2.jpg","68","2","structured_load","68","random,structured_load,structured_normal,structured_incentive","2,1,3,4,2,3","true","",""
"null","","html-keyboard-response","434","1092747","0.0-434.0","","<img src=""img/set2/S2.jpg"" width=""540"" height = ""360"" style=""border:16px solid orange"">","null","","","","","","","",""
"null","","html-keyboard-response","435","1092950","0.0-435.0","","","null","","","","","","","",""
"444.69999998807907","","image-keyboard-response","436","1093396","0.0-436.0","","img/set2/S1.jpg","83","1","structured_load","83","random,structured_load,structured_normal,structured_incentive","2,1,3,4,2,3","true","",""
"null","","html-keyboard-response","437","1093748","0.0-437.0","","<img src=""img/set2/S1.jpg"" width=""540"" height = ""360"" style=""border:16px solid orange"">","null","","","","","","","",""
"null","","html-keyboard-response","438","1093949","0.0-438.0","","","null","","","","","","","",""
"565.3000000119209","","image-keyboard-response","439","1094516","0.0-439.0","","img/set2/S3.jpg","72","3","structured_load","72","random,structured_load,structured_normal,structured_incentive","2,1,3,4,2,3","true","",""
"null","","html-keyboard-response","440","1094869","0.0-440.0","","<img src=""img/set2/S3.jpg"" width=""540"" height = ""360"" style=""border:16px solid orange"">","null","","","","","","","",""
"null","","html-keyboard-response","441","1095070","0.0-441.0","","","null","","","","","","","",""
"699.5","","image-keyboard-response","442","1095771","0.0-442.0","","img/set2/S2.jpg","68","2","structured_load","68","random,structured_load,structured_normal,structured_incentive","2,1,3,4,2,3","true","",""
"null","","html-keyboard-response","443","1096123","0.0-443.0","","<img src=""img/set2/S2.jpg"" width=""540"" height = ""360"" style=""border:16px solid orange"">","null","","","","","","","",""
"null","","html-keyboard-response","444","1096324","0.0-444.0","","","null","","","","","","","",""
"494","","image-keyboard-response","445","1096819","0.0-445.0","","img/set2/S1.jpg","83","1","structured_load","83","random,structured_load,structured_normal,structured_incentive","2,1,3,4,2,3","true","",""
"null","","html-keyboard-response","446","1097172","0.0-446.0","","<img src=""img/set2/S1.jpg"" width=""540"" height = ""360"" style=""border:16px solid orange"">","null","","","","","","","",""
"null","","html-keyboard-response","447","1097373","0.0-447.0","","","null","","","","","","","",""
"684.8999999761581","","image-keyboard-response","448","1098059","0.0-448.0","","img/set2/S4.jpg","74","4","structured_load","74","random,structured_load,structured_normal,structured_incentive","2,1,3,4,2,3","true","",""
"null","","html-keyboard-response","449","1098412","0.0-449.0","","<img src=""img/set2/S4.jpg"" width=""540"" height = ""360"" style=""border:16px solid orange"">","null","","","","","","","",""
"null","","html-keyboard-response","450","1098614","0.0-450.0","","","null","","","","","","","",""
"804.1000000238419","","image-keyboard-response","451","1099420","0.0-451.0","","img/set2/S2.jpg","68","2","structured_load","68","random,structured_load,structured_normal,structured_incentive","2,1,3,4,2,3","true","",""
"null","","html-keyboard-response","452","1099772","0.0-452.0","","<img src=""img/set2/S2.jpg"" width=""540"" height = ""360"" style=""border:16px solid orange"">","null","","","","","","","",""
"null","","html-keyboard-response","453","1099973","0.0-453.0","","","null","","","","","","","",""
"564.6000000238419","","image-keyboard-response","454","1100539","0.0-454.0","","img/set2/S1.jpg","83","1","structured_load","83","random,structured_load,structured_normal,structured_incentive","2,1,3,4,2,3","true","",""
"null","","html-keyboard-response","455","1100891","0.0-455.0","","<img src=""img/set2/S1.jpg"" width=""540"" height = ""360"" style=""border:16px solid orange"">","null","","","","","","","",""
"null","","html-keyboard-response","456","1101092","0.0-456.0","","","null","","","","","","","",""
"686.1999999880791","","image-keyboard-response","457","1101780","0.0-457.0","","img/set2/S4.jpg","72","4","structured_load","74","random,structured_load,structured_normal,structured_incentive","2,1,3,4,2,3","false","",""
"null","","html-keyboard-response","458","1102133","0.0-458.0","","<img src=""img/set2/S4.jpg"" width=""540"" height = ""360"">","null","","","","","","","",""
"null","","html-keyboard-response","459","1102335","0.0-459.0","","","null","","","","","","","",""
"786.8000000119209","","image-keyboard-response","460","1103123","0.0-460.0","","img/set2/S3.jpg","72","3","structured_load","72","random,structured_load,structured_normal,structured_incentive","2,1,3,4,2,3","true","",""
"null","","html-keyboard-response","461","1103475","0.0-461.0","","<img src=""img/set2/S3.jpg"" width=""540"" height = ""360"" style=""border:16px solid orange"">","null","","","","","","","",""
"null","","html-keyboard-response","462","1103677","0.0-462.0","","","null","","","","","","","",""
"829.0999999642372","","image-keyboard-response","463","1104507","0.0-463.0","","img/set2/S4.jpg","74","4","structured_load","74","random,structured_load,structured_normal,structured_incentive","2,1,3,4,2,3","true","",""
"null","","html-keyboard-response","464","1104859","0.0-464.0","","<img src=""img/set2/S4.jpg"" width=""540"" height = ""360"" style=""border:16px solid orange"">","null","","","","","","","",""
"null","","html-keyboard-response","465","1105062","0.0-465.0","","","null","","","","","","","",""
"668.3000000119209","","image-keyboard-response","466","1105731","0.0-466.0","","img/set2/S2.jpg","68","2","structured_load","68","random,structured_load,structured_normal,structured_incentive","2,1,3,4,2,3","true","",""
"null","","html-keyboard-response","467","1106084","0.0-467.0","","<img src=""img/set2/S2.jpg"" width=""540"" height = ""360"" style=""border:16px solid orange"">","null","","","","","","","",""
"null","","html-keyboard-response","468","1106285","0.0-468.0","","","null","","","","","","","",""
"581.3000000119209","","image-keyboard-response","469","1106867","0.0-469.0","","img/set2/S1.jpg","83","1","structured_load","83","random,structured_load,structured_normal,structured_incentive","2,1,3,4,2,3","true","",""
"null","","html-keyboard-response","470","1107219","0.0-470.0","","<img src=""img/set2/S1.jpg"" width=""540"" height = ""360"" style=""border:16px solid orange"">","null","","","","","","","",""
"null","","html-keyboard-response","471","1107421","0.0-471.0","","","null","","","","","","","",""
"741.5","","image-keyboard-response","472","1108163","0.0-472.0","","img/set2/S2.jpg","68","2","structured_load","68","random,structured_load,structured_normal,structured_incentive","2,1,3,4,2,3","true","",""
"null","","html-keyboard-response","473","1108515","0.0-473.0","","<img src=""img/set2/S2.jpg"" width=""540"" height = ""360"" style=""border:16px solid orange"">","null","","","","","","","",""
"null","","html-keyboard-response","474","1108717","0.0-474.0","","","null","","","","","","","",""
"589.3000000119209","","image-keyboard-response","475","1109307","0.0-475.0","","img/set2/S1.jpg","83","1","structured_load","83","random,structured_load,structured_normal,structured_incentive","2,1,3,4,2,3","true","",""
"null","","html-keyboard-response","476","1109659","0.0-476.0","","<img src=""img/set2/S1.jpg"" width=""540"" height = ""360"" style=""border:16px solid orange"">","null","","","","","","","",""
"null","","html-keyboard-response","477","1109861","0.0-477.0","","","null","","","","","","","",""
"933.1000000238419","","image-keyboard-response","478","1110796","0.0-478.0","","img/set2/S3.jpg","74","3","structured_load","72","random,structured_load,structured_normal,structured_incentive","2,1,3,4,2,3","false","",""
"null","","html-keyboard-response","479","1111148","0.0-479.0","","<img src=""img/set2/S3.jpg"" width=""540"" height = ""360"">","null","","","","","","","",""
"null","","html-keyboard-response","480","1111351","0.0-480.0","","","null","","","","","","","",""
"635.6000000238419","","image-keyboard-response","481","1111987","0.0-481.0","","img/set2/S3.jpg","72","3","structured_load","72","random,structured_load,structured_normal,structured_incentive","2,1,3,4,2,3","true","",""
"null","","html-keyboard-response","482","1112340","0.0-482.0","","<img src=""img/set2/S3.jpg"" width=""540"" height = ""360"" style=""border:16px solid orange"">","null","","","","","","","",""
"null","","html-keyboard-response","483","1112542","0.0-483.0","","","null","","","","","","","",""
"732.4000000357628","","image-keyboard-response","484","1113275","0.0-484.0","","img/set2/S4.jpg","74","4","structured_load","74","random,structured_load,structured_normal,structured_incentive","2,1,3,4,2,3","true","",""
"null","","html-keyboard-response","485","1113628","0.0-485.0","","<img src=""img/set2/S4.jpg"" width=""540"" height = ""360"" style=""border:16px solid orange"">","null","","","","","","","",""
"null","","html-keyboard-response","486","1113829","0.0-486.0","","","null","","","","","","","",""
"581.1999999880791","","image-keyboard-response","487","1114412","0.0-487.0","","img/set2/S4.jpg","74","4","structured_load","74","random,structured_load,structured_normal,structured_incentive","2,1,3,4,2,3","true","",""
"null","","html-keyboard-response","488","1114764","0.0-488.0","","<img src=""img/set2/S4.jpg"" width=""540"" height = ""360"" style=""border:16px solid orange"">","null","","","","","","","",""
"null","","html-keyboard-response","489","1114965","0.0-489.0","","","null","","","","","","","",""
"685","","image-keyboard-response","490","1115652","0.0-490.0","","img/set2/S3.jpg","72","3","structured_load","72","random,structured_load,structured_normal,structured_incentive","2,1,3,4,2,3","true","",""
"null","","html-keyboard-response","491","1116004","0.0-491.0","","<img src=""img/set2/S3.jpg"" width=""540"" height = ""360"" style=""border:16px solid orange"">","null","","","","","","","",""
"null","","html-keyboard-response","492","1116206","0.0-492.0","","","null","","","","","","","",""
"651.7000000476837","","image-keyboard-response","493","1116859","0.0-493.0","","img/set2/S3.jpg","72","3","structured_load","72","random,structured_load,structured_normal,structured_incentive","2,1,3,4,2,3","true","",""
"null","","html-keyboard-response","494","1117212","0.0-494.0","","<img src=""img/set2/S3.jpg"" width=""540"" height = ""360"" style=""border:16px solid orange"">","null","","","","","","","",""
"null","","html-keyboard-response","495","1117413","0.0-495.0","","","null","","","","","","","",""
"716.5","","image-keyboard-response","496","1118131","0.0-496.0","","img/set2/S2.jpg","68","2","structured_load","68","random,structured_load,structured_normal,structured_incentive","2,1,3,4,2,3","true","",""
"null","","html-keyboard-response","497","1118484","0.0-497.0","","<img src=""img/set2/S2.jpg"" width=""540"" height = ""360"" style=""border:16px solid orange"">","null","","","","","","","",""
"null","","html-keyboard-response","498","1118685","0.0-498.0","","","null","","","","","","","",""
"453.0999999642372","","image-keyboard-response","499","1119139","0.0-499.0","","img/set2/S1.jpg","83","1","structured_load","83","random,structured_load,structured_normal,structured_incentive","2,1,3,4,2,3","true","",""
"null","","html-keyboard-response","500","1119492","0.0-500.0","","<img src=""img/set2/S1.jpg"" width=""540"" height = ""360"" style=""border:16px solid orange"">","null","","","","","","","",""
"null","","html-keyboard-response","501","1119694","0.0-501.0","","","null","","","","","","","",""
"828.4000000357628","","image-keyboard-response","502","1120523","0.0-502.0","","img/set2/S4.jpg","74","4","structured_load","74","random,structured_load,structured_normal,structured_incentive","2,1,3,4,2,3","true","",""
"null","","html-keyboard-response","503","1120875","0.0-503.0","","<img src=""img/set2/S4.jpg"" width=""540"" height = ""360"" style=""border:16px solid orange"">","null","","","","","","","",""
"null","","html-keyboard-response","504","1121077","0.0-504.0","","","null","","","","","","","",""
"773.2999999523163","","image-keyboard-response","505","1121851","0.0-505.0","","img/set2/S3.jpg","72","3","structured_load","72","random,structured_load,structured_normal,structured_incentive","2,1,3,4,2,3","true","",""
"null","","html-keyboard-response","506","1122204","0.0-506.0","","<img src=""img/set2/S3.jpg"" width=""540"" height = ""360"" style=""border:16px solid orange"">","null","","","","","","","",""
"null","","html-keyboard-response","507","1122406","0.0-507.0","","","null","","","","","","","",""
"851.8000000119209","","image-keyboard-response","508","1123259","0.0-508.0","","img/set2/S4.jpg","74","4","structured_load","74","random,structured_load,structured_normal,structured_incentive","2,1,3,4,2,3","true","",""
"null","","html-keyboard-response","509","1123613","0.0-509.0","","<img src=""img/set2/S4.jpg"" width=""540"" height = ""360"" style=""border:16px solid orange"">","null","","","","","","","",""
"null","","html-keyboard-response","510","1123815","0.0-510.0","","","null","","","","","","","",""
"715.6999999880791","","image-keyboard-response","511","1124531","0.0-511.0","","img/set2/S3.jpg","72","3","structured_load","72","random,structured_load,structured_normal,structured_incentive","2,1,3,4,2,3","true","",""
"null","","html-keyboard-response","512","1124883","0.0-512.0","","<img src=""img/set2/S3.jpg"" width=""540"" height = ""360"" style=""border:16px solid orange"">","null","","","","","","","",""
"null","","html-keyboard-response","513","1125084","0.0-513.0","","","null","","","","","","","",""
"701.6000000238419","","image-keyboard-response","514","1125787","0.0-514.0","","img/set2/S2.jpg","68","2","structured_load","68","random,structured_load,structured_normal,structured_incentive","2,1,3,4,2,3","true","",""
"null","","html-keyboard-response","515","1126141","0.0-515.0","","<img src=""img/set2/S2.jpg"" width=""540"" height = ""360"" style=""border:16px solid orange"">","null","","","","","","","",""
"null","","html-keyboard-response","516","1126343","0.0-516.0","","","null","","","","","","","",""
"642.8000000119209","","image-keyboard-response","517","1126987","0.0-517.0","","img/set2/S1.jpg","83","1","structured_load","83","random,structured_load,structured_normal,structured_incentive","2,1,3,4,2,3","true","",""
"null","","html-keyboard-response","518","1127340","0.0-518.0","","<img src=""img/set2/S1.jpg"" width=""540"" height = ""360"" style=""border:16px solid orange"">","null","","","","","","","",""
"null","","html-keyboard-response","519","1127542","0.0-519.0","","","null","","","","","","","",""
"899.8000000119209","","image-keyboard-response","520","1128443","0.0-520.0","","img/set2/S3.jpg","74","3","structured_load","72","random,structured_load,structured_normal,structured_incentive","2,1,3,4,2,3","false","",""
"null","","html-keyboard-response","521","1128794","0.0-521.0","","<img src=""img/set2/S3.jpg"" width=""540"" height = ""360"">","null","","","","","","","",""
"null","","html-keyboard-response","522","1128996","0.0-522.0","","","null","","","","","","","",""
"598.1999999880791","","image-keyboard-response","523","1129595","0.0-523.0","","img/set2/S3.jpg","72","3","structured_load","72","random,structured_load,structured_normal,structured_incentive","2,1,3,4,2,3","true","",""
"null","","html-keyboard-response","524","1129947","0.0-524.0","","<img src=""img/set2/S3.jpg"" width=""540"" height = ""360"" style=""border:16px solid orange"">","null","","","","","","","",""
"null","","html-keyboard-response","525","1130149","0.0-525.0","","","null","","","","","","","",""
"461.5","","image-keyboard-response","526","1130611","0.0-526.0","","img/set2/S3.jpg","72","3","structured_load","72","random,structured_load,structured_normal,structured_incentive","2,1,3,4,2,3","true","",""
"null","","html-keyboard-response","527","1130964","0.0-527.0","","<img src=""img/set2/S3.jpg"" width=""540"" height = ""360"" style=""border:16px solid orange"">","null","","","","","","","",""
"null","","html-keyboard-response","528","1131165","0.0-528.0","","","null","","","","","","","",""
"549.2999999523163","","image-keyboard-response","529","1131715","0.0-529.0","","img/set2/S4.jpg","74","4","structured_load","74","random,structured_load,structured_normal,structured_incentive","2,1,3,4,2,3","true","",""
"null","","html-keyboard-response","530","1132068","0.0-530.0","","<img src=""img/set2/S4.jpg"" width=""540"" height = ""360"" style=""border:16px solid orange"">","null","","","","","","","",""
"null","","html-keyboard-response","531","1132270","0.0-531.0","","","null","","","","","","","",""
"499.4000000357628","","image-keyboard-response","532","1132771","0.0-532.0","","img/set2/S3.jpg","72","3","structured_load","72","random,structured_load,structured_normal,structured_incentive","2,1,3,4,2,3","true","",""
"null","","html-keyboard-response","533","1133122","0.0-533.0","","<img src=""img/set2/S3.jpg"" width=""540"" height = ""360"" style=""border:16px solid orange"">","null","","","","","","","",""
"null","","html-keyboard-response","534","1133324","0.0-534.0","","","null","","","","","","","",""
"621.8999999761581","","image-keyboard-response","535","1133948","0.0-535.0","","img/set2/S2.jpg","68","2","structured_load","68","random,structured_load,structured_normal,structured_incentive","2,1,3,4,2,3","true","",""
"null","","html-keyboard-response","536","1134302","0.0-536.0","","<img src=""img/set2/S2.jpg"" width=""540"" height = ""360"" style=""border:16px solid orange"">","null","","","","","","","",""
"null","","html-keyboard-response","537","1134520","0.0-537.0","","","null","","","","","","","",""
"483","","image-keyboard-response","538","1135004","0.0-538.0","","img/set2/S1.jpg","83","1","structured_load","83","random,structured_load,structured_normal,structured_incentive","2,1,3,4,2,3","true","",""
"null","","html-keyboard-response","539","1135370","0.0-539.0","","<img src=""img/set2/S1.jpg"" width=""540"" height = ""360"" style=""border:16px solid orange"">","null","","","","","","","",""
"null","","html-keyboard-response","540","1135571","0.0-540.0","","","null","","","","","","","",""
"766.8000000119209","","image-keyboard-response","541","1136339","0.0-541.0","","img/set2/S3.jpg","72","3","structured_load","72","random,structured_load,structured_normal,structured_incentive","2,1,3,4,2,3","true","",""
"null","","html-keyboard-response","542","1136692","0.0-542.0","","<img src=""img/set2/S3.jpg"" width=""540"" height = ""360"" style=""border:16px solid orange"">","null","","","","","","","",""
"null","","html-keyboard-response","543","1136894","0.0-543.0","","","null","","","","","","","",""
"507.69999998807907","","image-keyboard-response","544","1137403","0.0-544.0","","img/set2/S4.jpg","74","4","structured_load","74","random,structured_load,structured_normal,structured_incentive","2,1,3,4,2,3","true","",""
"null","","html-keyboard-response","545","1137755","0.0-545.0","","<img src=""img/set2/S4.jpg"" width=""540"" height = ""360"" style=""border:16px solid orange"">","null","","","","","","","",""
"null","","html-keyboard-response","546","1137956","0.0-546.0","","","null","","","","","","","",""
"438.0999999642372","","image-keyboard-response","547","1138395","0.0-547.0","","img/set2/S4.jpg","74","4","structured_load","74","random,structured_load,structured_normal,structured_incentive","2,1,3,4,2,3","true","",""
"null","","html-keyboard-response","548","1138747","0.0-548.0","","<img src=""img/set2/S4.jpg"" width=""540"" height = ""360"" style=""border:16px solid orange"">","null","","","","","","","",""
"null","","html-keyboard-response","549","1138949","0.0-549.0","","","null","","","","","","","",""
"517.5999999642372","","image-keyboard-response","550","1139468","0.0-550.0","","img/set2/S3.jpg","72","3","structured_load","72","random,structured_load,structured_normal,structured_incentive","2,1,3,4,2,3","true","",""
"null","","html-keyboard-response","551","1139836","0.0-551.0","","<img src=""img/set2/S3.jpg"" width=""540"" height = ""360"" style=""border:16px solid orange"">","null","","","","","","","",""
"null","","html-keyboard-response","552","1140039","0.0-552.0","","","null","","","","","","","",""
"499.0999999642372","","image-keyboard-response","553","1140539","0.0-553.0","","img/set2/S3.jpg","72","3","structured_load","72","random,structured_load,structured_normal,structured_incentive","2,1,3,4,2,3","true","",""
"null","","html-keyboard-response","554","1140892","0.0-554.0","","<img src=""img/set2/S3.jpg"" width=""540"" height = ""360"" style=""border:16px solid orange"">","null","","","","","","","",""
"null","","html-keyboard-response","555","1141094","0.0-555.0","","","null","","","","","","","",""
"572.6999999880791","","image-keyboard-response","556","1141667","0.0-556.0","","img/set2/S3.jpg","72","3","structured_load","72","random,structured_load,structured_normal,structured_incentive","2,1,3,4,2,3","true","",""
"null","","html-keyboard-response","557","1142020","0.0-557.0","","<img src=""img/set2/S3.jpg"" width=""540"" height = ""360"" style=""border:16px solid orange"">","null","","","","","","","",""
"null","","html-keyboard-response","558","1142222","0.0-558.0","","","null","","","","","","","",""
"763.7999999523163","","image-keyboard-response","559","1142987","0.0-559.0","","img/set2/S2.jpg","68","2","structured_load","68","random,structured_load,structured_normal,structured_incentive","2,1,3,4,2,3","true","",""
"null","","html-keyboard-response","560","1143339","0.0-560.0","","<img src=""img/set2/S2.jpg"" width=""540"" height = ""360"" style=""border:16px solid orange"">","null","","","","","","","",""
"null","","html-keyboard-response","561","1143541","0.0-561.0","","","null","","","","","","","",""
"413.5","","image-keyboard-response","562","1143956","0.0-562.0","","img/set2/S1.jpg","83","1","structured_load","83","random,structured_load,structured_normal,structured_incentive","2,1,3,4,2,3","true","",""
"null","","html-keyboard-response","563","1144308","0.0-563.0","","<img src=""img/set2/S1.jpg"" width=""540"" height = ""360"" style=""border:16px solid orange"">","null","","","","","","","",""
"null","","html-keyboard-response","564","1144510","0.0-564.0","","","null","","","","","","","",""
"596.1999999880791","","image-keyboard-response","565","1145108","0.0-565.0","","img/set2/S3.jpg","72","3","structured_load","72","random,structured_load,structured_normal,structured_incentive","2,1,3,4,2,3","true","",""
"null","","html-keyboard-response","566","1145461","0.0-566.0","","<img src=""img/set2/S3.jpg"" width=""540"" height = ""360"" style=""border:16px solid orange"">","null","","","","","","","",""
"null","","html-keyboard-response","567","1145663","0.0-567.0","","","null","","","","","","","",""
"466.80000001192093","","image-keyboard-response","568","1146131","0.0-568.0","","img/set2/S3.jpg","72","3","structured_load","72","random,structured_load,structured_normal,structured_incentive","2,1,3,4,2,3","true","",""
"null","","html-keyboard-response","569","1146483","0.0-569.0","","<img src=""img/set2/S3.jpg"" width=""540"" height = ""360"" style=""border:16px solid orange"">","null","","","","","","","",""
"null","","html-keyboard-response","570","1146685","0.0-570.0","","","null","","","","","","","",""
"613.5","","image-keyboard-response","571","1147299","0.0-571.0","","img/set2/S4.jpg","74","4","structured_load","74","random,structured_load,structured_normal,structured_incentive","2,1,3,4,2,3","true","",""
"null","","html-keyboard-response","572","1147651","0.0-572.0","","<img src=""img/set2/S4.jpg"" width=""540"" height = ""360"" style=""border:16px solid orange"">","null","","","","","","","",""
"null","","html-keyboard-response","573","1147853","0.0-573.0","","","null","","","","","","","",""
"389.5","","image-keyboard-response","574","1148243","0.0-574.0","","img/set2/S3.jpg","72","3","structured_load","72","random,structured_load,structured_normal,structured_incentive","2,1,3,4,2,3","true","",""
"null","","html-keyboard-response","575","1148596","0.0-575.0","","<img src=""img/set2/S3.jpg"" width=""540"" height = ""360"" style=""border:16px solid orange"">","null","","","","","","","",""
"null","","html-keyboard-response","576","1148798","0.0-576.0","","","null","","","","","","","",""
"764.5999999642372","","image-keyboard-response","577","1149564","0.0-577.0","","img/set2/S4.jpg","74","4","structured_load","74","random,structured_load,structured_normal,structured_incentive","2,1,3,4,2,3","true","",""
"null","","html-keyboard-response","578","1149917","0.0-578.0","","<img src=""img/set2/S4.jpg"" width=""540"" height = ""360"" style=""border:16px solid orange"">","null","","","","","","","",""
"null","","html-keyboard-response","579","1150119","0.0-579.0","","","null","","","","","","","",""
"610.6000000238419","","image-keyboard-response","580","1150731","0.0-580.0","","img/set2/S2.jpg","68","2","structured_load","68","random,structured_load,structured_normal,structured_incentive","2,1,3,4,2,3","true","",""
"null","","html-keyboard-response","581","1151083","0.0-581.0","","<img src=""img/set2/S2.jpg"" width=""540"" height = ""360"" style=""border:16px solid orange"">","null","","","","","","","",""
"null","","html-keyboard-response","582","1151284","0.0-582.0","","","null","","","","","","","",""
"398.30000001192093","","image-keyboard-response","583","1151684","0.0-583.0","","img/set2/S1.jpg","83","1","structured_load","83","random,structured_load,structured_normal,structured_incentive","2,1,3,4,2,3","true","",""
"null","","html-keyboard-response","584","1152036","0.0-584.0","","<img src=""img/set2/S1.jpg"" width=""540"" height = ""360"" style=""border:16px solid orange"">","null","","","","","","","",""
"null","","html-keyboard-response","585","1152239","0.0-585.0","","","null","","","","","","","",""
"1107.3999999761581","","image-keyboard-response","586","1153347","0.0-586.0","","img/set2/S3.jpg","72","3","structured_load","72","random,structured_load,structured_normal,structured_incentive","2,1,3,4,2,3","true","",""
"null","","html-keyboard-response","587","1153699","0.0-587.0","","<img src=""img/set2/S3.jpg"" width=""540"" height = ""360"" style=""border:16px solid orange"">","null","","","","","","","",""
"null","","html-keyboard-response","588","1153901","0.0-588.0","","","null","","","","","","","",""
"637.0999999642372","","image-keyboard-response","589","1154540","0.0-589.0","","img/set2/S2.jpg","68","2","structured_load","68","random,structured_load,structured_normal,structured_incentive","2,1,3,4,2,3","true","",""
