"rt","url","trial_type","trial_index","time_elapsed","internal_node_id","assignmentID","mturkID","hitID","view_history","stimulus","key_press","state","test_part","correct_response","order_block","order_chunk","order_freq","correct","responses","question_order","bonus"
"4218.100000023842","consent.html","external-html","0","4294","0.0-0.0","317HQ483I8EP6IQY3BVM68LIM4ONIA","A2B6WQG0A9CKXQ","3RSBJ6YZECCLSSQQCGKCTHC9OPAFOK","","","","","","","","","","","","",""
"54986.40000000596","","instructions","1","59282","0.0-1.0","317HQ483I8EP6IQY3BVM68LIM4ONIA","A2B6WQG0A9CKXQ","3RSBJ6YZECCLSSQQCGKCTHC9OPAFOK","[{""page_index"":0,""viewing_time"":3169.7999999821186},{""page_index"":1,""viewing_time"":6088.100000023842},{""page_index"":2,""viewing_time"":9837.699999988079},{""page_index"":3,""viewing_time"":13401.800000011921},{""page_index"":4,""viewing_time"":4464.199999988079},{""page_index"":5,""viewing_time"":7027.800000011921},{""page_index"":6,""viewing_time"":10996.09999999404}]","","","","","","","","","","","",""
"4544.5","","instructions","2","63827","0.0-2.0","317HQ483I8EP6IQY3BVM68LIM4ONIA","A2B6WQG0A9CKXQ","3RSBJ6YZECCLSSQQCGKCTHC9OPAFOK","[{""page_index"":0,""viewing_time"":4544.300000011921}]","","","","","","","","","","","",""
"3101","","instructions","3","66929","0.0-3.0","317HQ483I8EP6IQY3BVM68LIM4ONIA","A2B6WQG0A9CKXQ","3RSBJ6YZECCLSSQQCGKCTHC9OPAFOK","[{""page_index"":0,""viewing_time"":3100.7999999821186}]","","","","","","","","","","","",""
"1442.699999988079","","image-keyboard-response","4","68373","0.0-4.0","317HQ483I8EP6IQY3BVM68LIM4ONIA","A2B6WQG0A9CKXQ","3RSBJ6YZECCLSSQQCGKCTHC9OPAFOK","","img/set1/S4.jpg","83","4","random","74","random,structured_incentive,structured_normal,structured_load","2,3,4,2,1,2","1,2,3,4","false","","",""
"null","","html-keyboard-response","5","68726","0.0-5.0","317HQ483I8EP6IQY3BVM68LIM4ONIA","A2B6WQG0A9CKXQ","3RSBJ6YZECCLSSQQCGKCTHC9OPAFOK","","<img src=""img/set1/S4.jpg"" width=""540"" height = ""360"">","null","","","","","","","","","",""
"null","","html-keyboard-response","6","68930","0.0-6.0","317HQ483I8EP6IQY3BVM68LIM4ONIA","A2B6WQG0A9CKXQ","3RSBJ6YZECCLSSQQCGKCTHC9OPAFOK","","","null","","","","","","","","","",""
"955.5999999940395","","image-keyboard-response","7","69886","0.0-7.0","317HQ483I8EP6IQY3BVM68LIM4ONIA","A2B6WQG0A9CKXQ","3RSBJ6YZECCLSSQQCGKCTHC9OPAFOK","","img/set1/S4.jpg","83","4","random","74","random,structured_incentive,structured_normal,structured_load","2,3,4,2,1,2","1,2,3,4","false","","",""
"null","","html-keyboard-response","8","70239","0.0-8.0","317HQ483I8EP6IQY3BVM68LIM4ONIA","A2B6WQG0A9CKXQ","3RSBJ6YZECCLSSQQCGKCTHC9OPAFOK","","<img src=""img/set1/S4.jpg"" width=""540"" height = ""360"">","null","","","","","","","","","",""
"null","","html-keyboard-response","9","70441","0.0-9.0","317HQ483I8EP6IQY3BVM68LIM4ONIA","A2B6WQG0A9CKXQ","3RSBJ6YZECCLSSQQCGKCTHC9OPAFOK","","","null","","","","","","","","","",""
"1027.699999988079","","image-keyboard-response","10","71470","0.0-10.0","317HQ483I8EP6IQY3BVM68LIM4ONIA","A2B6WQG0A9CKXQ","3RSBJ6YZECCLSSQQCGKCTHC9OPAFOK","","img/set1/S2.jpg","83","2","random","68","random,structured_incentive,structured_normal,structured_load","2,3,4,2,1,2","1,2,3,4","false","","",""
"null","","html-keyboard-response","11","71823","0.0-11.0","317HQ483I8EP6IQY3BVM68LIM4ONIA","A2B6WQG0A9CKXQ","3RSBJ6YZECCLSSQQCGKCTHC9OPAFOK","","<img src=""img/set1/S2.jpg"" width=""540"" height = ""360"">","null","","","","","","","","","",""
"null","","html-keyboard-response","12","72025","0.0-12.0","317HQ483I8EP6IQY3BVM68LIM4ONIA","A2B6WQG0A9CKXQ","3RSBJ6YZECCLSSQQCGKCTHC9OPAFOK","","","null","","","","","","","","","",""
"1124.8999999761581","","image-keyboard-response","13","73151","0.0-13.0","317HQ483I8EP6IQY3BVM68LIM4ONIA","A2B6WQG0A9CKXQ","3RSBJ6YZECCLSSQQCGKCTHC9OPAFOK","","img/set1/S1.jpg","83","1","random","83","random,structured_incentive,structured_normal,structured_load","2,3,4,2,1,2","1,2,3,4","true","","",""
"null","","html-keyboard-response","14","73503","0.0-14.0","317HQ483I8EP6IQY3BVM68LIM4ONIA","A2B6WQG0A9CKXQ","3RSBJ6YZECCLSSQQCGKCTHC9OPAFOK","","<img src=""img/set1/S1.jpg"" width=""540"" height = ""360"" style=""border:16px solid orange"">","null","","","","","","","","","",""
"null","","html-keyboard-response","15","73705","0.0-15.0","317HQ483I8EP6IQY3BVM68LIM4ONIA","A2B6WQG0A9CKXQ","3RSBJ6YZECCLSSQQCGKCTHC9OPAFOK","","","null","","","","","","","","","",""
"874.2000000178814","","image-keyboard-response","16","74581","0.0-16.0","317HQ483I8EP6IQY3BVM68LIM4ONIA","A2B6WQG0A9CKXQ","3RSBJ6YZECCLSSQQCGKCTHC9OPAFOK","","img/set1/S1.jpg","83","1","random","83","random,structured_incentive,structured_normal,structured_load","2,3,4,2,1,2","1,2,3,4","true","","",""
"null","","html-keyboard-response","17","74932","0.0-17.0","317HQ483I8EP6IQY3BVM68LIM4ONIA","A2B6WQG0A9CKXQ","3RSBJ6YZECCLSSQQCGKCTHC9OPAFOK","","<img src=""img/set1/S1.jpg"" width=""540"" height = ""360"" style=""border:16px solid orange"">","null","","","","","","","","","",""
"null","","html-keyboard-response","18","75135","0.0-18.0","317HQ483I8EP6IQY3BVM68LIM4ONIA","A2B6WQG0A9CKXQ","3RSBJ6YZECCLSSQQCGKCTHC9OPAFOK","","","null","","","","","","","","","",""
"989.7000000178814","","image-keyboard-response","19","76125","0.0-19.0","317HQ483I8EP6IQY3BVM68LIM4ONIA","A2B6WQG0A9CKXQ","3RSBJ6YZECCLSSQQCGKCTHC9OPAFOK","","img/set1/S4.jpg","68","4","random","74","random,structured_incentive,structured_normal,structured_load","2,3,4,2,1,2","1,2,3,4","false","","",""
"null","","html-keyboard-response","20","76478","0.0-20.0","317HQ483I8EP6IQY3BVM68LIM4ONIA","A2B6WQG0A9CKXQ","3RSBJ6YZECCLSSQQCGKCTHC9OPAFOK","","<img src=""img/set1/S4.jpg"" width=""540"" height = ""360"">","null","","","","","","","","","",""
"null","","html-keyboard-response","21","76679","0.0-21.0","317HQ483I8EP6IQY3BVM68LIM4ONIA","A2B6WQG0A9CKXQ","3RSBJ6YZECCLSSQQCGKCTHC9OPAFOK","","","null","","","","","","","","","",""
"1028.4000000059605","","image-keyboard-response","22","77709","0.0-22.0","317HQ483I8EP6IQY3BVM68LIM4ONIA","A2B6WQG0A9CKXQ","3RSBJ6YZECCLSSQQCGKCTHC9OPAFOK","","img/set1/S4.jpg","74","4","random","74","random,structured_incentive,structured_normal,structured_load","2,3,4,2,1,2","1,2,3,4","true","","",""
"null","","html-keyboard-response","23","78061","0.0-23.0","317HQ483I8EP6IQY3BVM68LIM4ONIA","A2B6WQG0A9CKXQ","3RSBJ6YZECCLSSQQCGKCTHC9OPAFOK","","<img src=""img/set1/S4.jpg"" width=""540"" height = ""360"" style=""border:16px solid orange"">","null","","","","","","","","","",""
"null","","html-keyboard-response","24","78264","0.0-24.0","317HQ483I8EP6IQY3BVM68LIM4ONIA","A2B6WQG0A9CKXQ","3RSBJ6YZECCLSSQQCGKCTHC9OPAFOK","","","null","","","","","","","","","",""
"780.2999999821186","","image-keyboard-response","25","79046","0.0-25.0","317HQ483I8EP6IQY3BVM68LIM4ONIA","A2B6WQG0A9CKXQ","3RSBJ6YZECCLSSQQCGKCTHC9OPAFOK","","img/set1/S4.jpg","74","4","random","74","random,structured_incentive,structured_normal,structured_load","2,3,4,2,1,2","1,2,3,4","true","","",""
"null","","html-keyboard-response","26","79399","0.0-26.0","317HQ483I8EP6IQY3BVM68LIM4ONIA","A2B6WQG0A9CKXQ","3RSBJ6YZECCLSSQQCGKCTHC9OPAFOK","","<img src=""img/set1/S4.jpg"" width=""540"" height = ""360"" style=""border:16px solid orange"">","null","","","","","","","","","",""
"null","","html-keyboard-response","27","79601","0.0-27.0","317HQ483I8EP6IQY3BVM68LIM4ONIA","A2B6WQG0A9CKXQ","3RSBJ6YZECCLSSQQCGKCTHC9OPAFOK","","","null","","","","","","","","","",""
"915","","image-keyboard-response","28","80517","0.0-28.0","317HQ483I8EP6IQY3BVM68LIM4ONIA","A2B6WQG0A9CKXQ","3RSBJ6YZECCLSSQQCGKCTHC9OPAFOK","","img/set1/S2.jpg","68","2","random","68","random,structured_incentive,structured_normal,structured_load","2,3,4,2,1,2","1,2,3,4","true","","",""
"null","","html-keyboard-response","29","80868","0.0-29.0","317HQ483I8EP6IQY3BVM68LIM4ONIA","A2B6WQG0A9CKXQ","3RSBJ6YZECCLSSQQCGKCTHC9OPAFOK","","<img src=""img/set1/S2.jpg"" width=""540"" height = ""360"" style=""border:16px solid orange"">","null","","","","","","","","","",""
"null","","html-keyboard-response","30","81071","0.0-30.0","317HQ483I8EP6IQY3BVM68LIM4ONIA","A2B6WQG0A9CKXQ","3RSBJ6YZECCLSSQQCGKCTHC9OPAFOK","","","null","","","","","","","","","",""
"null","","image-keyboard-response","31","83574","0.0-31.0","317HQ483I8EP6IQY3BVM68LIM4ONIA","A2B6WQG0A9CKXQ","3RSBJ6YZECCLSSQQCGKCTHC9OPAFOK","","img/set1/S3.jpg","null","3","random","72","random,structured_incentive,structured_normal,structured_load","2,3,4,2,1,2","1,2,3,4","false","","",""
"null","","html-keyboard-response","32","83927","0.0-32.0","317HQ483I8EP6IQY3BVM68LIM4ONIA","A2B6WQG0A9CKXQ","3RSBJ6YZECCLSSQQCGKCTHC9OPAFOK","","<img src=""img/set1/S3.jpg"" width=""540"" height = ""360"">","null","","","","","","","","","",""
"null","","html-keyboard-response","33","84128","0.0-33.0","317HQ483I8EP6IQY3BVM68LIM4ONIA","A2B6WQG0A9CKXQ","3RSBJ6YZECCLSSQQCGKCTHC9OPAFOK","","","null","","","","","","","","","",""
"971.7000000178814","","image-keyboard-response","34","85101","0.0-34.0","317HQ483I8EP6IQY3BVM68LIM4ONIA","A2B6WQG0A9CKXQ","3RSBJ6YZECCLSSQQCGKCTHC9OPAFOK","","img/set1/S3.jpg","83","3","random","72","random,structured_incentive,structured_normal,structured_load","2,3,4,2,1,2","1,2,3,4","false","","",""
"null","","html-keyboard-response","35","85453","0.0-35.0","317HQ483I8EP6IQY3BVM68LIM4ONIA","A2B6WQG0A9CKXQ","3RSBJ6YZECCLSSQQCGKCTHC9OPAFOK","","<img src=""img/set1/S3.jpg"" width=""540"" height = ""360"">","null","","","","","","","","","",""
"null","","html-keyboard-response","36","85655","0.0-36.0","317HQ483I8EP6IQY3BVM68LIM4ONIA","A2B6WQG0A9CKXQ","3RSBJ6YZECCLSSQQCGKCTHC9OPAFOK","","","null","","","","","","","","","",""
"789.7999999821186","","image-keyboard-response","37","86446","0.0-37.0","317HQ483I8EP6IQY3BVM68LIM4ONIA","A2B6WQG0A9CKXQ","3RSBJ6YZECCLSSQQCGKCTHC9OPAFOK","","img/set1/S2.jpg","68","2","random","68","random,structured_incentive,structured_normal,structured_load","2,3,4,2,1,2","1,2,3,4","true","","",""
"null","","html-keyboard-response","38","86799","0.0-38.0","317HQ483I8EP6IQY3BVM68LIM4ONIA","A2B6WQG0A9CKXQ","3RSBJ6YZECCLSSQQCGKCTHC9OPAFOK","","<img src=""img/set1/S2.jpg"" width=""540"" height = ""360"" style=""border:16px solid orange"">","null","","","","","","","","","",""
"null","","html-keyboard-response","39","87001","0.0-39.0","317HQ483I8EP6IQY3BVM68LIM4ONIA","A2B6WQG0A9CKXQ","3RSBJ6YZECCLSSQQCGKCTHC9OPAFOK","","","null","","","","","","","","","",""
"507.7000000178814","","image-keyboard-response","40","87510","0.0-40.0","317HQ483I8EP6IQY3BVM68LIM4ONIA","A2B6WQG0A9CKXQ","3RSBJ6YZECCLSSQQCGKCTHC9OPAFOK","","img/set1/S2.jpg","68","2","random","68","random,structured_incentive,structured_normal,structured_load","2,3,4,2,1,2","1,2,3,4","true","","",""
"null","","html-keyboard-response","41","87862","0.0-41.0","317HQ483I8EP6IQY3BVM68LIM4ONIA","A2B6WQG0A9CKXQ","3RSBJ6YZECCLSSQQCGKCTHC9OPAFOK","","<img src=""img/set1/S2.jpg"" width=""540"" height = ""360"" style=""border:16px solid orange"">","null","","","","","","","","","",""
"null","","html-keyboard-response","42","88065","0.0-42.0","317HQ483I8EP6IQY3BVM68LIM4ONIA","A2B6WQG0A9CKXQ","3RSBJ6YZECCLSSQQCGKCTHC9OPAFOK","","","null","","","","","","","","","",""
"899.3000000119209","","image-keyboard-response","43","88966","0.0-43.0","317HQ483I8EP6IQY3BVM68LIM4ONIA","A2B6WQG0A9CKXQ","3RSBJ6YZECCLSSQQCGKCTHC9OPAFOK","","img/set1/S4.jpg","74","4","random","74","random,structured_incentive,structured_normal,structured_load","2,3,4,2,1,2","1,2,3,4","true","","",""
"null","","html-keyboard-response","44","89320","0.0-44.0","317HQ483I8EP6IQY3BVM68LIM4ONIA","A2B6WQG0A9CKXQ","3RSBJ6YZECCLSSQQCGKCTHC9OPAFOK","","<img src=""img/set1/S4.jpg"" width=""540"" height = ""360"" style=""border:16px solid orange"">","null","","","","","","","","","",""
"null","","html-keyboard-response","45","89521","0.0-45.0","317HQ483I8EP6IQY3BVM68LIM4ONIA","A2B6WQG0A9CKXQ","3RSBJ6YZECCLSSQQCGKCTHC9OPAFOK","","","null","","","","","","","","","",""
"null","","image-keyboard-response","46","92025","0.0-46.0","317HQ483I8EP6IQY3BVM68LIM4ONIA","A2B6WQG0A9CKXQ","3RSBJ6YZECCLSSQQCGKCTHC9OPAFOK","","img/set1/S3.jpg","null","3","random","72","random,structured_incentive,structured_normal,structured_load","2,3,4,2,1,2","1,2,3,4","false","","",""
"null","","html-keyboard-response","47","92377","0.0-47.0","317HQ483I8EP6IQY3BVM68LIM4ONIA","A2B6WQG0A9CKXQ","3RSBJ6YZECCLSSQQCGKCTHC9OPAFOK","","<img src=""img/set1/S3.jpg"" width=""540"" height = ""360"">","null","","","","","","","","","",""
"null","","html-keyboard-response","48","92579","0.0-48.0","317HQ483I8EP6IQY3BVM68LIM4ONIA","A2B6WQG0A9CKXQ","3RSBJ6YZECCLSSQQCGKCTHC9OPAFOK","","","null","","","","","","","","","",""
"1032.800000011921","","image-keyboard-response","49","93613","0.0-49.0","317HQ483I8EP6IQY3BVM68LIM4ONIA","A2B6WQG0A9CKXQ","3RSBJ6YZECCLSSQQCGKCTHC9OPAFOK","","img/set1/S1.jpg","74","1","random","83","random,structured_incentive,structured_normal,structured_load","2,3,4,2,1,2","1,2,3,4","false","","",""
"null","","html-keyboard-response","50","93967","0.0-50.0","317HQ483I8EP6IQY3BVM68LIM4ONIA","A2B6WQG0A9CKXQ","3RSBJ6YZECCLSSQQCGKCTHC9OPAFOK","","<img src=""img/set1/S1.jpg"" width=""540"" height = ""360"">","null","","","","","","","","","",""
"null","","html-keyboard-response","51","94169","0.0-51.0","317HQ483I8EP6IQY3BVM68LIM4ONIA","A2B6WQG0A9CKXQ","3RSBJ6YZECCLSSQQCGKCTHC9OPAFOK","","","null","","","","","","","","","",""
"1612.300000011921","","image-keyboard-response","52","95783","0.0-52.0","317HQ483I8EP6IQY3BVM68LIM4ONIA","A2B6WQG0A9CKXQ","3RSBJ6YZECCLSSQQCGKCTHC9OPAFOK","","img/set1/S4.jpg","68","4","random","74","random,structured_incentive,structured_normal,structured_load","2,3,4,2,1,2","1,2,3,4","false","","",""
"null","","html-keyboard-response","53","96135","0.0-53.0","317HQ483I8EP6IQY3BVM68LIM4ONIA","A2B6WQG0A9CKXQ","3RSBJ6YZECCLSSQQCGKCTHC9OPAFOK","","<img src=""img/set1/S4.jpg"" width=""540"" height = ""360"">","null","","","","","","","","","",""
"null","","html-keyboard-response","54","96337","0.0-54.0","317HQ483I8EP6IQY3BVM68LIM4ONIA","A2B6WQG0A9CKXQ","3RSBJ6YZECCLSSQQCGKCTHC9OPAFOK","","","null","","","","","","","","","",""
"1276","","image-keyboard-response","55","97614","0.0-55.0","317HQ483I8EP6IQY3BVM68LIM4ONIA","A2B6WQG0A9CKXQ","3RSBJ6YZECCLSSQQCGKCTHC9OPAFOK","","img/set1/S3.jpg","68","3","random","72","random,structured_incentive,structured_normal,structured_load","2,3,4,2,1,2","1,2,3,4","false","","",""
"null","","html-keyboard-response","56","97966","0.0-56.0","317HQ483I8EP6IQY3BVM68LIM4ONIA","A2B6WQG0A9CKXQ","3RSBJ6YZECCLSSQQCGKCTHC9OPAFOK","","<img src=""img/set1/S3.jpg"" width=""540"" height = ""360"">","null","","","","","","","","","",""
"null","","html-keyboard-response","57","98167","0.0-57.0","317HQ483I8EP6IQY3BVM68LIM4ONIA","A2B6WQG0A9CKXQ","3RSBJ6YZECCLSSQQCGKCTHC9OPAFOK","","","null","","","","","","","","","",""
"1014","","image-keyboard-response","58","99182","0.0-58.0","317HQ483I8EP6IQY3BVM68LIM4ONIA","A2B6WQG0A9CKXQ","3RSBJ6YZECCLSSQQCGKCTHC9OPAFOK","","img/set1/S3.jpg","83","3","random","72","random,structured_incentive,structured_normal,structured_load","2,3,4,2,1,2","1,2,3,4","false","","",""
"null","","html-keyboard-response","59","99535","0.0-59.0","317HQ483I8EP6IQY3BVM68LIM4ONIA","A2B6WQG0A9CKXQ","3RSBJ6YZECCLSSQQCGKCTHC9OPAFOK","","<img src=""img/set1/S3.jpg"" width=""540"" height = ""360"">","null","","","","","","","","","",""
"null","","html-keyboard-response","60","99736","0.0-60.0","317HQ483I8EP6IQY3BVM68LIM4ONIA","A2B6WQG0A9CKXQ","3RSBJ6YZECCLSSQQCGKCTHC9OPAFOK","","","null","","","","","","","","","",""
"2076.2000000178814","","image-keyboard-response","61","101813","0.0-61.0","317HQ483I8EP6IQY3BVM68LIM4ONIA","A2B6WQG0A9CKXQ","3RSBJ6YZECCLSSQQCGKCTHC9OPAFOK","","img/set1/S3.jpg","74","3","random","72","random,structured_incentive,structured_normal,structured_load","2,3,4,2,1,2","1,2,3,4","false","","",""
"null","","html-keyboard-response","62","102165","0.0-62.0","317HQ483I8EP6IQY3BVM68LIM4ONIA","A2B6WQG0A9CKXQ","3RSBJ6YZECCLSSQQCGKCTHC9OPAFOK","","<img src=""img/set1/S3.jpg"" width=""540"" height = ""360"">","null","","","","","","","","","",""
"null","","html-keyboard-response","63","102367","0.0-63.0","317HQ483I8EP6IQY3BVM68LIM4ONIA","A2B6WQG0A9CKXQ","3RSBJ6YZECCLSSQQCGKCTHC9OPAFOK","","","null","","","","","","","","","",""
"2013.4000000059605","","image-keyboard-response","64","104382","0.0-64.0","317HQ483I8EP6IQY3BVM68LIM4ONIA","A2B6WQG0A9CKXQ","3RSBJ6YZECCLSSQQCGKCTHC9OPAFOK","","img/set1/S1.jpg","68","1","random","83","random,structured_incentive,structured_normal,structured_load","2,3,4,2,1,2","1,2,3,4","false","","",""
"null","","html-keyboard-response","65","104735","0.0-65.0","317HQ483I8EP6IQY3BVM68LIM4ONIA","A2B6WQG0A9CKXQ","3RSBJ6YZECCLSSQQCGKCTHC9OPAFOK","","<img src=""img/set1/S1.jpg"" width=""540"" height = ""360"">","null","","","","","","","","","",""
"null","","html-keyboard-response","66","104937","0.0-66.0","317HQ483I8EP6IQY3BVM68LIM4ONIA","A2B6WQG0A9CKXQ","3RSBJ6YZECCLSSQQCGKCTHC9OPAFOK","","","null","","","","","","","","","",""
"715.5","","image-keyboard-response","67","105654","0.0-67.0","317HQ483I8EP6IQY3BVM68LIM4ONIA","A2B6WQG0A9CKXQ","3RSBJ6YZECCLSSQQCGKCTHC9OPAFOK","","img/set1/S3.jpg","74","3","random","72","random,structured_incentive,structured_normal,structured_load","2,3,4,2,1,2","1,2,3,4","false","","",""
"null","","html-keyboard-response","68","106006","0.0-68.0","317HQ483I8EP6IQY3BVM68LIM4ONIA","A2B6WQG0A9CKXQ","3RSBJ6YZECCLSSQQCGKCTHC9OPAFOK","","<img src=""img/set1/S3.jpg"" width=""540"" height = ""360"">","null","","","","","","","","","",""
"null","","html-keyboard-response","69","106208","0.0-69.0","317HQ483I8EP6IQY3BVM68LIM4ONIA","A2B6WQG0A9CKXQ","3RSBJ6YZECCLSSQQCGKCTHC9OPAFOK","","","null","","","","","","","","","",""
"1067.199999988079","","image-keyboard-response","70","107277","0.0-70.0","317HQ483I8EP6IQY3BVM68LIM4ONIA","A2B6WQG0A9CKXQ","3RSBJ6YZECCLSSQQCGKCTHC9OPAFOK","","img/set1/S2.jpg","68","2","random","68","random,structured_incentive,structured_normal,structured_load","2,3,4,2,1,2","1,2,3,4","true","","",""
"null","","html-keyboard-response","71","107629","0.0-71.0","317HQ483I8EP6IQY3BVM68LIM4ONIA","A2B6WQG0A9CKXQ","3RSBJ6YZECCLSSQQCGKCTHC9OPAFOK","","<img src=""img/set1/S2.jpg"" width=""540"" height = ""360"" style=""border:16px solid orange"">","null","","","","","","","","","",""
"null","","html-keyboard-response","72","107831","0.0-72.0","317HQ483I8EP6IQY3BVM68LIM4ONIA","A2B6WQG0A9CKXQ","3RSBJ6YZECCLSSQQCGKCTHC9OPAFOK","","","null","","","","","","","","","",""
"997.1999999880791","","image-keyboard-response","73","108830","0.0-73.0","317HQ483I8EP6IQY3BVM68LIM4ONIA","A2B6WQG0A9CKXQ","3RSBJ6YZECCLSSQQCGKCTHC9OPAFOK","","img/set1/S1.jpg","74","1","random","83","random,structured_incentive,structured_normal,structured_load","2,3,4,2,1,2","1,2,3,4","false","","",""
"null","","html-keyboard-response","74","109182","0.0-74.0","317HQ483I8EP6IQY3BVM68LIM4ONIA","A2B6WQG0A9CKXQ","3RSBJ6YZECCLSSQQCGKCTHC9OPAFOK","","<img src=""img/set1/S1.jpg"" width=""540"" height = ""360"">","null","","","","","","","","","",""
"null","","html-keyboard-response","75","109384","0.0-75.0","317HQ483I8EP6IQY3BVM68LIM4ONIA","A2B6WQG0A9CKXQ","3RSBJ6YZECCLSSQQCGKCTHC9OPAFOK","","","null","","","","","","","","","",""
"1580.4000000059605","","image-keyboard-response","76","110966","0.0-76.0","317HQ483I8EP6IQY3BVM68LIM4ONIA","A2B6WQG0A9CKXQ","3RSBJ6YZECCLSSQQCGKCTHC9OPAFOK","","img/set1/S4.jpg","74","4","random","74","random,structured_incentive,structured_normal,structured_load","2,3,4,2,1,2","1,2,3,4","true","","",""
"null","","html-keyboard-response","77","111318","0.0-77.0","317HQ483I8EP6IQY3BVM68LIM4ONIA","A2B6WQG0A9CKXQ","3RSBJ6YZECCLSSQQCGKCTHC9OPAFOK","","<img src=""img/set1/S4.jpg"" width=""540"" height = ""360"" style=""border:16px solid orange"">","null","","","","","","","","","",""
"null","","html-keyboard-response","78","111520","0.0-78.0","317HQ483I8EP6IQY3BVM68LIM4ONIA","A2B6WQG0A9CKXQ","3RSBJ6YZECCLSSQQCGKCTHC9OPAFOK","","","null","","","","","","","","","",""
"1203.7000000178814","","image-keyboard-response","79","112725","0.0-79.0","317HQ483I8EP6IQY3BVM68LIM4ONIA","A2B6WQG0A9CKXQ","3RSBJ6YZECCLSSQQCGKCTHC9OPAFOK","","img/set1/S3.jpg","83","3","random","72","random,structured_incentive,structured_normal,structured_load","2,3,4,2,1,2","1,2,3,4","false","","",""
"null","","html-keyboard-response","80","113077","0.0-80.0","317HQ483I8EP6IQY3BVM68LIM4ONIA","A2B6WQG0A9CKXQ","3RSBJ6YZECCLSSQQCGKCTHC9OPAFOK","","<img src=""img/set1/S3.jpg"" width=""540"" height = ""360"">","null","","","","","","","","","",""
"null","","html-keyboard-response","81","113279","0.0-81.0","317HQ483I8EP6IQY3BVM68LIM4ONIA","A2B6WQG0A9CKXQ","3RSBJ6YZECCLSSQQCGKCTHC9OPAFOK","","","null","","","","","","","","","",""
"788.8999999761581","","image-keyboard-response","82","114069","0.0-82.0","317HQ483I8EP6IQY3BVM68LIM4ONIA","A2B6WQG0A9CKXQ","3RSBJ6YZECCLSSQQCGKCTHC9OPAFOK","","img/set1/S2.jpg","68","2","random","68","random,structured_incentive,structured_normal,structured_load","2,3,4,2,1,2","1,2,3,4","true","","",""
"null","","html-keyboard-response","83","114422","0.0-83.0","317HQ483I8EP6IQY3BVM68LIM4ONIA","A2B6WQG0A9CKXQ","3RSBJ6YZECCLSSQQCGKCTHC9OPAFOK","","<img src=""img/set1/S2.jpg"" width=""540"" height = ""360"" style=""border:16px solid orange"">","null","","","","","","","","","",""
"null","","html-keyboard-response","84","114623","0.0-84.0","317HQ483I8EP6IQY3BVM68LIM4ONIA","A2B6WQG0A9CKXQ","3RSBJ6YZECCLSSQQCGKCTHC9OPAFOK","","","null","","","","","","","","","",""
"660.2999999821186","","image-keyboard-response","85","115285","0.0-85.0","317HQ483I8EP6IQY3BVM68LIM4ONIA","A2B6WQG0A9CKXQ","3RSBJ6YZECCLSSQQCGKCTHC9OPAFOK","","img/set1/S2.jpg","68","2","random","68","random,structured_incentive,structured_normal,structured_load","2,3,4,2,1,2","1,2,3,4","true","","",""
"null","","html-keyboard-response","86","115636","0.0-86.0","317HQ483I8EP6IQY3BVM68LIM4ONIA","A2B6WQG0A9CKXQ","3RSBJ6YZECCLSSQQCGKCTHC9OPAFOK","","<img src=""img/set1/S2.jpg"" width=""540"" height = ""360"" style=""border:16px solid orange"">","null","","","","","","","","","",""
"null","","html-keyboard-response","87","115837","0.0-87.0","317HQ483I8EP6IQY3BVM68LIM4ONIA","A2B6WQG0A9CKXQ","3RSBJ6YZECCLSSQQCGKCTHC9OPAFOK","","","null","","","","","","","","","",""
"1583.2000000178814","","image-keyboard-response","88","117422","0.0-88.0","317HQ483I8EP6IQY3BVM68LIM4ONIA","A2B6WQG0A9CKXQ","3RSBJ6YZECCLSSQQCGKCTHC9OPAFOK","","img/set1/S1.jpg","74","1","random","83","random,structured_incentive,structured_normal,structured_load","2,3,4,2,1,2","1,2,3,4","false","","",""
"null","","html-keyboard-response","89","117774","0.0-89.0","317HQ483I8EP6IQY3BVM68LIM4ONIA","A2B6WQG0A9CKXQ","3RSBJ6YZECCLSSQQCGKCTHC9OPAFOK","","<img src=""img/set1/S1.jpg"" width=""540"" height = ""360"">","null","","","","","","","","","",""
"null","","html-keyboard-response","90","117976","0.0-90.0","317HQ483I8EP6IQY3BVM68LIM4ONIA","A2B6WQG0A9CKXQ","3RSBJ6YZECCLSSQQCGKCTHC9OPAFOK","","","null","","","","","","","","","",""
"882.8000000119209","","image-keyboard-response","91","118860","0.0-91.0","317HQ483I8EP6IQY3BVM68LIM4ONIA","A2B6WQG0A9CKXQ","3RSBJ6YZECCLSSQQCGKCTHC9OPAFOK","","img/set1/S3.jpg","74","3","random","72","random,structured_incentive,structured_normal,structured_load","2,3,4,2,1,2","1,2,3,4","false","","",""
"null","","html-keyboard-response","92","119212","0.0-92.0","317HQ483I8EP6IQY3BVM68LIM4ONIA","A2B6WQG0A9CKXQ","3RSBJ6YZECCLSSQQCGKCTHC9OPAFOK","","<img src=""img/set1/S3.jpg"" width=""540"" height = ""360"">","null","","","","","","","","","",""
"null","","html-keyboard-response","93","119414","0.0-93.0","317HQ483I8EP6IQY3BVM68LIM4ONIA","A2B6WQG0A9CKXQ","3RSBJ6YZECCLSSQQCGKCTHC9OPAFOK","","","null","","","","","","","","","",""
"null","","image-keyboard-response","94","121916","0.0-94.0","317HQ483I8EP6IQY3BVM68LIM4ONIA","A2B6WQG0A9CKXQ","3RSBJ6YZECCLSSQQCGKCTHC9OPAFOK","","img/set1/S3.jpg","null","3","random","72","random,structured_incentive,structured_normal,structured_load","2,3,4,2,1,2","1,2,3,4","false","","",""
"null","","html-keyboard-response","95","122269","0.0-95.0","317HQ483I8EP6IQY3BVM68LIM4ONIA","A2B6WQG0A9CKXQ","3RSBJ6YZECCLSSQQCGKCTHC9OPAFOK","","<img src=""img/set1/S3.jpg"" width=""540"" height = ""360"">","null","","","","","","","","","",""
"null","","html-keyboard-response","96","122471","0.0-96.0","317HQ483I8EP6IQY3BVM68LIM4ONIA","A2B6WQG0A9CKXQ","3RSBJ6YZECCLSSQQCGKCTHC9OPAFOK","","","null","","","","","","","","","",""
"1277.699999988079","","image-keyboard-response","97","123749","0.0-97.0","317HQ483I8EP6IQY3BVM68LIM4ONIA","A2B6WQG0A9CKXQ","3RSBJ6YZECCLSSQQCGKCTHC9OPAFOK","","img/set1/S4.jpg","74","4","random","74","random,structured_incentive,structured_normal,structured_load","2,3,4,2,1,2","1,2,3,4","true","","",""
"null","","html-keyboard-response","98","124102","0.0-98.0","317HQ483I8EP6IQY3BVM68LIM4ONIA","A2B6WQG0A9CKXQ","3RSBJ6YZECCLSSQQCGKCTHC9OPAFOK","","<img src=""img/set1/S4.jpg"" width=""540"" height = ""360"" style=""border:16px solid orange"">","null","","","","","","","","","",""
"null","","html-keyboard-response","99","124303","0.0-99.0","317HQ483I8EP6IQY3BVM68LIM4ONIA","A2B6WQG0A9CKXQ","3RSBJ6YZECCLSSQQCGKCTHC9OPAFOK","","","null","","","","","","","","","",""
"1325.9000000059605","","image-keyboard-response","100","125630","0.0-100.0","317HQ483I8EP6IQY3BVM68LIM4ONIA","A2B6WQG0A9CKXQ","3RSBJ6YZECCLSSQQCGKCTHC9OPAFOK","","img/set1/S3.jpg","83","3","random","72","random,structured_incentive,structured_normal,structured_load","2,3,4,2,1,2","1,2,3,4","false","","",""
"null","","html-keyboard-response","101","125985","0.0-101.0","317HQ483I8EP6IQY3BVM68LIM4ONIA","A2B6WQG0A9CKXQ","3RSBJ6YZECCLSSQQCGKCTHC9OPAFOK","","<img src=""img/set1/S3.jpg"" width=""540"" height = ""360"">","null","","","","","","","","","",""
"null","","html-keyboard-response","102","126187","0.0-102.0","317HQ483I8EP6IQY3BVM68LIM4ONIA","A2B6WQG0A9CKXQ","3RSBJ6YZECCLSSQQCGKCTHC9OPAFOK","","","null","","","","","","","","","",""
"1631.699999988079","","image-keyboard-response","103","127820","0.0-103.0","317HQ483I8EP6IQY3BVM68LIM4ONIA","A2B6WQG0A9CKXQ","3RSBJ6YZECCLSSQQCGKCTHC9OPAFOK","","img/set1/S3.jpg","68","3","random","72","random,structured_incentive,structured_normal,structured_load","2,3,4,2,1,2","1,2,3,4","false","","",""
"null","","html-keyboard-response","104","128172","0.0-104.0","317HQ483I8EP6IQY3BVM68LIM4ONIA","A2B6WQG0A9CKXQ","3RSBJ6YZECCLSSQQCGKCTHC9OPAFOK","","<img src=""img/set1/S3.jpg"" width=""540"" height = ""360"">","null","","","","","","","","","",""
"null","","html-keyboard-response","105","128374","0.0-105.0","317HQ483I8EP6IQY3BVM68LIM4ONIA","A2B6WQG0A9CKXQ","3RSBJ6YZECCLSSQQCGKCTHC9OPAFOK","","","null","","","","","","","","","",""
"1221.4000000059605","","image-keyboard-response","106","129597","0.0-106.0","317HQ483I8EP6IQY3BVM68LIM4ONIA","A2B6WQG0A9CKXQ","3RSBJ6YZECCLSSQQCGKCTHC9OPAFOK","","img/set1/S2.jpg","68","2","random","68","random,structured_incentive,structured_normal,structured_load","2,3,4,2,1,2","1,2,3,4","true","","",""
"null","","html-keyboard-response","107","129950","0.0-107.0","317HQ483I8EP6IQY3BVM68LIM4ONIA","A2B6WQG0A9CKXQ","3RSBJ6YZECCLSSQQCGKCTHC9OPAFOK","","<img src=""img/set1/S2.jpg"" width=""540"" height = ""360"" style=""border:16px solid orange"">","null","","","","","","","","","",""
"null","","html-keyboard-response","108","130152","0.0-108.0","317HQ483I8EP6IQY3BVM68LIM4ONIA","A2B6WQG0A9CKXQ","3RSBJ6YZECCLSSQQCGKCTHC9OPAFOK","","","null","","","","","","","","","",""
"979.6999999880791","","image-keyboard-response","109","131134","0.0-109.0","317HQ483I8EP6IQY3BVM68LIM4ONIA","A2B6WQG0A9CKXQ","3RSBJ6YZECCLSSQQCGKCTHC9OPAFOK","","img/set1/S2.jpg","68","2","random","68","random,structured_incentive,structured_normal,structured_load","2,3,4,2,1,2","1,2,3,4","true","","",""
"null","","html-keyboard-response","110","131487","0.0-110.0","317HQ483I8EP6IQY3BVM68LIM4ONIA","A2B6WQG0A9CKXQ","3RSBJ6YZECCLSSQQCGKCTHC9OPAFOK","","<img src=""img/set1/S2.jpg"" width=""540"" height = ""360"" style=""border:16px solid orange"">","null","","","","","","","","","",""
"null","","html-keyboard-response","111","131701","0.0-111.0","317HQ483I8EP6IQY3BVM68LIM4ONIA","A2B6WQG0A9CKXQ","3RSBJ6YZECCLSSQQCGKCTHC9OPAFOK","","","null","","","","","","","","","",""
"600.1999999880791","","image-keyboard-response","112","132301","0.0-112.0","317HQ483I8EP6IQY3BVM68LIM4ONIA","A2B6WQG0A9CKXQ","3RSBJ6YZECCLSSQQCGKCTHC9OPAFOK","","img/set1/S2.jpg","68","2","random","68","random,structured_incentive,structured_normal,structured_load","2,3,4,2,1,2","1,2,3,4","true","","",""
"null","","html-keyboard-response","113","132657","0.0-113.0","317HQ483I8EP6IQY3BVM68LIM4ONIA","A2B6WQG0A9CKXQ","3RSBJ6YZECCLSSQQCGKCTHC9OPAFOK","","<img src=""img/set1/S2.jpg"" width=""540"" height = ""360"" style=""border:16px solid orange"">","null","","","","","","","","","",""
"null","","html-keyboard-response","114","132858","0.0-114.0","317HQ483I8EP6IQY3BVM68LIM4ONIA","A2B6WQG0A9CKXQ","3RSBJ6YZECCLSSQQCGKCTHC9OPAFOK","","","null","","","","","","","","","",""
"1506.4000000059605","","image-keyboard-response","115","134366","0.0-115.0","317HQ483I8EP6IQY3BVM68LIM4ONIA","A2B6WQG0A9CKXQ","3RSBJ6YZECCLSSQQCGKCTHC9OPAFOK","","img/set1/S1.jpg","83","1","random","83","random,structured_incentive,structured_normal,structured_load","2,3,4,2,1,2","1,2,3,4","true","","",""
"null","","html-keyboard-response","116","134718","0.0-116.0","317HQ483I8EP6IQY3BVM68LIM4ONIA","A2B6WQG0A9CKXQ","3RSBJ6YZECCLSSQQCGKCTHC9OPAFOK","","<img src=""img/set1/S1.jpg"" width=""540"" height = ""360"" style=""border:16px solid orange"">","null","","","","","","","","","",""
"null","","html-keyboard-response","117","134920","0.0-117.0","317HQ483I8EP6IQY3BVM68LIM4ONIA","A2B6WQG0A9CKXQ","3RSBJ6YZECCLSSQQCGKCTHC9OPAFOK","","","null","","","","","","","","","",""
"null","","image-keyboard-response","118","137422","0.0-118.0","317HQ483I8EP6IQY3BVM68LIM4ONIA","A2B6WQG0A9CKXQ","3RSBJ6YZECCLSSQQCGKCTHC9OPAFOK","","img/set1/S3.jpg","null","3","random","72","random,structured_incentive,structured_normal,structured_load","2,3,4,2,1,2","1,2,3,4","false","","",""
"null","","html-keyboard-response","119","137774","0.0-119.0","317HQ483I8EP6IQY3BVM68LIM4ONIA","A2B6WQG0A9CKXQ","3RSBJ6YZECCLSSQQCGKCTHC9OPAFOK","","<img src=""img/set1/S3.jpg"" width=""540"" height = ""360"">","null","","","","","","","","","",""
"null","","html-keyboard-response","120","137975","0.0-120.0","317HQ483I8EP6IQY3BVM68LIM4ONIA","A2B6WQG0A9CKXQ","3RSBJ6YZECCLSSQQCGKCTHC9OPAFOK","","","null","","","","","","","","","",""
"1117.699999988079","","image-keyboard-response","121","139094","0.0-121.0","317HQ483I8EP6IQY3BVM68LIM4ONIA","A2B6WQG0A9CKXQ","3RSBJ6YZECCLSSQQCGKCTHC9OPAFOK","","img/set1/S3.jpg","74","3","random","72","random,structured_incentive,structured_normal,structured_load","2,3,4,2,1,2","1,2,3,4","false","","",""
"null","","html-keyboard-response","122","139447","0.0-122.0","317HQ483I8EP6IQY3BVM68LIM4ONIA","A2B6WQG0A9CKXQ","3RSBJ6YZECCLSSQQCGKCTHC9OPAFOK","","<img src=""img/set1/S3.jpg"" width=""540"" height = ""360"">","null","","","","","","","","","",""
"null","","html-keyboard-response","123","139648","0.0-123.0","317HQ483I8EP6IQY3BVM68LIM4ONIA","A2B6WQG0A9CKXQ","3RSBJ6YZECCLSSQQCGKCTHC9OPAFOK","","","null","","","","","","","","","",""
"1266.699999988079","","image-keyboard-response","124","140916","0.0-124.0","317HQ483I8EP6IQY3BVM68LIM4ONIA","A2B6WQG0A9CKXQ","3RSBJ6YZECCLSSQQCGKCTHC9OPAFOK","","img/set1/S4.jpg","74","4","random","74","random,structured_incentive,structured_normal,structured_load","2,3,4,2,1,2","1,2,3,4","true","","",""
"null","","html-keyboard-response","125","141268","0.0-125.0","317HQ483I8EP6IQY3BVM68LIM4ONIA","A2B6WQG0A9CKXQ","3RSBJ6YZECCLSSQQCGKCTHC9OPAFOK","","<img src=""img/set1/S4.jpg"" width=""540"" height = ""360"" style=""border:16px solid orange"">","null","","","","","","","","","",""
"null","","html-keyboard-response","126","141469","0.0-126.0","317HQ483I8EP6IQY3BVM68LIM4ONIA","A2B6WQG0A9CKXQ","3RSBJ6YZECCLSSQQCGKCTHC9OPAFOK","","","null","","","","","","","","","",""
"null","","image-keyboard-response","127","143971","0.0-127.0","317HQ483I8EP6IQY3BVM68LIM4ONIA","A2B6WQG0A9CKXQ","3RSBJ6YZECCLSSQQCGKCTHC9OPAFOK","","img/set1/S3.jpg","null","3","random","72","random,structured_incentive,structured_normal,structured_load","2,3,4,2,1,2","1,2,3,4","false","","",""
"null","","html-keyboard-response","128","144333","0.0-128.0","317HQ483I8EP6IQY3BVM68LIM4ONIA","A2B6WQG0A9CKXQ","3RSBJ6YZECCLSSQQCGKCTHC9OPAFOK","","<img src=""img/set1/S3.jpg"" width=""540"" height = ""360"">","null","","","","","","","","","",""
"null","","html-keyboard-response","129","144534","0.0-129.0","317HQ483I8EP6IQY3BVM68LIM4ONIA","A2B6WQG0A9CKXQ","3RSBJ6YZECCLSSQQCGKCTHC9OPAFOK","","","null","","","","","","","","","",""
"893.7999999821186","","image-keyboard-response","130","145430","0.0-130.0","317HQ483I8EP6IQY3BVM68LIM4ONIA","A2B6WQG0A9CKXQ","3RSBJ6YZECCLSSQQCGKCTHC9OPAFOK","","img/set1/S2.jpg","68","2","random","68","random,structured_incentive,structured_normal,structured_load","2,3,4,2,1,2","1,2,3,4","true","","",""
"null","","html-keyboard-response","131","145782","0.0-131.0","317HQ483I8EP6IQY3BVM68LIM4ONIA","A2B6WQG0A9CKXQ","3RSBJ6YZECCLSSQQCGKCTHC9OPAFOK","","<img src=""img/set1/S2.jpg"" width=""540"" height = ""360"" style=""border:16px solid orange"">","null","","","","","","","","","",""
"null","","html-keyboard-response","132","145985","0.0-132.0","317HQ483I8EP6IQY3BVM68LIM4ONIA","A2B6WQG0A9CKXQ","3RSBJ6YZECCLSSQQCGKCTHC9OPAFOK","","","null","","","","","","","","","",""
"1346.5","","image-keyboard-response","133","147332","0.0-133.0","317HQ483I8EP6IQY3BVM68LIM4ONIA","A2B6WQG0A9CKXQ","3RSBJ6YZECCLSSQQCGKCTHC9OPAFOK","","img/set1/S1.jpg","83","1","random","83","random,structured_incentive,structured_normal,structured_load","2,3,4,2,1,2","1,2,3,4","true","","",""
"null","","html-keyboard-response","134","147685","0.0-134.0","317HQ483I8EP6IQY3BVM68LIM4ONIA","A2B6WQG0A9CKXQ","3RSBJ6YZECCLSSQQCGKCTHC9OPAFOK","","<img src=""img/set1/S1.jpg"" width=""540"" height = ""360"" style=""border:16px solid orange"">","null","","","","","","","","","",""
"null","","html-keyboard-response","135","147886","0.0-135.0","317HQ483I8EP6IQY3BVM68LIM4ONIA","A2B6WQG0A9CKXQ","3RSBJ6YZECCLSSQQCGKCTHC9OPAFOK","","","null","","","","","","","","","",""
"437.7999999821186","","image-keyboard-response","136","148326","0.0-136.0","317HQ483I8EP6IQY3BVM68LIM4ONIA","A2B6WQG0A9CKXQ","3RSBJ6YZECCLSSQQCGKCTHC9OPAFOK","","img/set1/S1.jpg","83","1","random","83","random,structured_incentive,structured_normal,structured_load","2,3,4,2,1,2","1,2,3,4","true","","",""
"null","","html-keyboard-response","137","148679","0.0-137.0","317HQ483I8EP6IQY3BVM68LIM4ONIA","A2B6WQG0A9CKXQ","3RSBJ6YZECCLSSQQCGKCTHC9OPAFOK","","<img src=""img/set1/S1.jpg"" width=""540"" height = ""360"" style=""border:16px solid orange"">","null","","","","","","","","","",""
"null","","html-keyboard-response","138","148881","0.0-138.0","317HQ483I8EP6IQY3BVM68LIM4ONIA","A2B6WQG0A9CKXQ","3RSBJ6YZECCLSSQQCGKCTHC9OPAFOK","","","null","","","","","","","","","",""
"842.3999999761581","","image-keyboard-response","139","149724","0.0-139.0","317HQ483I8EP6IQY3BVM68LIM4ONIA","A2B6WQG0A9CKXQ","3RSBJ6YZECCLSSQQCGKCTHC9OPAFOK","","img/set1/S1.jpg","83","1","random","83","random,structured_incentive,structured_normal,structured_load","2,3,4,2,1,2","1,2,3,4","true","","",""
"null","","html-keyboard-response","140","150076","0.0-140.0","317HQ483I8EP6IQY3BVM68LIM4ONIA","A2B6WQG0A9CKXQ","3RSBJ6YZECCLSSQQCGKCTHC9OPAFOK","","<img src=""img/set1/S1.jpg"" width=""540"" height = ""360"" style=""border:16px solid orange"">","null","","","","","","","","","",""
"null","","html-keyboard-response","141","150278","0.0-141.0","317HQ483I8EP6IQY3BVM68LIM4ONIA","A2B6WQG0A9CKXQ","3RSBJ6YZECCLSSQQCGKCTHC9OPAFOK","","","null","","","","","","","","","",""
"646.9000000059605","","image-keyboard-response","142","150926","0.0-142.0","317HQ483I8EP6IQY3BVM68LIM4ONIA","A2B6WQG0A9CKXQ","3RSBJ6YZECCLSSQQCGKCTHC9OPAFOK","","img/set1/S1.jpg","83","1","random","83","random,structured_incentive,structured_normal,structured_load","2,3,4,2,1,2","1,2,3,4","true","","",""
"null","","html-keyboard-response","143","151278","0.0-143.0","317HQ483I8EP6IQY3BVM68LIM4ONIA","A2B6WQG0A9CKXQ","3RSBJ6YZECCLSSQQCGKCTHC9OPAFOK","","<img src=""img/set1/S1.jpg"" width=""540"" height = ""360"" style=""border:16px solid orange"">","null","","","","","","","","","",""
"null","","html-keyboard-response","144","151479","0.0-144.0","317HQ483I8EP6IQY3BVM68LIM4ONIA","A2B6WQG0A9CKXQ","3RSBJ6YZECCLSSQQCGKCTHC9OPAFOK","","","null","","","","","","","","","",""
"null","","image-keyboard-response","145","153982","0.0-145.0","317HQ483I8EP6IQY3BVM68LIM4ONIA","A2B6WQG0A9CKXQ","3RSBJ6YZECCLSSQQCGKCTHC9OPAFOK","","img/set1/S3.jpg","null","3","random","72","random,structured_incentive,structured_normal,structured_load","2,3,4,2,1,2","1,2,3,4","false","","",""
"null","","html-keyboard-response","146","154335","0.0-146.0","317HQ483I8EP6IQY3BVM68LIM4ONIA","A2B6WQG0A9CKXQ","3RSBJ6YZECCLSSQQCGKCTHC9OPAFOK","","<img src=""img/set1/S3.jpg"" width=""540"" height = ""360"">","null","","","","","","","","","",""
"null","","html-keyboard-response","147","154538","0.0-147.0","317HQ483I8EP6IQY3BVM68LIM4ONIA","A2B6WQG0A9CKXQ","3RSBJ6YZECCLSSQQCGKCTHC9OPAFOK","","","null","","","","","","","","","",""
"null","","image-keyboard-response","148","157040","0.0-148.0","317HQ483I8EP6IQY3BVM68LIM4ONIA","A2B6WQG0A9CKXQ","3RSBJ6YZECCLSSQQCGKCTHC9OPAFOK","","img/set1/S3.jpg","null","3","random","72","random,structured_incentive,structured_normal,structured_load","2,3,4,2,1,2","1,2,3,4","false","","",""
"null","","html-keyboard-response","149","157393","0.0-149.0","317HQ483I8EP6IQY3BVM68LIM4ONIA","A2B6WQG0A9CKXQ","3RSBJ6YZECCLSSQQCGKCTHC9OPAFOK","","<img src=""img/set1/S3.jpg"" width=""540"" height = ""360"">","null","","","","","","","","","",""
"null","","html-keyboard-response","150","157595","0.0-150.0","317HQ483I8EP6IQY3BVM68LIM4ONIA","A2B6WQG0A9CKXQ","3RSBJ6YZECCLSSQQCGKCTHC9OPAFOK","","","null","","","","","","","","","",""
"1513","","image-keyboard-response","151","159109","0.0-151.0","317HQ483I8EP6IQY3BVM68LIM4ONIA","A2B6WQG0A9CKXQ","3RSBJ6YZECCLSSQQCGKCTHC9OPAFOK","","img/set1/S3.jpg","74","3","random","72","random,structured_incentive,structured_normal,structured_load","2,3,4,2,1,2","1,2,3,4","false","","",""
"null","","html-keyboard-response","152","159461","0.0-152.0","317HQ483I8EP6IQY3BVM68LIM4ONIA","A2B6WQG0A9CKXQ","3RSBJ6YZECCLSSQQCGKCTHC9OPAFOK","","<img src=""img/set1/S3.jpg"" width=""540"" height = ""360"">","null","","","","","","","","","",""
"null","","html-keyboard-response","153","159664","0.0-153.0","317HQ483I8EP6IQY3BVM68LIM4ONIA","A2B6WQG0A9CKXQ","3RSBJ6YZECCLSSQQCGKCTHC9OPAFOK","","","null","","","","","","","","","",""
"1283.4000000059605","","image-keyboard-response","154","160949","0.0-154.0","317HQ483I8EP6IQY3BVM68LIM4ONIA","A2B6WQG0A9CKXQ","3RSBJ6YZECCLSSQQCGKCTHC9OPAFOK","","img/set1/S4.jpg","74","4","random","74","random,structured_incentive,structured_normal,structured_load","2,3,4,2,1,2","1,2,3,4","true","","",""
"null","","html-keyboard-response","155","161304","0.0-155.0","317HQ483I8EP6IQY3BVM68LIM4ONIA","A2B6WQG0A9CKXQ","3RSBJ6YZECCLSSQQCGKCTHC9OPAFOK","","<img src=""img/set1/S4.jpg"" width=""540"" height = ""360"" style=""border:16px solid orange"">","null","","","","","","","","","",""
"null","","html-keyboard-response","156","161506","0.0-156.0","317HQ483I8EP6IQY3BVM68LIM4ONIA","A2B6WQG0A9CKXQ","3RSBJ6YZECCLSSQQCGKCTHC9OPAFOK","","","null","","","","","","","","","",""
"410.30000001192093","","image-keyboard-response","157","161917","0.0-157.0","317HQ483I8EP6IQY3BVM68LIM4ONIA","A2B6WQG0A9CKXQ","3RSBJ6YZECCLSSQQCGKCTHC9OPAFOK","","img/set1/S4.jpg","74","4","random","74","random,structured_incentive,structured_normal,structured_load","2,3,4,2,1,2","1,2,3,4","true","","",""
"null","","html-keyboard-response","158","162268","0.0-158.0","317HQ483I8EP6IQY3BVM68LIM4ONIA","A2B6WQG0A9CKXQ","3RSBJ6YZECCLSSQQCGKCTHC9OPAFOK","","<img src=""img/set1/S4.jpg"" width=""540"" height = ""360"" style=""border:16px solid orange"">","null","","","","","","","","","",""
"null","","html-keyboard-response","159","162469","0.0-159.0","317HQ483I8EP6IQY3BVM68LIM4ONIA","A2B6WQG0A9CKXQ","3RSBJ6YZECCLSSQQCGKCTHC9OPAFOK","","","null","","","","","","","","","",""
"501.80000001192093","","image-keyboard-response","160","162972","0.0-160.0","317HQ483I8EP6IQY3BVM68LIM4ONIA","A2B6WQG0A9CKXQ","3RSBJ6YZECCLSSQQCGKCTHC9OPAFOK","","img/set1/S4.jpg","74","4","random","74","random,structured_incentive,structured_normal,structured_load","2,3,4,2,1,2","1,2,3,4","true","","",""
"null","","html-keyboard-response","161","163325","0.0-161.0","317HQ483I8EP6IQY3BVM68LIM4ONIA","A2B6WQG0A9CKXQ","3RSBJ6YZECCLSSQQCGKCTHC9OPAFOK","","<img src=""img/set1/S4.jpg"" width=""540"" height = ""360"" style=""border:16px solid orange"">","null","","","","","","","","","",""
"null","","html-keyboard-response","162","163542","0.0-162.0","317HQ483I8EP6IQY3BVM68LIM4ONIA","A2B6WQG0A9CKXQ","3RSBJ6YZECCLSSQQCGKCTHC9OPAFOK","","","null","","","","","","","","","",""
"997.3000000119209","","image-keyboard-response","163","164541","0.0-163.0","317HQ483I8EP6IQY3BVM68LIM4ONIA","A2B6WQG0A9CKXQ","3RSBJ6YZECCLSSQQCGKCTHC9OPAFOK","","img/set1/S3.jpg","83","3","random","72","random,structured_incentive,structured_normal,structured_load","2,3,4,2,1,2","1,2,3,4","false","","",""
"null","","html-keyboard-response","164","164894","0.0-164.0","317HQ483I8EP6IQY3BVM68LIM4ONIA","A2B6WQG0A9CKXQ","3RSBJ6YZECCLSSQQCGKCTHC9OPAFOK","","<img src=""img/set1/S3.jpg"" width=""540"" height = ""360"">","null","","","","","","","","","",""
"null","","html-keyboard-response","165","165096","0.0-165.0","317HQ483I8EP6IQY3BVM68LIM4ONIA","A2B6WQG0A9CKXQ","3RSBJ6YZECCLSSQQCGKCTHC9OPAFOK","","","null","","","","","","","","","",""
"1012.7000000178814","","image-keyboard-response","166","166110","0.0-166.0","317HQ483I8EP6IQY3BVM68LIM4ONIA","A2B6WQG0A9CKXQ","3RSBJ6YZECCLSSQQCGKCTHC9OPAFOK","","img/set1/S2.jpg","68","2","random","68","random,structured_incentive,structured_normal,structured_load","2,3,4,2,1,2","1,2,3,4","true","","",""
"null","","html-keyboard-response","167","166463","0.0-167.0","317HQ483I8EP6IQY3BVM68LIM4ONIA","A2B6WQG0A9CKXQ","3RSBJ6YZECCLSSQQCGKCTHC9OPAFOK","","<img src=""img/set1/S2.jpg"" width=""540"" height = ""360"" style=""border:16px solid orange"">","null","","","","","","","","","",""
"null","","html-keyboard-response","168","166665","0.0-168.0","317HQ483I8EP6IQY3BVM68LIM4ONIA","A2B6WQG0A9CKXQ","3RSBJ6YZECCLSSQQCGKCTHC9OPAFOK","","","null","","","","","","","","","",""
"1506.9000000059605","","image-keyboard-response","169","168174","0.0-169.0","317HQ483I8EP6IQY3BVM68LIM4ONIA","A2B6WQG0A9CKXQ","3RSBJ6YZECCLSSQQCGKCTHC9OPAFOK","","img/set1/S3.jpg","68","3","random","72","random,structured_incentive,structured_normal,structured_load","2,3,4,2,1,2","1,2,3,4","false","","",""
"null","","html-keyboard-response","170","168526","0.0-170.0","317HQ483I8EP6IQY3BVM68LIM4ONIA","A2B6WQG0A9CKXQ","3RSBJ6YZECCLSSQQCGKCTHC9OPAFOK","","<img src=""img/set1/S3.jpg"" width=""540"" height = ""360"">","null","","","","","","","","","",""
"null","","html-keyboard-response","171","168728","0.0-171.0","317HQ483I8EP6IQY3BVM68LIM4ONIA","A2B6WQG0A9CKXQ","3RSBJ6YZECCLSSQQCGKCTHC9OPAFOK","","","null","","","","","","","","","",""
"1236.199999988079","","image-keyboard-response","172","169965","0.0-172.0","317HQ483I8EP6IQY3BVM68LIM4ONIA","A2B6WQG0A9CKXQ","3RSBJ6YZECCLSSQQCGKCTHC9OPAFOK","","img/set1/S1.jpg","83","1","random","83","random,structured_incentive,structured_normal,structured_load","2,3,4,2,1,2","1,2,3,4","true","","",""
"null","","html-keyboard-response","173","170318","0.0-173.0","317HQ483I8EP6IQY3BVM68LIM4ONIA","A2B6WQG0A9CKXQ","3RSBJ6YZECCLSSQQCGKCTHC9OPAFOK","","<img src=""img/set1/S1.jpg"" width=""540"" height = ""360"" style=""border:16px solid orange"">","null","","","","","","","","","",""
"null","","html-keyboard-response","174","170519","0.0-174.0","317HQ483I8EP6IQY3BVM68LIM4ONIA","A2B6WQG0A9CKXQ","3RSBJ6YZECCLSSQQCGKCTHC9OPAFOK","","","null","","","","","","","","","",""
"1173","","image-keyboard-response","175","171693","0.0-175.0","317HQ483I8EP6IQY3BVM68LIM4ONIA","A2B6WQG0A9CKXQ","3RSBJ6YZECCLSSQQCGKCTHC9OPAFOK","","img/set1/S3.jpg","83","3","random","72","random,structured_incentive,structured_normal,structured_load","2,3,4,2,1,2","1,2,3,4","false","","",""
"null","","html-keyboard-response","176","172052","0.0-176.0","317HQ483I8EP6IQY3BVM68LIM4ONIA","A2B6WQG0A9CKXQ","3RSBJ6YZECCLSSQQCGKCTHC9OPAFOK","","<img src=""img/set1/S3.jpg"" width=""540"" height = ""360"">","null","","","","","","","","","",""
"null","","html-keyboard-response","177","172255","0.0-177.0","317HQ483I8EP6IQY3BVM68LIM4ONIA","A2B6WQG0A9CKXQ","3RSBJ6YZECCLSSQQCGKCTHC9OPAFOK","","","null","","","","","","","","","",""
"700.5","","image-keyboard-response","178","172956","0.0-178.0","317HQ483I8EP6IQY3BVM68LIM4ONIA","A2B6WQG0A9CKXQ","3RSBJ6YZECCLSSQQCGKCTHC9OPAFOK","","img/set1/S1.jpg","68","1","random","83","random,structured_incentive,structured_normal,structured_load","2,3,4,2,1,2","1,2,3,4","false","","",""
"null","","html-keyboard-response","179","173308","0.0-179.0","317HQ483I8EP6IQY3BVM68LIM4ONIA","A2B6WQG0A9CKXQ","3RSBJ6YZECCLSSQQCGKCTHC9OPAFOK","","<img src=""img/set1/S1.jpg"" width=""540"" height = ""360"">","null","","","","","","","","","",""
"null","","html-keyboard-response","180","173510","0.0-180.0","317HQ483I8EP6IQY3BVM68LIM4ONIA","A2B6WQG0A9CKXQ","3RSBJ6YZECCLSSQQCGKCTHC9OPAFOK","","","null","","","","","","","","","",""
"766","","image-keyboard-response","181","174277","0.0-181.0","317HQ483I8EP6IQY3BVM68LIM4ONIA","A2B6WQG0A9CKXQ","3RSBJ6YZECCLSSQQCGKCTHC9OPAFOK","","img/set1/S4.jpg","74","4","random","74","random,structured_incentive,structured_normal,structured_load","2,3,4,2,1,2","1,2,3,4","true","","",""
"null","","html-keyboard-response","182","174630","0.0-182.0","317HQ483I8EP6IQY3BVM68LIM4ONIA","A2B6WQG0A9CKXQ","3RSBJ6YZECCLSSQQCGKCTHC9OPAFOK","","<img src=""img/set1/S4.jpg"" width=""540"" height = ""360"" style=""border:16px solid orange"">","null","","","","","","","","","",""
"null","","html-keyboard-response","183","174832","0.0-183.0","317HQ483I8EP6IQY3BVM68LIM4ONIA","A2B6WQG0A9CKXQ","3RSBJ6YZECCLSSQQCGKCTHC9OPAFOK","","","null","","","","","","","","","",""
"676.4000000059605","","image-keyboard-response","184","175510","0.0-184.0","317HQ483I8EP6IQY3BVM68LIM4ONIA","A2B6WQG0A9CKXQ","3RSBJ6YZECCLSSQQCGKCTHC9OPAFOK","","img/set1/S2.jpg","68","2","random","68","random,structured_incentive,structured_normal,structured_load","2,3,4,2,1,2","1,2,3,4","true","","",""
"null","","html-keyboard-response","185","175862","0.0-185.0","317HQ483I8EP6IQY3BVM68LIM4ONIA","A2B6WQG0A9CKXQ","3RSBJ6YZECCLSSQQCGKCTHC9OPAFOK","","<img src=""img/set1/S2.jpg"" width=""540"" height = ""360"" style=""border:16px solid orange"">","null","","","","","","","","","",""
"null","","html-keyboard-response","186","176063","0.0-186.0","317HQ483I8EP6IQY3BVM68LIM4ONIA","A2B6WQG0A9CKXQ","3RSBJ6YZECCLSSQQCGKCTHC9OPAFOK","","","null","","","","","","","","","",""
"404.40000000596046","","image-keyboard-response","187","176469","0.0-187.0","317HQ483I8EP6IQY3BVM68LIM4ONIA","A2B6WQG0A9CKXQ","3RSBJ6YZECCLSSQQCGKCTHC9OPAFOK","","img/set1/S2.jpg","68","2","random","68","random,structured_incentive,structured_normal,structured_load","2,3,4,2,1,2","1,2,3,4","true","","",""
"null","","html-keyboard-response","188","176821","0.0-188.0","317HQ483I8EP6IQY3BVM68LIM4ONIA","A2B6WQG0A9CKXQ","3RSBJ6YZECCLSSQQCGKCTHC9OPAFOK","","<img src=""img/set1/S2.jpg"" width=""540"" height = ""360"" style=""border:16px solid orange"">","null","","","","","","","","","",""
"null","","html-keyboard-response","189","177024","0.0-189.0","317HQ483I8EP6IQY3BVM68LIM4ONIA","A2B6WQG0A9CKXQ","3RSBJ6YZECCLSSQQCGKCTHC9OPAFOK","","","null","","","","","","","","","",""
"1450.699999988079","","image-keyboard-response","190","178477","0.0-190.0","317HQ483I8EP6IQY3BVM68LIM4ONIA","A2B6WQG0A9CKXQ","3RSBJ6YZECCLSSQQCGKCTHC9OPAFOK","","img/set1/S1.jpg","83","1","random","83","random,structured_incentive,structured_normal,structured_load","2,3,4,2,1,2","1,2,3,4","true","","",""
"null","","html-keyboard-response","191","178828","0.0-191.0","317HQ483I8EP6IQY3BVM68LIM4ONIA","A2B6WQG0A9CKXQ","3RSBJ6YZECCLSSQQCGKCTHC9OPAFOK","","<img src=""img/set1/S1.jpg"" width=""540"" height = ""360"" style=""border:16px solid orange"">","null","","","","","","","","","",""
"null","","html-keyboard-response","192","179030","0.0-192.0","317HQ483I8EP6IQY3BVM68LIM4ONIA","A2B6WQG0A9CKXQ","3RSBJ6YZECCLSSQQCGKCTHC9OPAFOK","","","null","","","","","","","","","",""
"701.9000000059605","","image-keyboard-response","193","179733","0.0-193.0","317HQ483I8EP6IQY3BVM68LIM4ONIA","A2B6WQG0A9CKXQ","3RSBJ6YZECCLSSQQCGKCTHC9OPAFOK","","img/set1/S2.jpg","68","2","random","68","random,structured_incentive,structured_normal,structured_load","2,3,4,2,1,2","1,2,3,4","true","","",""
"null","","html-keyboard-response","194","180086","0.0-194.0","317HQ483I8EP6IQY3BVM68LIM4ONIA","A2B6WQG0A9CKXQ","3RSBJ6YZECCLSSQQCGKCTHC9OPAFOK","","<img src=""img/set1/S2.jpg"" width=""540"" height = ""360"" style=""border:16px solid orange"">","null","","","","","","","","","",""
"null","","html-keyboard-response","195","180291","0.0-195.0","317HQ483I8EP6IQY3BVM68LIM4ONIA","A2B6WQG0A9CKXQ","3RSBJ6YZECCLSSQQCGKCTHC9OPAFOK","","","null","","","","","","","","","",""
"1466.2000000178814","","image-keyboard-response","196","181758","0.0-196.0","317HQ483I8EP6IQY3BVM68LIM4ONIA","A2B6WQG0A9CKXQ","3RSBJ6YZECCLSSQQCGKCTHC9OPAFOK","","img/set1/S3.jpg","74","3","random","72","random,structured_incentive,structured_normal,structured_load","2,3,4,2,1,2","1,2,3,4","false","","",""
"null","","html-keyboard-response","197","182111","0.0-197.0","317HQ483I8EP6IQY3BVM68LIM4ONIA","A2B6WQG0A9CKXQ","3RSBJ6YZECCLSSQQCGKCTHC9OPAFOK","","<img src=""img/set1/S3.jpg"" width=""540"" height = ""360"">","null","","","","","","","","","",""
"null","","html-keyboard-response","198","182313","0.0-198.0","317HQ483I8EP6IQY3BVM68LIM4ONIA","A2B6WQG0A9CKXQ","3RSBJ6YZECCLSSQQCGKCTHC9OPAFOK","","","null","","","","","","","","","",""
"1066.5","","image-keyboard-response","199","183381","0.0-199.0","317HQ483I8EP6IQY3BVM68LIM4ONIA","A2B6WQG0A9CKXQ","3RSBJ6YZECCLSSQQCGKCTHC9OPAFOK","","img/set1/S4.jpg","74","4","random","74","random,structured_incentive,structured_normal,structured_load","2,3,4,2,1,2","1,2,3,4","true","","",""
"null","","html-keyboard-response","200","183734","0.0-200.0","317HQ483I8EP6IQY3BVM68LIM4ONIA","A2B6WQG0A9CKXQ","3RSBJ6YZECCLSSQQCGKCTHC9OPAFOK","","<img src=""img/set1/S4.jpg"" width=""540"" height = ""360"" style=""border:16px solid orange"">","null","","","","","","","","","",""
"null","","html-keyboard-response","201","183935","0.0-201.0","317HQ483I8EP6IQY3BVM68LIM4ONIA","A2B6WQG0A9CKXQ","3RSBJ6YZECCLSSQQCGKCTHC9OPAFOK","","","null","","","","","","","","","",""
"733","","image-keyboard-response","202","184670","0.0-202.0","317HQ483I8EP6IQY3BVM68LIM4ONIA","A2B6WQG0A9CKXQ","3RSBJ6YZECCLSSQQCGKCTHC9OPAFOK","","img/set1/S2.jpg","68","2","random","68","random,structured_incentive,structured_normal,structured_load","2,3,4,2,1,2","1,2,3,4","true","","",""
"null","","html-keyboard-response","203","185022","0.0-203.0","317HQ483I8EP6IQY3BVM68LIM4ONIA","A2B6WQG0A9CKXQ","3RSBJ6YZECCLSSQQCGKCTHC9OPAFOK","","<img src=""img/set1/S2.jpg"" width=""540"" height = ""360"" style=""border:16px solid orange"">","null","","","","","","","","","",""
"null","","html-keyboard-response","204","185223","0.0-204.0","317HQ483I8EP6IQY3BVM68LIM4ONIA","A2B6WQG0A9CKXQ","3RSBJ6YZECCLSSQQCGKCTHC9OPAFOK","","","null","","","","","","","","","",""
"812.4000000059605","","image-keyboard-response","205","186037","0.0-205.0","317HQ483I8EP6IQY3BVM68LIM4ONIA","A2B6WQG0A9CKXQ","3RSBJ6YZECCLSSQQCGKCTHC9OPAFOK","","img/set1/S2.jpg","68","2","random","68","random,structured_incentive,structured_normal,structured_load","2,3,4,2,1,2","1,2,3,4","true","","",""
"null","","html-keyboard-response","206","186389","0.0-206.0","317HQ483I8EP6IQY3BVM68LIM4ONIA","A2B6WQG0A9CKXQ","3RSBJ6YZECCLSSQQCGKCTHC9OPAFOK","","<img src=""img/set1/S2.jpg"" width=""540"" height = ""360"" style=""border:16px solid orange"">","null","","","","","","","","","",""
"null","","html-keyboard-response","207","186590","0.0-207.0","317HQ483I8EP6IQY3BVM68LIM4ONIA","A2B6WQG0A9CKXQ","3RSBJ6YZECCLSSQQCGKCTHC9OPAFOK","","","null","","","","","","","","","",""
"1741.5","","image-keyboard-response","208","188333","0.0-208.0","317HQ483I8EP6IQY3BVM68LIM4ONIA","A2B6WQG0A9CKXQ","3RSBJ6YZECCLSSQQCGKCTHC9OPAFOK","","img/set1/S1.jpg","83","1","random","83","random,structured_incentive,structured_normal,structured_load","2,3,4,2,1,2","1,2,3,4","true","","",""
"null","","html-keyboard-response","209","188684","0.0-209.0","317HQ483I8EP6IQY3BVM68LIM4ONIA","A2B6WQG0A9CKXQ","3RSBJ6YZECCLSSQQCGKCTHC9OPAFOK","","<img src=""img/set1/S1.jpg"" width=""540"" height = ""360"" style=""border:16px solid orange"">","null","","","","","","","","","",""
"null","","html-keyboard-response","210","188900","0.0-210.0","317HQ483I8EP6IQY3BVM68LIM4ONIA","A2B6WQG0A9CKXQ","3RSBJ6YZECCLSSQQCGKCTHC9OPAFOK","","","null","","","","","","","","","",""
"null","","image-keyboard-response","211","191402","0.0-211.0","317HQ483I8EP6IQY3BVM68LIM4ONIA","A2B6WQG0A9CKXQ","3RSBJ6YZECCLSSQQCGKCTHC9OPAFOK","","img/set1/S3.jpg","null","3","random","72","random,structured_incentive,structured_normal,structured_load","2,3,4,2,1,2","1,2,3,4","false","","",""
"null","","html-keyboard-response","212","191755","0.0-212.0","317HQ483I8EP6IQY3BVM68LIM4ONIA","A2B6WQG0A9CKXQ","3RSBJ6YZECCLSSQQCGKCTHC9OPAFOK","","<img src=""img/set1/S3.jpg"" width=""540"" height = ""360"">","null","","","","","","","","","",""
"null","","html-keyboard-response","213","191957","0.0-213.0","317HQ483I8EP6IQY3BVM68LIM4ONIA","A2B6WQG0A9CKXQ","3RSBJ6YZECCLSSQQCGKCTHC9OPAFOK","","","null","","","","","","","","","",""
"782.8000000119209","","image-keyboard-response","214","192742","0.0-214.0","317HQ483I8EP6IQY3BVM68LIM4ONIA","A2B6WQG0A9CKXQ","3RSBJ6YZECCLSSQQCGKCTHC9OPAFOK","","img/set1/S2.jpg","68","2","random","68","random,structured_incentive,structured_normal,structured_load","2,3,4,2,1,2","1,2,3,4","true","","",""
"null","","html-keyboard-response","215","193095","0.0-215.0","317HQ483I8EP6IQY3BVM68LIM4ONIA","A2B6WQG0A9CKXQ","3RSBJ6YZECCLSSQQCGKCTHC9OPAFOK","","<img src=""img/set1/S2.jpg"" width=""540"" height = ""360"" style=""border:16px solid orange"">","null","","","","","","","","","",""
"null","","html-keyboard-response","216","193296","0.0-216.0","317HQ483I8EP6IQY3BVM68LIM4ONIA","A2B6WQG0A9CKXQ","3RSBJ6YZECCLSSQQCGKCTHC9OPAFOK","","","null","","","","","","","","","",""
"1644.9000000059605","","image-keyboard-response","217","194942","0.0-217.0","317HQ483I8EP6IQY3BVM68LIM4ONIA","A2B6WQG0A9CKXQ","3RSBJ6YZECCLSSQQCGKCTHC9OPAFOK","","img/set1/S3.jpg","83","3","random","72","random,structured_incentive,structured_normal,structured_load","2,3,4,2,1,2","1,2,3,4","false","","",""
"null","","html-keyboard-response","218","195295","0.0-218.0","317HQ483I8EP6IQY3BVM68LIM4ONIA","A2B6WQG0A9CKXQ","3RSBJ6YZECCLSSQQCGKCTHC9OPAFOK","","<img src=""img/set1/S3.jpg"" width=""540"" height = ""360"">","null","","","","","","","","","",""
"null","","html-keyboard-response","219","195497","0.0-219.0","317HQ483I8EP6IQY3BVM68LIM4ONIA","A2B6WQG0A9CKXQ","3RSBJ6YZECCLSSQQCGKCTHC9OPAFOK","","","null","","","","","","","","","",""
"1082.800000011921","","image-keyboard-response","220","196580","0.0-220.0","317HQ483I8EP6IQY3BVM68LIM4ONIA","A2B6WQG0A9CKXQ","3RSBJ6YZECCLSSQQCGKCTHC9OPAFOK","","img/set1/S1.jpg","83","1","random","83","random,structured_incentive,structured_normal,structured_load","2,3,4,2,1,2","1,2,3,4","true","","",""
"null","","html-keyboard-response","221","196933","0.0-221.0","317HQ483I8EP6IQY3BVM68LIM4ONIA","A2B6WQG0A9CKXQ","3RSBJ6YZECCLSSQQCGKCTHC9OPAFOK","","<img src=""img/set1/S1.jpg"" width=""540"" height = ""360"" style=""border:16px solid orange"">","null","","","","","","","","","",""
"null","","html-keyboard-response","222","197134","0.0-222.0","317HQ483I8EP6IQY3BVM68LIM4ONIA","A2B6WQG0A9CKXQ","3RSBJ6YZECCLSSQQCGKCTHC9OPAFOK","","","null","","","","","","","","","",""
"null","","image-keyboard-response","223","199636","0.0-223.0","317HQ483I8EP6IQY3BVM68LIM4ONIA","A2B6WQG0A9CKXQ","3RSBJ6YZECCLSSQQCGKCTHC9OPAFOK","","img/set1/S3.jpg","null","3","random","72","random,structured_incentive,structured_normal,structured_load","2,3,4,2,1,2","1,2,3,4","false","","",""
"null","","html-keyboard-response","224","199989","0.0-224.0","317HQ483I8EP6IQY3BVM68LIM4ONIA","A2B6WQG0A9CKXQ","3RSBJ6YZECCLSSQQCGKCTHC9OPAFOK","","<img src=""img/set1/S3.jpg"" width=""540"" height = ""360"">","null","","","","","","","","","",""
"null","","html-keyboard-response","225","200190","0.0-225.0","317HQ483I8EP6IQY3BVM68LIM4ONIA","A2B6WQG0A9CKXQ","3RSBJ6YZECCLSSQQCGKCTHC9OPAFOK","","","null","","","","","","","","","",""
"830.3000000119209","","image-keyboard-response","226","201022","0.0-226.0","317HQ483I8EP6IQY3BVM68LIM4ONIA","A2B6WQG0A9CKXQ","3RSBJ6YZECCLSSQQCGKCTHC9OPAFOK","","img/set1/S1.jpg","83","1","random","83","random,structured_incentive,structured_normal,structured_load","2,3,4,2,1,2","1,2,3,4","true","","",""
"null","","html-keyboard-response","227","201374","0.0-227.0","317HQ483I8EP6IQY3BVM68LIM4ONIA","A2B6WQG0A9CKXQ","3RSBJ6YZECCLSSQQCGKCTHC9OPAFOK","","<img src=""img/set1/S1.jpg"" width=""540"" height = ""360"" style=""border:16px solid orange"">","null","","","","","","","","","",""
"null","","html-keyboard-response","228","201576","0.0-228.0","317HQ483I8EP6IQY3BVM68LIM4ONIA","A2B6WQG0A9CKXQ","3RSBJ6YZECCLSSQQCGKCTHC9OPAFOK","","","null","","","","","","","","","",""
"747","","image-keyboard-response","229","202325","0.0-229.0","317HQ483I8EP6IQY3BVM68LIM4ONIA","A2B6WQG0A9CKXQ","3RSBJ6YZECCLSSQQCGKCTHC9OPAFOK","","img/set1/S2.jpg","68","2","random","68","random,structured_incentive,structured_normal,structured_load","2,3,4,2,1,2","1,2,3,4","true","","",""
"null","","html-keyboard-response","230","202677","0.0-230.0","317HQ483I8EP6IQY3BVM68LIM4ONIA","A2B6WQG0A9CKXQ","3RSBJ6YZECCLSSQQCGKCTHC9OPAFOK","","<img src=""img/set1/S2.jpg"" width=""540"" height = ""360"" style=""border:16px solid orange"">","null","","","","","","","","","",""
"null","","html-keyboard-response","231","202879","0.0-231.0","317HQ483I8EP6IQY3BVM68LIM4ONIA","A2B6WQG0A9CKXQ","3RSBJ6YZECCLSSQQCGKCTHC9OPAFOK","","","null","","","","","","","","","",""
"709.6999999880791","","image-keyboard-response","232","203590","0.0-232.0","317HQ483I8EP6IQY3BVM68LIM4ONIA","A2B6WQG0A9CKXQ","3RSBJ6YZECCLSSQQCGKCTHC9OPAFOK","","img/set1/S2.jpg","68","2","random","68","random,structured_incentive,structured_normal,structured_load","2,3,4,2,1,2","1,2,3,4","true","","",""
"null","","html-keyboard-response","233","203943","0.0-233.0","317HQ483I8EP6IQY3BVM68LIM4ONIA","A2B6WQG0A9CKXQ","3RSBJ6YZECCLSSQQCGKCTHC9OPAFOK","","<img src=""img/set1/S2.jpg"" width=""540"" height = ""360"" style=""border:16px solid orange"">","null","","","","","","","","","",""
"null","","html-keyboard-response","234","204144","0.0-234.0","317HQ483I8EP6IQY3BVM68LIM4ONIA","A2B6WQG0A9CKXQ","3RSBJ6YZECCLSSQQCGKCTHC9OPAFOK","","","null","","","","","","","","","",""
"1099.699999988079","","image-keyboard-response","235","205244","0.0-235.0","317HQ483I8EP6IQY3BVM68LIM4ONIA","A2B6WQG0A9CKXQ","3RSBJ6YZECCLSSQQCGKCTHC9OPAFOK","","img/set1/S3.jpg","74","3","random","72","random,structured_incentive,structured_normal,structured_load","2,3,4,2,1,2","1,2,3,4","false","","",""
"null","","html-keyboard-response","236","205596","0.0-236.0","317HQ483I8EP6IQY3BVM68LIM4ONIA","A2B6WQG0A9CKXQ","3RSBJ6YZECCLSSQQCGKCTHC9OPAFOK","","<img src=""img/set1/S3.jpg"" width=""540"" height = ""360"">","null","","","","","","","","","",""
"null","","html-keyboard-response","237","205798","0.0-237.0","317HQ483I8EP6IQY3BVM68LIM4ONIA","A2B6WQG0A9CKXQ","3RSBJ6YZECCLSSQQCGKCTHC9OPAFOK","","","null","","","","","","","","","",""
"1357.5999999940395","","image-keyboard-response","238","207158","0.0-238.0","317HQ483I8EP6IQY3BVM68LIM4ONIA","A2B6WQG0A9CKXQ","3RSBJ6YZECCLSSQQCGKCTHC9OPAFOK","","img/set1/S3.jpg","68","3","random","72","random,structured_incentive,structured_normal,structured_load","2,3,4,2,1,2","1,2,3,4","false","","",""
"null","","html-keyboard-response","239","207511","0.0-239.0","317HQ483I8EP6IQY3BVM68LIM4ONIA","A2B6WQG0A9CKXQ","3RSBJ6YZECCLSSQQCGKCTHC9OPAFOK","","<img src=""img/set1/S3.jpg"" width=""540"" height = ""360"">","null","","","","","","","","","",""
"null","","html-keyboard-response","240","207712","0.0-240.0","317HQ483I8EP6IQY3BVM68LIM4ONIA","A2B6WQG0A9CKXQ","3RSBJ6YZECCLSSQQCGKCTHC9OPAFOK","","","null","","","","","","","","","",""
"1067.699999988079","","image-keyboard-response","241","208781","0.0-241.0","317HQ483I8EP6IQY3BVM68LIM4ONIA","A2B6WQG0A9CKXQ","3RSBJ6YZECCLSSQQCGKCTHC9OPAFOK","","img/set1/S1.jpg","83","1","random","83","random,structured_incentive,structured_normal,structured_load","2,3,4,2,1,2","1,2,3,4","true","","",""
"null","","html-keyboard-response","242","209133","0.0-242.0","317HQ483I8EP6IQY3BVM68LIM4ONIA","A2B6WQG0A9CKXQ","3RSBJ6YZECCLSSQQCGKCTHC9OPAFOK","","<img src=""img/set1/S1.jpg"" width=""540"" height = ""360"" style=""border:16px solid orange"">","null","","","","","","","","","",""
"null","","html-keyboard-response","243","209335","0.0-243.0","317HQ483I8EP6IQY3BVM68LIM4ONIA","A2B6WQG0A9CKXQ","3RSBJ6YZECCLSSQQCGKCTHC9OPAFOK","","","null","","","","","","","","","",""
"701.5","","image-keyboard-response","244","210038","0.0-244.0","317HQ483I8EP6IQY3BVM68LIM4ONIA","A2B6WQG0A9CKXQ","3RSBJ6YZECCLSSQQCGKCTHC9OPAFOK","","img/set1/S2.jpg","68","2","random","68","random,structured_incentive,structured_normal,structured_load","2,3,4,2,1,2","1,2,3,4","true","","",""
"null","","html-keyboard-response","245","210391","0.0-245.0","317HQ483I8EP6IQY3BVM68LIM4ONIA","A2B6WQG0A9CKXQ","3RSBJ6YZECCLSSQQCGKCTHC9OPAFOK","","<img src=""img/set1/S2.jpg"" width=""540"" height = ""360"" style=""border:16px solid orange"">","null","","","","","","","","","",""
"null","","html-keyboard-response","246","210593","0.0-246.0","317HQ483I8EP6IQY3BVM68LIM4ONIA","A2B6WQG0A9CKXQ","3RSBJ6YZECCLSSQQCGKCTHC9OPAFOK","","","null","","","","","","","","","",""
"2130.5999999940395","","image-keyboard-response","247","212725","0.0-247.0","317HQ483I8EP6IQY3BVM68LIM4ONIA","A2B6WQG0A9CKXQ","3RSBJ6YZECCLSSQQCGKCTHC9OPAFOK","","img/set1/S2.jpg","68","2","random","68","random,structured_incentive,structured_normal,structured_load","2,3,4,2,1,2","1,2,3,4","true","","",""
"null","","html-keyboard-response","248","213077","0.0-248.0","317HQ483I8EP6IQY3BVM68LIM4ONIA","A2B6WQG0A9CKXQ","3RSBJ6YZECCLSSQQCGKCTHC9OPAFOK","","<img src=""img/set1/S2.jpg"" width=""540"" height = ""360"" style=""border:16px solid orange"">","null","","","","","","","","","",""
"null","","html-keyboard-response","249","213279","0.0-249.0","317HQ483I8EP6IQY3BVM68LIM4ONIA","A2B6WQG0A9CKXQ","3RSBJ6YZECCLSSQQCGKCTHC9OPAFOK","","","null","","","","","","","","","",""
"884.2999999821186","","image-keyboard-response","250","214165","0.0-250.0","317HQ483I8EP6IQY3BVM68LIM4ONIA","A2B6WQG0A9CKXQ","3RSBJ6YZECCLSSQQCGKCTHC9OPAFOK","","img/set1/S3.jpg","74","3","random","72","random,structured_incentive,structured_normal,structured_load","2,3,4,2,1,2","1,2,3,4","false","","",""
"null","","html-keyboard-response","251","214516","0.0-251.0","317HQ483I8EP6IQY3BVM68LIM4ONIA","A2B6WQG0A9CKXQ","3RSBJ6YZECCLSSQQCGKCTHC9OPAFOK","","<img src=""img/set1/S3.jpg"" width=""540"" height = ""360"">","null","","","","","","","","","",""
"null","","html-keyboard-response","252","214718","0.0-252.0","317HQ483I8EP6IQY3BVM68LIM4ONIA","A2B6WQG0A9CKXQ","3RSBJ6YZECCLSSQQCGKCTHC9OPAFOK","","","null","","","","","","","","","",""
"1653.5","","image-keyboard-response","253","216373","0.0-253.0","317HQ483I8EP6IQY3BVM68LIM4ONIA","A2B6WQG0A9CKXQ","3RSBJ6YZECCLSSQQCGKCTHC9OPAFOK","","img/set1/S1.jpg","83","1","random","83","random,structured_incentive,structured_normal,structured_load","2,3,4,2,1,2","1,2,3,4","true","","",""
"null","","html-keyboard-response","254","216725","0.0-254.0","317HQ483I8EP6IQY3BVM68LIM4ONIA","A2B6WQG0A9CKXQ","3RSBJ6YZECCLSSQQCGKCTHC9OPAFOK","","<img src=""img/set1/S1.jpg"" width=""540"" height = ""360"" style=""border:16px solid orange"">","null","","","","","","","","","",""
"null","","html-keyboard-response","255","216935","0.0-255.0","317HQ483I8EP6IQY3BVM68LIM4ONIA","A2B6WQG0A9CKXQ","3RSBJ6YZECCLSSQQCGKCTHC9OPAFOK","","","null","","","","","","","","","",""
"549.8000000119209","","image-keyboard-response","256","217486","0.0-256.0","317HQ483I8EP6IQY3BVM68LIM4ONIA","A2B6WQG0A9CKXQ","3RSBJ6YZECCLSSQQCGKCTHC9OPAFOK","","img/set1/S1.jpg","83","1","random","83","random,structured_incentive,structured_normal,structured_load","2,3,4,2,1,2","1,2,3,4","true","","",""
"null","","html-keyboard-response","257","217838","0.0-257.0","317HQ483I8EP6IQY3BVM68LIM4ONIA","A2B6WQG0A9CKXQ","3RSBJ6YZECCLSSQQCGKCTHC9OPAFOK","","<img src=""img/set1/S1.jpg"" width=""540"" height = ""360"" style=""border:16px solid orange"">","null","","","","","","","","","",""
"null","","html-keyboard-response","258","218039","0.0-258.0","317HQ483I8EP6IQY3BVM68LIM4ONIA","A2B6WQG0A9CKXQ","3RSBJ6YZECCLSSQQCGKCTHC9OPAFOK","","","null","","","","","","","","","",""
"637.5","","image-keyboard-response","259","218678","0.0-259.0","317HQ483I8EP6IQY3BVM68LIM4ONIA","A2B6WQG0A9CKXQ","3RSBJ6YZECCLSSQQCGKCTHC9OPAFOK","","img/set1/S2.jpg","68","2","random","68","random,structured_incentive,structured_normal,structured_load","2,3,4,2,1,2","1,2,3,4","true","","",""
"null","","html-keyboard-response","260","219031","0.0-260.0","317HQ483I8EP6IQY3BVM68LIM4ONIA","A2B6WQG0A9CKXQ","3RSBJ6YZECCLSSQQCGKCTHC9OPAFOK","","<img src=""img/set1/S2.jpg"" width=""540"" height = ""360"" style=""border:16px solid orange"">","null","","","","","","","","","",""
"null","","html-keyboard-response","261","219233","0.0-261.0","317HQ483I8EP6IQY3BVM68LIM4ONIA","A2B6WQG0A9CKXQ","3RSBJ6YZECCLSSQQCGKCTHC9OPAFOK","","","null","","","","","","","","","",""
"1723.5999999940395","","image-keyboard-response","262","220958","0.0-262.0","317HQ483I8EP6IQY3BVM68LIM4ONIA","A2B6WQG0A9CKXQ","3RSBJ6YZECCLSSQQCGKCTHC9OPAFOK","","img/set1/S3.jpg","68","3","random","72","random,structured_incentive,structured_normal,structured_load","2,3,4,2,1,2","1,2,3,4","false","","",""
"null","","html-keyboard-response","263","221312","0.0-263.0","317HQ483I8EP6IQY3BVM68LIM4ONIA","A2B6WQG0A9CKXQ","3RSBJ6YZECCLSSQQCGKCTHC9OPAFOK","","<img src=""img/set1/S3.jpg"" width=""540"" height = ""360"">","null","","","","","","","","","",""
"null","","html-keyboard-response","264","221515","0.0-264.0","317HQ483I8EP6IQY3BVM68LIM4ONIA","A2B6WQG0A9CKXQ","3RSBJ6YZECCLSSQQCGKCTHC9OPAFOK","","","null","","","","","","","","","",""
"786.4000000059605","","image-keyboard-response","265","222302","0.0-265.0","317HQ483I8EP6IQY3BVM68LIM4ONIA","A2B6WQG0A9CKXQ","3RSBJ6YZECCLSSQQCGKCTHC9OPAFOK","","img/set1/S4.jpg","74","4","random","74","random,structured_incentive,structured_normal,structured_load","2,3,4,2,1,2","1,2,3,4","true","","",""
"null","","html-keyboard-response","266","222655","0.0-266.0","317HQ483I8EP6IQY3BVM68LIM4ONIA","A2B6WQG0A9CKXQ","3RSBJ6YZECCLSSQQCGKCTHC9OPAFOK","","<img src=""img/set1/S4.jpg"" width=""540"" height = ""360"" style=""border:16px solid orange"">","null","","","","","","","","","",""
"null","","html-keyboard-response","267","222860","0.0-267.0","317HQ483I8EP6IQY3BVM68LIM4ONIA","A2B6WQG0A9CKXQ","3RSBJ6YZECCLSSQQCGKCTHC9OPAFOK","","","null","","","","","","","","","",""
"801.1999999880791","","image-keyboard-response","268","223662","0.0-268.0","317HQ483I8EP6IQY3BVM68LIM4ONIA","A2B6WQG0A9CKXQ","3RSBJ6YZECCLSSQQCGKCTHC9OPAFOK","","img/set1/S1.jpg","83","1","random","83","random,structured_incentive,structured_normal,structured_load","2,3,4,2,1,2","1,2,3,4","true","","",""
"null","","html-keyboard-response","269","224015","0.0-269.0","317HQ483I8EP6IQY3BVM68LIM4ONIA","A2B6WQG0A9CKXQ","3RSBJ6YZECCLSSQQCGKCTHC9OPAFOK","","<img src=""img/set1/S1.jpg"" width=""540"" height = ""360"" style=""border:16px solid orange"">","null","","","","","","","","","",""
"null","","html-keyboard-response","270","224216","0.0-270.0","317HQ483I8EP6IQY3BVM68LIM4ONIA","A2B6WQG0A9CKXQ","3RSBJ6YZECCLSSQQCGKCTHC9OPAFOK","","","null","","","","","","","","","",""
"644","","image-keyboard-response","271","224862","0.0-271.0","317HQ483I8EP6IQY3BVM68LIM4ONIA","A2B6WQG0A9CKXQ","3RSBJ6YZECCLSSQQCGKCTHC9OPAFOK","","img/set1/S1.jpg","83","1","random","83","random,structured_incentive,structured_normal,structured_load","2,3,4,2,1,2","1,2,3,4","true","","",""
"null","","html-keyboard-response","272","225215","0.0-272.0","317HQ483I8EP6IQY3BVM68LIM4ONIA","A2B6WQG0A9CKXQ","3RSBJ6YZECCLSSQQCGKCTHC9OPAFOK","","<img src=""img/set1/S1.jpg"" width=""540"" height = ""360"" style=""border:16px solid orange"">","null","","","","","","","","","",""
"null","","html-keyboard-response","273","225417","0.0-273.0","317HQ483I8EP6IQY3BVM68LIM4ONIA","A2B6WQG0A9CKXQ","3RSBJ6YZECCLSSQQCGKCTHC9OPAFOK","","","null","","","","","","","","","",""
"683.0999999940395","","image-keyboard-response","274","226102","0.0-274.0","317HQ483I8EP6IQY3BVM68LIM4ONIA","A2B6WQG0A9CKXQ","3RSBJ6YZECCLSSQQCGKCTHC9OPAFOK","","img/set1/S4.jpg","74","4","random","74","random,structured_incentive,structured_normal,structured_load","2,3,4,2,1,2","1,2,3,4","true","","",""
"null","","html-keyboard-response","275","226455","0.0-275.0","317HQ483I8EP6IQY3BVM68LIM4ONIA","A2B6WQG0A9CKXQ","3RSBJ6YZECCLSSQQCGKCTHC9OPAFOK","","<img src=""img/set1/S4.jpg"" width=""540"" height = ""360"" style=""border:16px solid orange"">","null","","","","","","","","","",""
"null","","html-keyboard-response","276","226657","0.0-276.0","317HQ483I8EP6IQY3BVM68LIM4ONIA","A2B6WQG0A9CKXQ","3RSBJ6YZECCLSSQQCGKCTHC9OPAFOK","","","null","","","","","","","","","",""
"1330.699999988079","","image-keyboard-response","277","227990","0.0-277.0","317HQ483I8EP6IQY3BVM68LIM4ONIA","A2B6WQG0A9CKXQ","3RSBJ6YZECCLSSQQCGKCTHC9OPAFOK","","img/set1/S3.jpg","68","3","random","72","random,structured_incentive,structured_normal,structured_load","2,3,4,2,1,2","1,2,3,4","false","","",""
"null","","html-keyboard-response","278","228342","0.0-278.0","317HQ483I8EP6IQY3BVM68LIM4ONIA","A2B6WQG0A9CKXQ","3RSBJ6YZECCLSSQQCGKCTHC9OPAFOK","","<img src=""img/set1/S3.jpg"" width=""540"" height = ""360"">","null","","","","","","","","","",""
"null","","html-keyboard-response","279","228545","0.0-279.0","317HQ483I8EP6IQY3BVM68LIM4ONIA","A2B6WQG0A9CKXQ","3RSBJ6YZECCLSSQQCGKCTHC9OPAFOK","","","null","","","","","","","","","",""
"827.3000000119209","","image-keyboard-response","280","229374","0.0-280.0","317HQ483I8EP6IQY3BVM68LIM4ONIA","A2B6WQG0A9CKXQ","3RSBJ6YZECCLSSQQCGKCTHC9OPAFOK","","img/set1/S3.jpg","83","3","random","72","random,structured_incentive,structured_normal,structured_load","2,3,4,2,1,2","1,2,3,4","false","","",""
"null","","html-keyboard-response","281","229726","0.0-281.0","317HQ483I8EP6IQY3BVM68LIM4ONIA","A2B6WQG0A9CKXQ","3RSBJ6YZECCLSSQQCGKCTHC9OPAFOK","","<img src=""img/set1/S3.jpg"" width=""540"" height = ""360"">","null","","","","","","","","","",""
"null","","html-keyboard-response","282","229927","0.0-282.0","317HQ483I8EP6IQY3BVM68LIM4ONIA","A2B6WQG0A9CKXQ","3RSBJ6YZECCLSSQQCGKCTHC9OPAFOK","","","null","","","","","","","","","",""
"685.4000000059605","","image-keyboard-response","283","230614","0.0-283.0","317HQ483I8EP6IQY3BVM68LIM4ONIA","A2B6WQG0A9CKXQ","3RSBJ6YZECCLSSQQCGKCTHC9OPAFOK","","img/set1/S4.jpg","74","4","random","74","random,structured_incentive,structured_normal,structured_load","2,3,4,2,1,2","1,2,3,4","true","","",""
"null","","html-keyboard-response","284","230966","0.0-284.0","317HQ483I8EP6IQY3BVM68LIM4ONIA","A2B6WQG0A9CKXQ","3RSBJ6YZECCLSSQQCGKCTHC9OPAFOK","","<img src=""img/set1/S4.jpg"" width=""540"" height = ""360"" style=""border:16px solid orange"">","null","","","","","","","","","",""
"null","","html-keyboard-response","285","231172","0.0-285.0","317HQ483I8EP6IQY3BVM68LIM4ONIA","A2B6WQG0A9CKXQ","3RSBJ6YZECCLSSQQCGKCTHC9OPAFOK","","","null","","","","","","","","","",""
"735.2000000178814","","image-keyboard-response","286","231908","0.0-286.0","317HQ483I8EP6IQY3BVM68LIM4ONIA","A2B6WQG0A9CKXQ","3RSBJ6YZECCLSSQQCGKCTHC9OPAFOK","","img/set1/S1.jpg","83","1","random","83","random,structured_incentive,structured_normal,structured_load","2,3,4,2,1,2","1,2,3,4","true","","",""
"null","","html-keyboard-response","287","232261","0.0-287.0","317HQ483I8EP6IQY3BVM68LIM4ONIA","A2B6WQG0A9CKXQ","3RSBJ6YZECCLSSQQCGKCTHC9OPAFOK","","<img src=""img/set1/S1.jpg"" width=""540"" height = ""360"" style=""border:16px solid orange"">","null","","","","","","","","","",""
"null","","html-keyboard-response","288","232462","0.0-288.0","317HQ483I8EP6IQY3BVM68LIM4ONIA","A2B6WQG0A9CKXQ","3RSBJ6YZECCLSSQQCGKCTHC9OPAFOK","","","null","","","","","","","","","",""
"557","","image-keyboard-response","289","233021","0.0-289.0","317HQ483I8EP6IQY3BVM68LIM4ONIA","A2B6WQG0A9CKXQ","3RSBJ6YZECCLSSQQCGKCTHC9OPAFOK","","img/set1/S1.jpg","83","1","random","83","random,structured_incentive,structured_normal,structured_load","2,3,4,2,1,2","1,2,3,4","true","","",""
"null","","html-keyboard-response","290","233373","0.0-290.0","317HQ483I8EP6IQY3BVM68LIM4ONIA","A2B6WQG0A9CKXQ","3RSBJ6YZECCLSSQQCGKCTHC9OPAFOK","","<img src=""img/set1/S1.jpg"" width=""540"" height = ""360"" style=""border:16px solid orange"">","null","","","","","","","","","",""
"null","","html-keyboard-response","291","233586","0.0-291.0","317HQ483I8EP6IQY3BVM68LIM4ONIA","A2B6WQG0A9CKXQ","3RSBJ6YZECCLSSQQCGKCTHC9OPAFOK","","","null","","","","","","","","","",""
"2011.199999988079","","image-keyboard-response","292","235598","0.0-292.0","317HQ483I8EP6IQY3BVM68LIM4ONIA","A2B6WQG0A9CKXQ","3RSBJ6YZECCLSSQQCGKCTHC9OPAFOK","","img/set1/S1.jpg","83","1","random","83","random,structured_incentive,structured_normal,structured_load","2,3,4,2,1,2","1,2,3,4","true","","",""
"null","","html-keyboard-response","293","235951","0.0-293.0","317HQ483I8EP6IQY3BVM68LIM4ONIA","A2B6WQG0A9CKXQ","3RSBJ6YZECCLSSQQCGKCTHC9OPAFOK","","<img src=""img/set1/S1.jpg"" width=""540"" height = ""360"" style=""border:16px solid orange"">","null","","","","","","","","","",""
"null","","html-keyboard-response","294","236153","0.0-294.0","317HQ483I8EP6IQY3BVM68LIM4ONIA","A2B6WQG0A9CKXQ","3RSBJ6YZECCLSSQQCGKCTHC9OPAFOK","","","null","","","","","","","","","",""
"746.9000000059605","","image-keyboard-response","295","236902","0.0-295.0","317HQ483I8EP6IQY3BVM68LIM4ONIA","A2B6WQG0A9CKXQ","3RSBJ6YZECCLSSQQCGKCTHC9OPAFOK","","img/set1/S4.jpg","74","4","random","74","random,structured_incentive,structured_normal,structured_load","2,3,4,2,1,2","1,2,3,4","true","","",""
"null","","html-keyboard-response","296","237254","0.0-296.0","317HQ483I8EP6IQY3BVM68LIM4ONIA","A2B6WQG0A9CKXQ","3RSBJ6YZECCLSSQQCGKCTHC9OPAFOK","","<img src=""img/set1/S4.jpg"" width=""540"" height = ""360"" style=""border:16px solid orange"">","null","","","","","","","","","",""
"null","","html-keyboard-response","297","237456","0.0-297.0","317HQ483I8EP6IQY3BVM68LIM4ONIA","A2B6WQG0A9CKXQ","3RSBJ6YZECCLSSQQCGKCTHC9OPAFOK","","","null","","","","","","","","","",""
"412","","image-keyboard-response","298","237870","0.0-298.0","317HQ483I8EP6IQY3BVM68LIM4ONIA","A2B6WQG0A9CKXQ","3RSBJ6YZECCLSSQQCGKCTHC9OPAFOK","","img/set1/S4.jpg","74","4","random","74","random,structured_incentive,structured_normal,structured_load","2,3,4,2,1,2","1,2,3,4","true","","",""
"null","","html-keyboard-response","299","238222","0.0-299.0","317HQ483I8EP6IQY3BVM68LIM4ONIA","A2B6WQG0A9CKXQ","3RSBJ6YZECCLSSQQCGKCTHC9OPAFOK","","<img src=""img/set1/S4.jpg"" width=""540"" height = ""360"" style=""border:16px solid orange"">","null","","","","","","","","","",""
"null","","html-keyboard-response","300","238424","0.0-300.0","317HQ483I8EP6IQY3BVM68LIM4ONIA","A2B6WQG0A9CKXQ","3RSBJ6YZECCLSSQQCGKCTHC9OPAFOK","","","null","","","","","","","","","",""
"460.69999998807907","","image-keyboard-response","301","238885","0.0-301.0","317HQ483I8EP6IQY3BVM68LIM4ONIA","A2B6WQG0A9CKXQ","3RSBJ6YZECCLSSQQCGKCTHC9OPAFOK","","img/set1/S4.jpg","74","4","random","74","random,structured_incentive,structured_normal,structured_load","2,3,4,2,1,2","1,2,3,4","true","","",""
"null","","html-keyboard-response","302","239238","0.0-302.0","317HQ483I8EP6IQY3BVM68LIM4ONIA","A2B6WQG0A9CKXQ","3RSBJ6YZECCLSSQQCGKCTHC9OPAFOK","","<img src=""img/set1/S4.jpg"" width=""540"" height = ""360"" style=""border:16px solid orange"">","null","","","","","","","","","",""
"null","","html-keyboard-response","303","239440","0.0-303.0","317HQ483I8EP6IQY3BVM68LIM4ONIA","A2B6WQG0A9CKXQ","3RSBJ6YZECCLSSQQCGKCTHC9OPAFOK","","","null","","","","","","","","","",""
"null","","image-keyboard-response","304","241943","0.0-304.0","317HQ483I8EP6IQY3BVM68LIM4ONIA","A2B6WQG0A9CKXQ","3RSBJ6YZECCLSSQQCGKCTHC9OPAFOK","","img/set1/S3.jpg","null","3","random","72","random,structured_incentive,structured_normal,structured_load","2,3,4,2,1,2","1,2,3,4","false","","",""
"null","","html-keyboard-response","305","242296","0.0-305.0","317HQ483I8EP6IQY3BVM68LIM4ONIA","A2B6WQG0A9CKXQ","3RSBJ6YZECCLSSQQCGKCTHC9OPAFOK","","<img src=""img/set1/S3.jpg"" width=""540"" height = ""360"">","null","","","","","","","","","",""
"null","","html-keyboard-response","306","242499","0.0-306.0","317HQ483I8EP6IQY3BVM68LIM4ONIA","A2B6WQG0A9CKXQ","3RSBJ6YZECCLSSQQCGKCTHC9OPAFOK","","","null","","","","","","","","","",""
"1464.7000000178814","","image-keyboard-response","307","243965","0.0-307.0","317HQ483I8EP6IQY3BVM68LIM4ONIA","A2B6WQG0A9CKXQ","3RSBJ6YZECCLSSQQCGKCTHC9OPAFOK","","img/set1/S2.jpg","68","2","random","68","random,structured_incentive,structured_normal,structured_load","2,3,4,2,1,2","1,2,3,4","true","","",""
"null","","html-keyboard-response","308","244318","0.0-308.0","317HQ483I8EP6IQY3BVM68LIM4ONIA","A2B6WQG0A9CKXQ","3RSBJ6YZECCLSSQQCGKCTHC9OPAFOK","","<img src=""img/set1/S2.jpg"" width=""540"" height = ""360"" style=""border:16px solid orange"">","null","","","","","","","","","",""
"null","","html-keyboard-response","309","244519","0.0-309.0","317HQ483I8EP6IQY3BVM68LIM4ONIA","A2B6WQG0A9CKXQ","3RSBJ6YZECCLSSQQCGKCTHC9OPAFOK","","","null","","","","","","","","","",""
"1340","","image-keyboard-response","310","245860","0.0-310.0","317HQ483I8EP6IQY3BVM68LIM4ONIA","A2B6WQG0A9CKXQ","3RSBJ6YZECCLSSQQCGKCTHC9OPAFOK","","img/set1/S3.jpg","83","3","random","72","random,structured_incentive,structured_normal,structured_load","2,3,4,2,1,2","1,2,3,4","false","","",""
"null","","html-keyboard-response","311","246212","0.0-311.0","317HQ483I8EP6IQY3BVM68LIM4ONIA","A2B6WQG0A9CKXQ","3RSBJ6YZECCLSSQQCGKCTHC9OPAFOK","","<img src=""img/set1/S3.jpg"" width=""540"" height = ""360"">","null","","","","","","","","","",""
"null","","html-keyboard-response","312","246414","0.0-312.0","317HQ483I8EP6IQY3BVM68LIM4ONIA","A2B6WQG0A9CKXQ","3RSBJ6YZECCLSSQQCGKCTHC9OPAFOK","","","null","","","","","","","","","",""
"597","","image-keyboard-response","313","247013","0.0-313.0","317HQ483I8EP6IQY3BVM68LIM4ONIA","A2B6WQG0A9CKXQ","3RSBJ6YZECCLSSQQCGKCTHC9OPAFOK","","img/set1/S2.jpg","68","2","random","68","random,structured_incentive,structured_normal,structured_load","2,3,4,2,1,2","1,2,3,4","true","","",""
"null","","html-keyboard-response","314","247366","0.0-314.0","317HQ483I8EP6IQY3BVM68LIM4ONIA","A2B6WQG0A9CKXQ","3RSBJ6YZECCLSSQQCGKCTHC9OPAFOK","","<img src=""img/set1/S2.jpg"" width=""540"" height = ""360"" style=""border:16px solid orange"">","null","","","","","","","","","",""
"null","","html-keyboard-response","315","247568","0.0-315.0","317HQ483I8EP6IQY3BVM68LIM4ONIA","A2B6WQG0A9CKXQ","3RSBJ6YZECCLSSQQCGKCTHC9OPAFOK","","","null","","","","","","","","","",""
"731.1999999880791","","image-keyboard-response","316","248300","0.0-316.0","317HQ483I8EP6IQY3BVM68LIM4ONIA","A2B6WQG0A9CKXQ","3RSBJ6YZECCLSSQQCGKCTHC9OPAFOK","","img/set1/S4.jpg","74","4","random","74","random,structured_incentive,structured_normal,structured_load","2,3,4,2,1,2","1,2,3,4","true","","",""
"null","","html-keyboard-response","317","248652","0.0-317.0","317HQ483I8EP6IQY3BVM68LIM4ONIA","A2B6WQG0A9CKXQ","3RSBJ6YZECCLSSQQCGKCTHC9OPAFOK","","<img src=""img/set1/S4.jpg"" width=""540"" height = ""360"" style=""border:16px solid orange"">","null","","","","","","","","","",""
"null","","html-keyboard-response","318","248855","0.0-318.0","317HQ483I8EP6IQY3BVM68LIM4ONIA","A2B6WQG0A9CKXQ","3RSBJ6YZECCLSSQQCGKCTHC9OPAFOK","","","null","","","","","","","","","",""
"492.40000000596046","","image-keyboard-response","319","249348","0.0-319.0","317HQ483I8EP6IQY3BVM68LIM4ONIA","A2B6WQG0A9CKXQ","3RSBJ6YZECCLSSQQCGKCTHC9OPAFOK","","img/set1/S4.jpg","74","4","random","74","random,structured_incentive,structured_normal,structured_load","2,3,4,2,1,2","1,2,3,4","true","","",""
"null","","html-keyboard-response","320","249700","0.0-320.0","317HQ483I8EP6IQY3BVM68LIM4ONIA","A2B6WQG0A9CKXQ","3RSBJ6YZECCLSSQQCGKCTHC9OPAFOK","","<img src=""img/set1/S4.jpg"" width=""540"" height = ""360"" style=""border:16px solid orange"">","null","","","","","","","","","",""
"null","","html-keyboard-response","321","249902","0.0-321.0","317HQ483I8EP6IQY3BVM68LIM4ONIA","A2B6WQG0A9CKXQ","3RSBJ6YZECCLSSQQCGKCTHC9OPAFOK","","","null","","","","","","","","","",""
"508.69999998807907","","image-keyboard-response","322","250412","0.0-322.0","317HQ483I8EP6IQY3BVM68LIM4ONIA","A2B6WQG0A9CKXQ","3RSBJ6YZECCLSSQQCGKCTHC9OPAFOK","","img/set1/S4.jpg","74","4","random","74","random,structured_incentive,structured_normal,structured_load","2,3,4,2,1,2","1,2,3,4","true","","",""
"null","","html-keyboard-response","323","250764","0.0-323.0","317HQ483I8EP6IQY3BVM68LIM4ONIA","A2B6WQG0A9CKXQ","3RSBJ6YZECCLSSQQCGKCTHC9OPAFOK","","<img src=""img/set1/S4.jpg"" width=""540"" height = ""360"" style=""border:16px solid orange"">","null","","","","","","","","","",""
"null","","html-keyboard-response","324","250966","0.0-324.0","317HQ483I8EP6IQY3BVM68LIM4ONIA","A2B6WQG0A9CKXQ","3RSBJ6YZECCLSSQQCGKCTHC9OPAFOK","","","null","","","","","","","","","",""
"436.59999999403954","","image-keyboard-response","325","251405","0.0-325.0","317HQ483I8EP6IQY3BVM68LIM4ONIA","A2B6WQG0A9CKXQ","3RSBJ6YZECCLSSQQCGKCTHC9OPAFOK","","img/set1/S4.jpg","74","4","random","74","random,structured_incentive,structured_normal,structured_load","2,3,4,2,1,2","1,2,3,4","true","","",""
"null","","html-keyboard-response","326","251758","0.0-326.0","317HQ483I8EP6IQY3BVM68LIM4ONIA","A2B6WQG0A9CKXQ","3RSBJ6YZECCLSSQQCGKCTHC9OPAFOK","","<img src=""img/set1/S4.jpg"" width=""540"" height = ""360"" style=""border:16px solid orange"">","null","","","","","","","","","",""
"null","","html-keyboard-response","327","251960","0.0-327.0","317HQ483I8EP6IQY3BVM68LIM4ONIA","A2B6WQG0A9CKXQ","3RSBJ6YZECCLSSQQCGKCTHC9OPAFOK","","","null","","","","","","","","","",""
"474.5","","image-keyboard-response","328","252436","0.0-328.0","317HQ483I8EP6IQY3BVM68LIM4ONIA","A2B6WQG0A9CKXQ","3RSBJ6YZECCLSSQQCGKCTHC9OPAFOK","","img/set1/S4.jpg","74","4","random","74","random,structured_incentive,structured_normal,structured_load","2,3,4,2,1,2","1,2,3,4","true","","",""
"null","","html-keyboard-response","329","252788","0.0-329.0","317HQ483I8EP6IQY3BVM68LIM4ONIA","A2B6WQG0A9CKXQ","3RSBJ6YZECCLSSQQCGKCTHC9OPAFOK","","<img src=""img/set1/S4.jpg"" width=""540"" height = ""360"" style=""border:16px solid orange"">","null","","","","","","","","","",""
"null","","html-keyboard-response","330","252989","0.0-330.0","317HQ483I8EP6IQY3BVM68LIM4ONIA","A2B6WQG0A9CKXQ","3RSBJ6YZECCLSSQQCGKCTHC9OPAFOK","","","null","","","","","","","","","",""
"606.2000000178814","","image-keyboard-response","331","253597","0.0-331.0","317HQ483I8EP6IQY3BVM68LIM4ONIA","A2B6WQG0A9CKXQ","3RSBJ6YZECCLSSQQCGKCTHC9OPAFOK","","img/set1/S4.jpg","74","4","random","74","random,structured_incentive,structured_normal,structured_load","2,3,4,2,1,2","1,2,3,4","true","","",""
"null","","html-keyboard-response","332","253950","0.0-332.0","317HQ483I8EP6IQY3BVM68LIM4ONIA","A2B6WQG0A9CKXQ","3RSBJ6YZECCLSSQQCGKCTHC9OPAFOK","","<img src=""img/set1/S4.jpg"" width=""540"" height = ""360"" style=""border:16px solid orange"">","null","","","","","","","","","",""
"null","","html-keyboard-response","333","254153","0.0-333.0","317HQ483I8EP6IQY3BVM68LIM4ONIA","A2B6WQG0A9CKXQ","3RSBJ6YZECCLSSQQCGKCTHC9OPAFOK","","","null","","","","","","","","","",""
"570.5999999940395","","image-keyboard-response","334","254725","0.0-334.0","317HQ483I8EP6IQY3BVM68LIM4ONIA","A2B6WQG0A9CKXQ","3RSBJ6YZECCLSSQQCGKCTHC9OPAFOK","","img/set1/S4.jpg","74","4","random","74","random,structured_incentive,structured_normal,structured_load","2,3,4,2,1,2","1,2,3,4","true","","",""
"null","","html-keyboard-response","335","255078","0.0-335.0","317HQ483I8EP6IQY3BVM68LIM4ONIA","A2B6WQG0A9CKXQ","3RSBJ6YZECCLSSQQCGKCTHC9OPAFOK","","<img src=""img/set1/S4.jpg"" width=""540"" height = ""360"" style=""border:16px solid orange"">","null","","","","","","","","","",""
"null","","html-keyboard-response","336","255280","0.0-336.0","317HQ483I8EP6IQY3BVM68LIM4ONIA","A2B6WQG0A9CKXQ","3RSBJ6YZECCLSSQQCGKCTHC9OPAFOK","","","null","","","","","","","","","",""
"524.1999999880791","","image-keyboard-response","337","255805","0.0-337.0","317HQ483I8EP6IQY3BVM68LIM4ONIA","A2B6WQG0A9CKXQ","3RSBJ6YZECCLSSQQCGKCTHC9OPAFOK","","img/set1/S4.jpg","74","4","random","74","random,structured_incentive,structured_normal,structured_load","2,3,4,2,1,2","1,2,3,4","true","","",""
"null","","html-keyboard-response","338","256159","0.0-338.0","317HQ483I8EP6IQY3BVM68LIM4ONIA","A2B6WQG0A9CKXQ","3RSBJ6YZECCLSSQQCGKCTHC9OPAFOK","","<img src=""img/set1/S4.jpg"" width=""540"" height = ""360"" style=""border:16px solid orange"">","null","","","","","","","","","",""
"null","","html-keyboard-response","339","256361","0.0-339.0","317HQ483I8EP6IQY3BVM68LIM4ONIA","A2B6WQG0A9CKXQ","3RSBJ6YZECCLSSQQCGKCTHC9OPAFOK","","","null","","","","","","","","","",""
"706.3000000119209","","image-keyboard-response","340","257068","0.0-340.0","317HQ483I8EP6IQY3BVM68LIM4ONIA","A2B6WQG0A9CKXQ","3RSBJ6YZECCLSSQQCGKCTHC9OPAFOK","","img/set1/S1.jpg","83","1","random","83","random,structured_incentive,structured_normal,structured_load","2,3,4,2,1,2","1,2,3,4","true","","",""
"null","","html-keyboard-response","341","257420","0.0-341.0","317HQ483I8EP6IQY3BVM68LIM4ONIA","A2B6WQG0A9CKXQ","3RSBJ6YZECCLSSQQCGKCTHC9OPAFOK","","<img src=""img/set1/S1.jpg"" width=""540"" height = ""360"" style=""border:16px solid orange"">","null","","","","","","","","","",""
"null","","html-keyboard-response","342","257623","0.0-342.0","317HQ483I8EP6IQY3BVM68LIM4ONIA","A2B6WQG0A9CKXQ","3RSBJ6YZECCLSSQQCGKCTHC9OPAFOK","","","null","","","","","","","","","",""
"612.2999999821186","","image-keyboard-response","343","258237","0.0-343.0","317HQ483I8EP6IQY3BVM68LIM4ONIA","A2B6WQG0A9CKXQ","3RSBJ6YZECCLSSQQCGKCTHC9OPAFOK","","img/set1/S2.jpg","68","2","random","68","random,structured_incentive,structured_normal,structured_load","2,3,4,2,1,2","1,2,3,4","true","","",""
"null","","html-keyboard-response","344","258590","0.0-344.0","317HQ483I8EP6IQY3BVM68LIM4ONIA","A2B6WQG0A9CKXQ","3RSBJ6YZECCLSSQQCGKCTHC9OPAFOK","","<img src=""img/set1/S2.jpg"" width=""540"" height = ""360"" style=""border:16px solid orange"">","null","","","","","","","","","",""
"null","","html-keyboard-response","345","258792","0.0-345.0","317HQ483I8EP6IQY3BVM68LIM4ONIA","A2B6WQG0A9CKXQ","3RSBJ6YZECCLSSQQCGKCTHC9OPAFOK","","","null","","","","","","","","","",""
"707.8000000119209","","image-keyboard-response","346","259501","0.0-346.0","317HQ483I8EP6IQY3BVM68LIM4ONIA","A2B6WQG0A9CKXQ","3RSBJ6YZECCLSSQQCGKCTHC9OPAFOK","","img/set1/S1.jpg","83","1","random","83","random,structured_incentive,structured_normal,structured_load","2,3,4,2,1,2","1,2,3,4","true","","",""
"null","","html-keyboard-response","347","259854","0.0-347.0","317HQ483I8EP6IQY3BVM68LIM4ONIA","A2B6WQG0A9CKXQ","3RSBJ6YZECCLSSQQCGKCTHC9OPAFOK","","<img src=""img/set1/S1.jpg"" width=""540"" height = ""360"" style=""border:16px solid orange"">","null","","","","","","","","","",""
"null","","html-keyboard-response","348","260055","0.0-348.0","317HQ483I8EP6IQY3BVM68LIM4ONIA","A2B6WQG0A9CKXQ","3RSBJ6YZECCLSSQQCGKCTHC9OPAFOK","","","null","","","","","","","","","",""
"676.1999999880791","","image-keyboard-response","349","260733","0.0-349.0","317HQ483I8EP6IQY3BVM68LIM4ONIA","A2B6WQG0A9CKXQ","3RSBJ6YZECCLSSQQCGKCTHC9OPAFOK","","img/set1/S2.jpg","68","2","random","68","random,structured_incentive,structured_normal,structured_load","2,3,4,2,1,2","1,2,3,4","true","","",""
"null","","html-keyboard-response","350","261087","0.0-350.0","317HQ483I8EP6IQY3BVM68LIM4ONIA","A2B6WQG0A9CKXQ","3RSBJ6YZECCLSSQQCGKCTHC9OPAFOK","","<img src=""img/set1/S2.jpg"" width=""540"" height = ""360"" style=""border:16px solid orange"">","null","","","","","","","","","",""
"null","","html-keyboard-response","351","261289","0.0-351.0","317HQ483I8EP6IQY3BVM68LIM4ONIA","A2B6WQG0A9CKXQ","3RSBJ6YZECCLSSQQCGKCTHC9OPAFOK","","","null","","","","","","","","","",""
"761.2000000178814","","image-keyboard-response","352","262052","0.0-352.0","317HQ483I8EP6IQY3BVM68LIM4ONIA","A2B6WQG0A9CKXQ","3RSBJ6YZECCLSSQQCGKCTHC9OPAFOK","","img/set1/S4.jpg","74","4","random","74","random,structured_incentive,structured_normal,structured_load","2,3,4,2,1,2","1,2,3,4","true","","",""
"null","","html-keyboard-response","353","262404","0.0-353.0","317HQ483I8EP6IQY3BVM68LIM4ONIA","A2B6WQG0A9CKXQ","3RSBJ6YZECCLSSQQCGKCTHC9OPAFOK","","<img src=""img/set1/S4.jpg"" width=""540"" height = ""360"" style=""border:16px solid orange"">","null","","","","","","","","","",""
"null","","html-keyboard-response","354","262606","0.0-354.0","317HQ483I8EP6IQY3BVM68LIM4ONIA","A2B6WQG0A9CKXQ","3RSBJ6YZECCLSSQQCGKCTHC9OPAFOK","","","null","","","","","","","","","",""
"733.6999999880791","","image-keyboard-response","355","263340","0.0-355.0","317HQ483I8EP6IQY3BVM68LIM4ONIA","A2B6WQG0A9CKXQ","3RSBJ6YZECCLSSQQCGKCTHC9OPAFOK","","img/set1/S2.jpg","68","2","random","68","random,structured_incentive,structured_normal,structured_load","2,3,4,2,1,2","1,2,3,4","true","","",""
"null","","html-keyboard-response","356","263692","0.0-356.0","317HQ483I8EP6IQY3BVM68LIM4ONIA","A2B6WQG0A9CKXQ","3RSBJ6YZECCLSSQQCGKCTHC9OPAFOK","","<img src=""img/set1/S2.jpg"" width=""540"" height = ""360"" style=""border:16px solid orange"">","null","","","","","","","","","",""
"null","","html-keyboard-response","357","263895","0.0-357.0","317HQ483I8EP6IQY3BVM68LIM4ONIA","A2B6WQG0A9CKXQ","3RSBJ6YZECCLSSQQCGKCTHC9OPAFOK","","","null","","","","","","","","","",""
"796.8000000119209","","image-keyboard-response","358","264693","0.0-358.0","317HQ483I8EP6IQY3BVM68LIM4ONIA","A2B6WQG0A9CKXQ","3RSBJ6YZECCLSSQQCGKCTHC9OPAFOK","","img/set1/S2.jpg","68","2","random","68","random,structured_incentive,structured_normal,structured_load","2,3,4,2,1,2","1,2,3,4","true","","",""
"null","","html-keyboard-response","359","265049","0.0-359.0","317HQ483I8EP6IQY3BVM68LIM4ONIA","A2B6WQG0A9CKXQ","3RSBJ6YZECCLSSQQCGKCTHC9OPAFOK","","<img src=""img/set1/S2.jpg"" width=""540"" height = ""360"" style=""border:16px solid orange"">","null","","","","","","","","","",""
"null","","html-keyboard-response","360","265252","0.0-360.0","317HQ483I8EP6IQY3BVM68LIM4ONIA","A2B6WQG0A9CKXQ","3RSBJ6YZECCLSSQQCGKCTHC9OPAFOK","","","null","","","","","","","","","",""
"671.9000000059605","","image-keyboard-response","361","265924","0.0-361.0","317HQ483I8EP6IQY3BVM68LIM4ONIA","A2B6WQG0A9CKXQ","3RSBJ6YZECCLSSQQCGKCTHC9OPAFOK","","img/set1/S1.jpg","83","1","random","83","random,structured_incentive,structured_normal,structured_load","2,3,4,2,1,2","1,2,3,4","true","","",""
"null","","html-keyboard-response","362","266277","0.0-362.0","317HQ483I8EP6IQY3BVM68LIM4ONIA","A2B6WQG0A9CKXQ","3RSBJ6YZECCLSSQQCGKCTHC9OPAFOK","","<img src=""img/set1/S1.jpg"" width=""540"" height = ""360"" style=""border:16px solid orange"">","null","","","","","","","","","",""
"null","","html-keyboard-response","363","266479","0.0-363.0","317HQ483I8EP6IQY3BVM68LIM4ONIA","A2B6WQG0A9CKXQ","3RSBJ6YZECCLSSQQCGKCTHC9OPAFOK","","","null","","","","","","","","","",""
"956.4000000059605","","image-keyboard-response","364","267437","0.0-364.0","317HQ483I8EP6IQY3BVM68LIM4ONIA","A2B6WQG0A9CKXQ","3RSBJ6YZECCLSSQQCGKCTHC9OPAFOK","","img/set1/S4.jpg","74","4","random","74","random,structured_incentive,structured_normal,structured_load","2,3,4,2,1,2","1,2,3,4","true","","",""
"null","","html-keyboard-response","365","267789","0.0-365.0","317HQ483I8EP6IQY3BVM68LIM4ONIA","A2B6WQG0A9CKXQ","3RSBJ6YZECCLSSQQCGKCTHC9OPAFOK","","<img src=""img/set1/S4.jpg"" width=""540"" height = ""360"" style=""border:16px solid orange"">","null","","","","","","","","","",""
"null","","html-keyboard-response","366","267990","0.0-366.0","317HQ483I8EP6IQY3BVM68LIM4ONIA","A2B6WQG0A9CKXQ","3RSBJ6YZECCLSSQQCGKCTHC9OPAFOK","","","null","","","","","","","","","",""
"453.40000000596046","","image-keyboard-response","367","268445","0.0-367.0","317HQ483I8EP6IQY3BVM68LIM4ONIA","A2B6WQG0A9CKXQ","3RSBJ6YZECCLSSQQCGKCTHC9OPAFOK","","img/set1/S4.jpg","74","4","random","74","random,structured_incentive,structured_normal,structured_load","2,3,4,2,1,2","1,2,3,4","true","","",""
"null","","html-keyboard-response","368","268797","0.0-368.0","317HQ483I8EP6IQY3BVM68LIM4ONIA","A2B6WQG0A9CKXQ","3RSBJ6YZECCLSSQQCGKCTHC9OPAFOK","","<img src=""img/set1/S4.jpg"" width=""540"" height = ""360"" style=""border:16px solid orange"">","null","","","","","","","","","",""
"null","","html-keyboard-response","369","268999","0.0-369.0","317HQ483I8EP6IQY3BVM68LIM4ONIA","A2B6WQG0A9CKXQ","3RSBJ6YZECCLSSQQCGKCTHC9OPAFOK","","","null","","","","","","","","","",""
"556.6000000238419","","image-keyboard-response","370","269557","0.0-370.0","317HQ483I8EP6IQY3BVM68LIM4ONIA","A2B6WQG0A9CKXQ","3RSBJ6YZECCLSSQQCGKCTHC9OPAFOK","","img/set1/S3.jpg","74","3","random","72","random,structured_incentive,structured_normal,structured_load","2,3,4,2,1,2","1,2,3,4","false","","",""
"null","","html-keyboard-response","371","269909","0.0-371.0","317HQ483I8EP6IQY3BVM68LIM4ONIA","A2B6WQG0A9CKXQ","3RSBJ6YZECCLSSQQCGKCTHC9OPAFOK","","<img src=""img/set1/S3.jpg"" width=""540"" height = ""360"">","null","","","","","","","","","",""
"null","","html-keyboard-response","372","270111","0.0-372.0","317HQ483I8EP6IQY3BVM68LIM4ONIA","A2B6WQG0A9CKXQ","3RSBJ6YZECCLSSQQCGKCTHC9OPAFOK","","","null","","","","","","","","","",""
"null","","image-keyboard-response","373","272613","0.0-373.0","317HQ483I8EP6IQY3BVM68LIM4ONIA","A2B6WQG0A9CKXQ","3RSBJ6YZECCLSSQQCGKCTHC9OPAFOK","","img/set1/S3.jpg","null","3","random","72","random,structured_incentive,structured_normal,structured_load","2,3,4,2,1,2","1,2,3,4","false","","",""
"null","","html-keyboard-response","374","272966","0.0-374.0","317HQ483I8EP6IQY3BVM68LIM4ONIA","A2B6WQG0A9CKXQ","3RSBJ6YZECCLSSQQCGKCTHC9OPAFOK","","<img src=""img/set1/S3.jpg"" width=""540"" height = ""360"">","null","","","","","","","","","",""
"null","","html-keyboard-response","375","273168","0.0-375.0","317HQ483I8EP6IQY3BVM68LIM4ONIA","A2B6WQG0A9CKXQ","3RSBJ6YZECCLSSQQCGKCTHC9OPAFOK","","","null","","","","","","","","","",""
"698.5","","image-keyboard-response","376","273868","0.0-376.0","317HQ483I8EP6IQY3BVM68LIM4ONIA","A2B6WQG0A9CKXQ","3RSBJ6YZECCLSSQQCGKCTHC9OPAFOK","","img/set1/S4.jpg","74","4","random","74","random,structured_incentive,structured_normal,structured_load","2,3,4,2,1,2","1,2,3,4","true","","",""
"null","","html-keyboard-response","377","274221","0.0-377.0","317HQ483I8EP6IQY3BVM68LIM4ONIA","A2B6WQG0A9CKXQ","3RSBJ6YZECCLSSQQCGKCTHC9OPAFOK","","<img src=""img/set1/S4.jpg"" width=""540"" height = ""360"" style=""border:16px solid orange"">","null","","","","","","","","","",""
"null","","html-keyboard-response","378","274423","0.0-378.0","317HQ483I8EP6IQY3BVM68LIM4ONIA","A2B6WQG0A9CKXQ","3RSBJ6YZECCLSSQQCGKCTHC9OPAFOK","","","null","","","","","","","","","",""
"692.3000000119209","","image-keyboard-response","379","275116","0.0-379.0","317HQ483I8EP6IQY3BVM68LIM4ONIA","A2B6WQG0A9CKXQ","3RSBJ6YZECCLSSQQCGKCTHC9OPAFOK","","img/set1/S3.jpg","83","3","random","72","random,structured_incentive,structured_normal,structured_load","2,3,4,2,1,2","1,2,3,4","false","","",""
"null","","html-keyboard-response","380","275468","0.0-380.0","317HQ483I8EP6IQY3BVM68LIM4ONIA","A2B6WQG0A9CKXQ","3RSBJ6YZECCLSSQQCGKCTHC9OPAFOK","","<img src=""img/set1/S3.jpg"" width=""540"" height = ""360"">","null","","","","","","","","","",""
"null","","html-keyboard-response","381","275669","0.0-381.0","317HQ483I8EP6IQY3BVM68LIM4ONIA","A2B6WQG0A9CKXQ","3RSBJ6YZECCLSSQQCGKCTHC9OPAFOK","","","null","","","","","","","","","",""
"894.4000000059605","","image-keyboard-response","382","276565","0.0-382.0","317HQ483I8EP6IQY3BVM68LIM4ONIA","A2B6WQG0A9CKXQ","3RSBJ6YZECCLSSQQCGKCTHC9OPAFOK","","img/set1/S1.jpg","83","1","random","83","random,structured_incentive,structured_normal,structured_load","2,3,4,2,1,2","1,2,3,4","true","","",""
"null","","html-keyboard-response","383","276918","0.0-383.0","317HQ483I8EP6IQY3BVM68LIM4ONIA","A2B6WQG0A9CKXQ","3RSBJ6YZECCLSSQQCGKCTHC9OPAFOK","","<img src=""img/set1/S1.jpg"" width=""540"" height = ""360"" style=""border:16px solid orange"">","null","","","","","","","","","",""
"null","","html-keyboard-response","384","277119","0.0-384.0","317HQ483I8EP6IQY3BVM68LIM4ONIA","A2B6WQG0A9CKXQ","3RSBJ6YZECCLSSQQCGKCTHC9OPAFOK","","","null","","","","","","","","","",""
"635.3999999761581","","image-keyboard-response","385","277756","0.0-385.0","317HQ483I8EP6IQY3BVM68LIM4ONIA","A2B6WQG0A9CKXQ","3RSBJ6YZECCLSSQQCGKCTHC9OPAFOK","","img/set1/S4.jpg","74","4","random","74","random,structured_incentive,structured_normal,structured_load","2,3,4,2,1,2","1,2,3,4","true","","",""
"null","","html-keyboard-response","386","278107","0.0-386.0","317HQ483I8EP6IQY3BVM68LIM4ONIA","A2B6WQG0A9CKXQ","3RSBJ6YZECCLSSQQCGKCTHC9OPAFOK","","<img src=""img/set1/S4.jpg"" width=""540"" height = ""360"" style=""border:16px solid orange"">","null","","","","","","","","","",""
"null","","html-keyboard-response","387","278309","0.0-387.0","317HQ483I8EP6IQY3BVM68LIM4ONIA","A2B6WQG0A9CKXQ","3RSBJ6YZECCLSSQQCGKCTHC9OPAFOK","","","null","","","","","","","","","",""
"494.5","","image-keyboard-response","388","278804","0.0-388.0","317HQ483I8EP6IQY3BVM68LIM4ONIA","A2B6WQG0A9CKXQ","3RSBJ6YZECCLSSQQCGKCTHC9OPAFOK","","img/set1/S3.jpg","68","3","random","72","random,structured_incentive,structured_normal,structured_load","2,3,4,2,1,2","1,2,3,4","false","","",""
"null","","html-keyboard-response","389","279156","0.0-389.0","317HQ483I8EP6IQY3BVM68LIM4ONIA","A2B6WQG0A9CKXQ","3RSBJ6YZECCLSSQQCGKCTHC9OPAFOK","","<img src=""img/set1/S3.jpg"" width=""540"" height = ""360"">","null","","","","","","","","","",""
"null","","html-keyboard-response","390","279361","0.0-390.0","317HQ483I8EP6IQY3BVM68LIM4ONIA","A2B6WQG0A9CKXQ","3RSBJ6YZECCLSSQQCGKCTHC9OPAFOK","","","null","","","","","","","","","",""
