"rt","url","trial_type","trial_index","time_elapsed","internal_node_id","view_history","stimulus","key_press","state","test_part","correct_response","order_block","order_chunk","correct","responses","question_order","bonus"
"58883.90000000596","consent.html","external-html","0","59004","0.0-0.0","","","","","","","","","","","",""
"708824","","instructions","1","767830","0.0-1.0","[{""page_index"":0,""viewing_time"":5534.200000017881},{""page_index"":1,""viewing_time"":604306.5},{""page_index"":2,""viewing_time"":25709.19999998808},{""page_index"":3,""viewing_time"":34203.80000001192},{""page_index"":4,""viewing_time"":7979.799999982119},{""page_index"":5,""viewing_time"":16676},{""page_index"":6,""viewing_time"":14413.800000011921}]","","","","","","","","","","",""
"17789.59999999404","","instructions","2","785621","0.0-2.0","[{""page_index"":0,""viewing_time"":17789.29999998212}]","","","","","","","","","","",""
"7535","","instructions","3","793157","0.0-3.0","[{""page_index"":0,""viewing_time"":7534.799999982119}]","","","","","","","","","","",""
"2208.4000000059605","","image-keyboard-response","4","795368","0.0-4.0","","img/set1/S4.jpg","74","4","structured_normal","74","structured_normal,structured_load,structured_incentive,random","2,3,3,4,2,1","true","","",""
"null","","html-keyboard-response","5","795721","0.0-5.0","","<img src=""img/set1/S4.jpg"" width=""540"" height = ""360"" style=""border:16px solid orange"">","null","","","","","","","","",""
"null","","html-keyboard-response","6","795923","0.0-6.0","","","null","","","","","","","","",""
"1674.5","","image-keyboard-response","7","797599","0.0-7.0","","img/set1/S2.jpg","83","2","structured_normal","68","structured_normal,structured_load,structured_incentive,random","2,3,3,4,2,1","false","","",""
"null","","html-keyboard-response","8","797953","0.0-8.0","","<img src=""img/set1/S2.jpg"" width=""540"" height = ""360"">","null","","","","","","","","",""
"null","","html-keyboard-response","9","798155","0.0-9.0","","","null","","","","","","","","",""
"1369.5","","image-keyboard-response","10","799526","0.0-10.0","","img/set1/S3.jpg","72","3","structured_normal","72","structured_normal,structured_load,structured_incentive,random","2,3,3,4,2,1","true","","",""
"null","","html-keyboard-response","11","799878","0.0-11.0","","<img src=""img/set1/S3.jpg"" width=""540"" height = ""360"" style=""border:16px solid orange"">","null","","","","","","","","",""
"null","","html-keyboard-response","12","800079","0.0-12.0","","","null","","","","","","","","",""
"1181.5999999940395","","image-keyboard-response","13","801262","0.0-13.0","","img/set1/S4.jpg","74","4","structured_normal","74","structured_normal,structured_load,structured_incentive,random","2,3,3,4,2,1","true","","",""
"null","","html-keyboard-response","14","801615","0.0-14.0","","<img src=""img/set1/S4.jpg"" width=""540"" height = ""360"" style=""border:16px solid orange"">","null","","","","","","","","",""
"null","","html-keyboard-response","15","801817","0.0-15.0","","","null","","","","","","","","",""
"1179.800000011921","","image-keyboard-response","16","802998","0.0-16.0","","img/set1/S2.jpg","68","2","structured_normal","68","structured_normal,structured_load,structured_incentive,random","2,3,3,4,2,1","true","","",""
"null","","html-keyboard-response","17","803350","0.0-17.0","","<img src=""img/set1/S2.jpg"" width=""540"" height = ""360"" style=""border:16px solid orange"">","null","","","","","","","","",""
"null","","html-keyboard-response","18","803551","0.0-18.0","","","null","","","","","","","","",""
"1253.5","","image-keyboard-response","19","804806","0.0-19.0","","img/set1/S3.jpg","83","3","structured_normal","72","structured_normal,structured_load,structured_incentive,random","2,3,3,4,2,1","false","","",""
"null","","html-keyboard-response","20","805158","0.0-20.0","","<img src=""img/set1/S3.jpg"" width=""540"" height = ""360"">","null","","","","","","","","",""
"null","","html-keyboard-response","21","805359","0.0-21.0","","","null","","","","","","","","",""
"1117.6000000238419","","image-keyboard-response","22","806478","0.0-22.0","","img/set1/S1.jpg","83","1","structured_normal","83","structured_normal,structured_load,structured_incentive,random","2,3,3,4,2,1","true","","",""
"null","","html-keyboard-response","23","806830","0.0-23.0","","<img src=""img/set1/S1.jpg"" width=""540"" height = ""360"" style=""border:16px solid orange"">","null","","","","","","","","",""
"null","","html-keyboard-response","24","807032","0.0-24.0","","","null","","","","","","","","",""
"797.4000000059605","","image-keyboard-response","25","807830","0.0-25.0","","img/set1/S1.jpg","83","1","structured_normal","83","structured_normal,structured_load,structured_incentive,random","2,3,3,4,2,1","true","","",""
"null","","html-keyboard-response","26","808183","0.0-26.0","","<img src=""img/set1/S1.jpg"" width=""540"" height = ""360"" style=""border:16px solid orange"">","null","","","","","","","","",""
"null","","html-keyboard-response","27","808385","0.0-27.0","","","null","","","","","","","","",""
"771.9000000059605","","image-keyboard-response","28","809158","0.0-28.0","","img/set1/S1.jpg","83","1","structured_normal","83","structured_normal,structured_load,structured_incentive,random","2,3,3,4,2,1","true","","",""
"null","","html-keyboard-response","29","809509","0.0-29.0","","<img src=""img/set1/S1.jpg"" width=""540"" height = ""360"" style=""border:16px solid orange"">","null","","","","","","","","",""
"null","","html-keyboard-response","30","809710","0.0-30.0","","","null","","","","","","","","",""
"1223","","image-keyboard-response","31","810935","0.0-31.0","","img/set1/S2.jpg","68","2","structured_normal","68","structured_normal,structured_load,structured_incentive,random","2,3,3,4,2,1","true","","",""
"null","","html-keyboard-response","32","811287","0.0-32.0","","<img src=""img/set1/S2.jpg"" width=""540"" height = ""360"" style=""border:16px solid orange"">","null","","","","","","","","",""
"null","","html-keyboard-response","33","811488","0.0-33.0","","","null","","","","","","","","",""
"1101.4000000059605","","image-keyboard-response","34","812590","0.0-34.0","","img/set1/S3.jpg","74","3","structured_normal","72","structured_normal,structured_load,structured_incentive,random","2,3,3,4,2,1","false","","",""
"null","","html-keyboard-response","35","812941","0.0-35.0","","<img src=""img/set1/S3.jpg"" width=""540"" height = ""360"">","null","","","","","","","","",""
"null","","html-keyboard-response","36","813142","0.0-36.0","","","null","","","","","","","","",""
"1398.7999999821186","","image-keyboard-response","37","814542","0.0-37.0","","img/set1/S1.jpg","72","1","structured_normal","83","structured_normal,structured_load,structured_incentive,random","2,3,3,4,2,1","false","","",""
"null","","html-keyboard-response","38","814894","0.0-38.0","","<img src=""img/set1/S1.jpg"" width=""540"" height = ""360"">","null","","","","","","","","",""
"null","","html-keyboard-response","39","815095","0.0-39.0","","","null","","","","","","","","",""
"1014","","image-keyboard-response","40","816110","0.0-40.0","","img/set1/S1.jpg","83","1","structured_normal","83","structured_normal,structured_load,structured_incentive,random","2,3,3,4,2,1","true","","",""
"null","","html-keyboard-response","41","816462","0.0-41.0","","<img src=""img/set1/S1.jpg"" width=""540"" height = ""360"" style=""border:16px solid orange"">","null","","","","","","","","",""
"null","","html-keyboard-response","42","816663","0.0-42.0","","","null","","","","","","","","",""
"902","","image-keyboard-response","43","817566","0.0-43.0","","img/set1/S4.jpg","72","4","structured_normal","74","structured_normal,structured_load,structured_incentive,random","2,3,3,4,2,1","false","","",""
"null","","html-keyboard-response","44","817918","0.0-44.0","","<img src=""img/set1/S4.jpg"" width=""540"" height = ""360"">","null","","","","","","","","",""
"null","","html-keyboard-response","45","818120","0.0-45.0","","","null","","","","","","","","",""
"1212.7999999821186","","image-keyboard-response","46","819335","0.0-46.0","","img/set1/S4.jpg","74","4","structured_normal","74","structured_normal,structured_load,structured_incentive,random","2,3,3,4,2,1","true","","",""
"null","","html-keyboard-response","47","819687","0.0-47.0","","<img src=""img/set1/S4.jpg"" width=""540"" height = ""360"" style=""border:16px solid orange"">","null","","","","","","","","",""
"null","","html-keyboard-response","48","819888","0.0-48.0","","","null","","","","","","","","",""
"1037.0999999940395","","image-keyboard-response","49","820926","0.0-49.0","","img/set1/S1.jpg","83","1","structured_normal","83","structured_normal,structured_load,structured_incentive,random","2,3,3,4,2,1","true","","",""
"null","","html-keyboard-response","50","821278","0.0-50.0","","<img src=""img/set1/S1.jpg"" width=""540"" height = ""360"" style=""border:16px solid orange"">","null","","","","","","","","",""
"null","","html-keyboard-response","51","821479","0.0-51.0","","","null","","","","","","","","",""
"1134.199999988079","","image-keyboard-response","52","822614","0.0-52.0","","img/set1/S2.jpg","68","2","structured_normal","68","structured_normal,structured_load,structured_incentive,random","2,3,3,4,2,1","true","","",""
"null","","html-keyboard-response","53","822967","0.0-53.0","","<img src=""img/set1/S2.jpg"" width=""540"" height = ""360"" style=""border:16px solid orange"">","null","","","","","","","","",""
"null","","html-keyboard-response","54","823168","0.0-54.0","","","null","","","","","","","","",""
"924","","image-keyboard-response","55","824094","0.0-55.0","","img/set1/S3.jpg","72","3","structured_normal","72","structured_normal,structured_load,structured_incentive,random","2,3,3,4,2,1","true","","",""
"null","","html-keyboard-response","56","824445","0.0-56.0","","<img src=""img/set1/S3.jpg"" width=""540"" height = ""360"" style=""border:16px solid orange"">","null","","","","","","","","",""
"null","","html-keyboard-response","57","824647","0.0-57.0","","","null","","","","","","","","",""
"749.8000000119209","","image-keyboard-response","58","825398","0.0-58.0","","img/set1/S1.jpg","83","1","structured_normal","83","structured_normal,structured_load,structured_incentive,random","2,3,3,4,2,1","true","","",""
"null","","html-keyboard-response","59","825750","0.0-59.0","","<img src=""img/set1/S1.jpg"" width=""540"" height = ""360"" style=""border:16px solid orange"">","null","","","","","","","","",""
"null","","html-keyboard-response","60","825959","0.0-60.0","","","null","","","","","","","","",""
"1518.0999999940395","","image-keyboard-response","61","827478","0.0-61.0","","img/set1/S2.jpg","68","2","structured_normal","68","structured_normal,structured_load,structured_incentive,random","2,3,3,4,2,1","true","","",""
"null","","html-keyboard-response","62","827830","0.0-62.0","","<img src=""img/set1/S2.jpg"" width=""540"" height = ""360"" style=""border:16px solid orange"">","null","","","","","","","","",""
"null","","html-keyboard-response","63","828033","0.0-63.0","","","null","","","","","","","","",""
"1580.2999999821186","","image-keyboard-response","64","829614","0.0-64.0","","img/set1/S3.jpg","72","3","structured_normal","72","structured_normal,structured_load,structured_incentive,random","2,3,3,4,2,1","true","","",""
"null","","html-keyboard-response","65","829966","0.0-65.0","","<img src=""img/set1/S3.jpg"" width=""540"" height = ""360"" style=""border:16px solid orange"">","null","","","","","","","","",""
"null","","html-keyboard-response","66","830172","0.0-66.0","","","null","","","","","","","","",""
"728.5999999940395","","image-keyboard-response","67","830902","0.0-67.0","","img/set1/S4.jpg","74","4","structured_normal","74","structured_normal,structured_load,structured_incentive,random","2,3,3,4,2,1","true","","",""
"null","","html-keyboard-response","68","831253","0.0-68.0","","<img src=""img/set1/S4.jpg"" width=""540"" height = ""360"" style=""border:16px solid orange"">","null","","","","","","","","",""
"null","","html-keyboard-response","69","831454","0.0-69.0","","","null","","","","","","","","",""
"1243.699999988079","","image-keyboard-response","70","832701","0.0-70.0","","img/set1/S2.jpg","83","2","structured_normal","68","structured_normal,structured_load,structured_incentive,random","2,3,3,4,2,1","false","","",""
"null","","html-keyboard-response","71","833053","0.0-71.0","","<img src=""img/set1/S2.jpg"" width=""540"" height = ""360"">","null","","","","","","","","",""
"null","","html-keyboard-response","72","833255","0.0-72.0","","","null","","","","","","","","",""
"1461.5","","image-keyboard-response","73","834718","0.0-73.0","","img/set1/S3.jpg","72","3","structured_normal","72","structured_normal,structured_load,structured_incentive,random","2,3,3,4,2,1","true","","",""
"null","","html-keyboard-response","74","835070","0.0-74.0","","<img src=""img/set1/S3.jpg"" width=""540"" height = ""360"" style=""border:16px solid orange"">","null","","","","","","","","",""
"null","","html-keyboard-response","75","835271","0.0-75.0","","","null","","","","","","","","",""
"749.3000000119209","","image-keyboard-response","76","836022","0.0-76.0","","img/set1/S1.jpg","83","1","structured_normal","83","structured_normal,structured_load,structured_incentive,random","2,3,3,4,2,1","true","","",""
"null","","html-keyboard-response","77","836374","0.0-77.0","","<img src=""img/set1/S1.jpg"" width=""540"" height = ""360"" style=""border:16px solid orange"">","null","","","","","","","","",""
"null","","html-keyboard-response","78","836576","0.0-78.0","","","null","","","","","","","","",""
"740.8999999761581","","image-keyboard-response","79","837318","0.0-79.0","","img/set1/S2.jpg","68","2","structured_normal","68","structured_normal,structured_load,structured_incentive,random","2,3,3,4,2,1","true","","",""
"null","","html-keyboard-response","80","837670","0.0-80.0","","<img src=""img/set1/S2.jpg"" width=""540"" height = ""360"" style=""border:16px solid orange"">","null","","","","","","","","",""
"null","","html-keyboard-response","81","837872","0.0-81.0","","","null","","","","","","","","",""
"1013","","image-keyboard-response","82","838886","0.0-82.0","","img/set1/S3.jpg","72","3","structured_normal","72","structured_normal,structured_load,structured_incentive,random","2,3,3,4,2,1","true","","",""
"null","","html-keyboard-response","83","839237","0.0-83.0","","<img src=""img/set1/S3.jpg"" width=""540"" height = ""360"" style=""border:16px solid orange"">","null","","","","","","","","",""
"null","","html-keyboard-response","84","839439","0.0-84.0","","","null","","","","","","","","",""
"1198.2000000178814","","image-keyboard-response","85","840638","0.0-85.0","","img/set1/S4.jpg","83","4","structured_normal","74","structured_normal,structured_load,structured_incentive,random","2,3,3,4,2,1","false","","",""
"null","","html-keyboard-response","86","840991","0.0-86.0","","<img src=""img/set1/S4.jpg"" width=""540"" height = ""360"">","null","","","","","","","","",""
"null","","html-keyboard-response","87","841192","0.0-87.0","","","null","","","","","","","","",""
"1212.8999999761581","","image-keyboard-response","88","842405","0.0-88.0","","img/set1/S4.jpg","74","4","structured_normal","74","structured_normal,structured_load,structured_incentive,random","2,3,3,4,2,1","true","","",""
"null","","html-keyboard-response","89","842757","0.0-89.0","","<img src=""img/set1/S4.jpg"" width=""540"" height = ""360"" style=""border:16px solid orange"">","null","","","","","","","","",""
"null","","html-keyboard-response","90","842959","0.0-90.0","","","null","","","","","","","","",""
"701.9000000059605","","image-keyboard-response","91","843662","0.0-91.0","","img/set1/S1.jpg","83","1","structured_normal","83","structured_normal,structured_load,structured_incentive,random","2,3,3,4,2,1","true","","",""
"null","","html-keyboard-response","92","844013","0.0-92.0","","<img src=""img/set1/S1.jpg"" width=""540"" height = ""360"" style=""border:16px solid orange"">","null","","","","","","","","",""
"null","","html-keyboard-response","93","844216","0.0-93.0","","","null","","","","","","","","",""
"1012.6999999880791","","image-keyboard-response","94","845229","0.0-94.0","","img/set1/S2.jpg","68","2","structured_normal","68","structured_normal,structured_load,structured_incentive,random","2,3,3,4,2,1","true","","",""
"null","","html-keyboard-response","95","845581","0.0-95.0","","<img src=""img/set1/S2.jpg"" width=""540"" height = ""360"" style=""border:16px solid orange"">","null","","","","","","","","",""
"null","","html-keyboard-response","96","845782","0.0-96.0","","","null","","","","","","","","",""
"894.5","","image-keyboard-response","97","846678","0.0-97.0","","img/set1/S3.jpg","72","3","structured_normal","72","structured_normal,structured_load,structured_incentive,random","2,3,3,4,2,1","true","","",""
"null","","html-keyboard-response","98","847029","0.0-98.0","","<img src=""img/set1/S3.jpg"" width=""540"" height = ""360"" style=""border:16px solid orange"">","null","","","","","","","","",""
"null","","html-keyboard-response","99","847231","0.0-99.0","","","null","","","","","","","","",""
"637","","image-keyboard-response","100","847869","0.0-100.0","","img/set1/S1.jpg","83","1","structured_normal","83","structured_normal,structured_load,structured_incentive,random","2,3,3,4,2,1","true","","",""
"null","","html-keyboard-response","101","848221","0.0-101.0","","<img src=""img/set1/S1.jpg"" width=""540"" height = ""360"" style=""border:16px solid orange"">","null","","","","","","","","",""
"null","","html-keyboard-response","102","848423","0.0-102.0","","","null","","","","","","","","",""
"548.9000000059605","","image-keyboard-response","103","848973","0.0-103.0","","img/set1/S1.jpg","83","1","structured_normal","83","structured_normal,structured_load,structured_incentive,random","2,3,3,4,2,1","true","","",""
"null","","html-keyboard-response","104","849325","0.0-104.0","","<img src=""img/set1/S1.jpg"" width=""540"" height = ""360"" style=""border:16px solid orange"">","null","","","","","","","","",""
"null","","html-keyboard-response","105","849527","0.0-105.0","","","null","","","","","","","","",""
"533.6999999880791","","image-keyboard-response","106","850062","0.0-106.0","","img/set1/S1.jpg","83","1","structured_normal","83","structured_normal,structured_load,structured_incentive,random","2,3,3,4,2,1","true","","",""
"null","","html-keyboard-response","107","850414","0.0-107.0","","<img src=""img/set1/S1.jpg"" width=""540"" height = ""360"" style=""border:16px solid orange"">","null","","","","","","","","",""
"null","","html-keyboard-response","108","850615","0.0-108.0","","","null","","","","","","","","",""
"556.8999999761581","","image-keyboard-response","109","851173","0.0-109.0","","img/set1/S1.jpg","83","1","structured_normal","83","structured_normal,structured_load,structured_incentive,random","2,3,3,4,2,1","true","","",""
"null","","html-keyboard-response","110","851525","0.0-110.0","","<img src=""img/set1/S1.jpg"" width=""540"" height = ""360"" style=""border:16px solid orange"">","null","","","","","","","","",""
"null","","html-keyboard-response","111","851730","0.0-111.0","","","null","","","","","","","","",""
"570.6999999880791","","image-keyboard-response","112","852302","0.0-112.0","","img/set1/S1.jpg","83","1","structured_normal","83","structured_normal,structured_load,structured_incentive,random","2,3,3,4,2,1","true","","",""
"null","","html-keyboard-response","113","852654","0.0-113.0","","<img src=""img/set1/S1.jpg"" width=""540"" height = ""360"" style=""border:16px solid orange"">","null","","","","","","","","",""
"null","","html-keyboard-response","114","852856","0.0-114.0","","","null","","","","","","","","",""
"1068.5","","image-keyboard-response","115","853925","0.0-115.0","","img/set1/S4.jpg","74","4","structured_normal","74","structured_normal,structured_load,structured_incentive,random","2,3,3,4,2,1","true","","",""
"null","","html-keyboard-response","116","854277","0.0-116.0","","<img src=""img/set1/S4.jpg"" width=""540"" height = ""360"" style=""border:16px solid orange"">","null","","","","","","","","",""
"null","","html-keyboard-response","117","854478","0.0-117.0","","","null","","","","","","","","",""
"614.6000000238419","","image-keyboard-response","118","855094","0.0-118.0","","img/set1/S1.jpg","83","1","structured_normal","83","structured_normal,structured_load,structured_incentive,random","2,3,3,4,2,1","true","","",""
"null","","html-keyboard-response","119","855446","0.0-119.0","","<img src=""img/set1/S1.jpg"" width=""540"" height = ""360"" style=""border:16px solid orange"">","null","","","","","","","","",""
"null","","html-keyboard-response","120","855652","0.0-120.0","","","null","","","","","","","","",""
"488.30000001192093","","image-keyboard-response","121","856141","0.0-121.0","","img/set1/S4.jpg","74","4","structured_normal","74","structured_normal,structured_load,structured_incentive,random","2,3,3,4,2,1","true","","",""
"null","","html-keyboard-response","122","856493","0.0-122.0","","<img src=""img/set1/S4.jpg"" width=""540"" height = ""360"" style=""border:16px solid orange"">","null","","","","","","","","",""
"null","","html-keyboard-response","123","856695","0.0-123.0","","","null","","","","","","","","",""
"1020.8999999761581","","image-keyboard-response","124","857717","0.0-124.0","","img/set1/S2.jpg","72","2","structured_normal","68","structured_normal,structured_load,structured_incentive,random","2,3,3,4,2,1","false","","",""
"null","","html-keyboard-response","125","858069","0.0-125.0","","<img src=""img/set1/S2.jpg"" width=""540"" height = ""360"">","null","","","","","","","","",""
"null","","html-keyboard-response","126","858270","0.0-126.0","","","null","","","","","","","","",""
"1382.0999999940395","","image-keyboard-response","127","859653","0.0-127.0","","img/set1/S3.jpg","68","3","structured_normal","72","structured_normal,structured_load,structured_incentive,random","2,3,3,4,2,1","false","","",""
"null","","html-keyboard-response","128","860005","0.0-128.0","","<img src=""img/set1/S3.jpg"" width=""540"" height = ""360"">","null","","","","","","","","",""
"null","","html-keyboard-response","129","860206","0.0-129.0","","","null","","","","","","","","",""
"1157.699999988079","","image-keyboard-response","130","861365","0.0-130.0","","img/set1/S2.jpg","68","2","structured_normal","68","structured_normal,structured_load,structured_incentive,random","2,3,3,4,2,1","true","","",""
"null","","html-keyboard-response","131","861717","0.0-131.0","","<img src=""img/set1/S2.jpg"" width=""540"" height = ""360"" style=""border:16px solid orange"">","null","","","","","","","","",""
"null","","html-keyboard-response","132","861919","0.0-132.0","","","null","","","","","","","","",""
"573.2000000178814","","image-keyboard-response","133","862493","0.0-133.0","","img/set1/S3.jpg","72","3","structured_normal","72","structured_normal,structured_load,structured_incentive,random","2,3,3,4,2,1","true","","",""
"null","","html-keyboard-response","134","862845","0.0-134.0","","<img src=""img/set1/S3.jpg"" width=""540"" height = ""360"" style=""border:16px solid orange"">","null","","","","","","","","",""
"null","","html-keyboard-response","135","863046","0.0-135.0","","","null","","","","","","","","",""
"614","","image-keyboard-response","136","863661","0.0-136.0","","img/set1/S1.jpg","83","1","structured_normal","83","structured_normal,structured_load,structured_incentive,random","2,3,3,4,2,1","true","","",""
"null","","html-keyboard-response","137","864013","0.0-137.0","","<img src=""img/set1/S1.jpg"" width=""540"" height = ""360"" style=""border:16px solid orange"">","null","","","","","","","","",""
"null","","html-keyboard-response","138","864214","0.0-138.0","","","null","","","","","","","","",""
"1261.7000000178814","","image-keyboard-response","139","865477","0.0-139.0","","img/set1/S2.jpg","68","2","structured_normal","68","structured_normal,structured_load,structured_incentive,random","2,3,3,4,2,1","true","","",""
"null","","html-keyboard-response","140","865829","0.0-140.0","","<img src=""img/set1/S2.jpg"" width=""540"" height = ""360"" style=""border:16px solid orange"">","null","","","","","","","","",""
"null","","html-keyboard-response","141","866030","0.0-141.0","","","null","","","","","","","","",""
"854.5999999940395","","image-keyboard-response","142","866886","0.0-142.0","","img/set1/S3.jpg","72","3","structured_normal","72","structured_normal,structured_load,structured_incentive,random","2,3,3,4,2,1","true","","",""
"null","","html-keyboard-response","143","867238","0.0-143.0","","<img src=""img/set1/S3.jpg"" width=""540"" height = ""360"" style=""border:16px solid orange"">","null","","","","","","","","",""
"null","","html-keyboard-response","144","867440","0.0-144.0","","","null","","","","","","","","",""
"860.9000000059605","","image-keyboard-response","145","868302","0.0-145.0","","img/set1/S2.jpg","68","2","structured_normal","68","structured_normal,structured_load,structured_incentive,random","2,3,3,4,2,1","true","","",""
"null","","html-keyboard-response","146","868654","0.0-146.0","","<img src=""img/set1/S2.jpg"" width=""540"" height = ""360"" style=""border:16px solid orange"">","null","","","","","","","","",""
"null","","html-keyboard-response","147","868855","0.0-147.0","","","null","","","","","","","","",""
"508.40000000596046","","image-keyboard-response","148","869365","0.0-148.0","","img/set1/S3.jpg","72","3","structured_normal","72","structured_normal,structured_load,structured_incentive,random","2,3,3,4,2,1","true","","",""
"null","","html-keyboard-response","149","869717","0.0-149.0","","<img src=""img/set1/S3.jpg"" width=""540"" height = ""360"" style=""border:16px solid orange"">","null","","","","","","","","",""
"null","","html-keyboard-response","150","869919","0.0-150.0","","","null","","","","","","","","",""
"692.8000000119209","","image-keyboard-response","151","870613","0.0-151.0","","img/set1/S1.jpg","83","1","structured_normal","83","structured_normal,structured_load,structured_incentive,random","2,3,3,4,2,1","true","","",""
"null","","html-keyboard-response","152","870965","0.0-152.0","","<img src=""img/set1/S1.jpg"" width=""540"" height = ""360"" style=""border:16px solid orange"">","null","","","","","","","","",""
"null","","html-keyboard-response","153","871166","0.0-153.0","","","null","","","","","","","","",""
"1118.800000011921","","image-keyboard-response","154","872286","0.0-154.0","","img/set1/S2.jpg","68","2","structured_normal","68","structured_normal,structured_load,structured_incentive,random","2,3,3,4,2,1","true","","",""
"null","","html-keyboard-response","155","872640","0.0-155.0","","<img src=""img/set1/S2.jpg"" width=""540"" height = ""360"" style=""border:16px solid orange"">","null","","","","","","","","",""
"null","","html-keyboard-response","156","872842","0.0-156.0","","","null","","","","","","","","",""
"674.4000000059605","","image-keyboard-response","157","873517","0.0-157.0","","img/set1/S3.jpg","72","3","structured_normal","72","structured_normal,structured_load,structured_incentive,random","2,3,3,4,2,1","true","","",""
"null","","html-keyboard-response","158","873869","0.0-158.0","","<img src=""img/set1/S3.jpg"" width=""540"" height = ""360"" style=""border:16px solid orange"">","null","","","","","","","","",""
"null","","html-keyboard-response","159","874071","0.0-159.0","","","null","","","","","","","","",""
"853.1000000238419","","image-keyboard-response","160","874925","0.0-160.0","","img/set1/S2.jpg","68","2","structured_normal","68","structured_normal,structured_load,structured_incentive,random","2,3,3,4,2,1","true","","",""
"null","","html-keyboard-response","161","875277","0.0-161.0","","<img src=""img/set1/S2.jpg"" width=""540"" height = ""360"" style=""border:16px solid orange"">","null","","","","","","","","",""
"null","","html-keyboard-response","162","875478","0.0-162.0","","","null","","","","","","","","",""
"614","","image-keyboard-response","163","876094","0.0-163.0","","img/set1/S3.jpg","72","3","structured_normal","72","structured_normal,structured_load,structured_incentive,random","2,3,3,4,2,1","true","","",""
"null","","html-keyboard-response","164","876445","0.0-164.0","","<img src=""img/set1/S3.jpg"" width=""540"" height = ""360"" style=""border:16px solid orange"">","null","","","","","","","","",""
"null","","html-keyboard-response","165","876647","0.0-165.0","","","null","","","","","","","","",""
"716.8000000119209","","image-keyboard-response","166","877365","0.0-166.0","","img/set1/S4.jpg","74","4","structured_normal","74","structured_normal,structured_load,structured_incentive,random","2,3,3,4,2,1","true","","",""
"null","","html-keyboard-response","167","877717","0.0-167.0","","<img src=""img/set1/S4.jpg"" width=""540"" height = ""360"" style=""border:16px solid orange"">","null","","","","","","","","",""
"null","","html-keyboard-response","168","877918","0.0-168.0","","","null","","","","","","","","",""
"1030.0999999940395","","image-keyboard-response","169","878949","0.0-169.0","","img/set1/S4.jpg","74","4","structured_normal","74","structured_normal,structured_load,structured_incentive,random","2,3,3,4,2,1","true","","",""
"null","","html-keyboard-response","170","879301","0.0-170.0","","<img src=""img/set1/S4.jpg"" width=""540"" height = ""360"" style=""border:16px solid orange"">","null","","","","","","","","",""
"null","","html-keyboard-response","171","879502","0.0-171.0","","","null","","","","","","","","",""
"533.6999999880791","","image-keyboard-response","172","880037","0.0-172.0","","img/set1/S4.jpg","74","4","structured_normal","74","structured_normal,structured_load,structured_incentive,random","2,3,3,4,2,1","true","","",""
"null","","html-keyboard-response","173","880390","0.0-173.0","","<img src=""img/set1/S4.jpg"" width=""540"" height = ""360"" style=""border:16px solid orange"">","null","","","","","","","","",""
"null","","html-keyboard-response","174","880591","0.0-174.0","","","null","","","","","","","","",""
"493.19999998807907","","image-keyboard-response","175","881085","0.0-175.0","","img/set1/S4.jpg","74","4","structured_normal","74","structured_normal,structured_load,structured_incentive,random","2,3,3,4,2,1","true","","",""
"null","","html-keyboard-response","176","881437","0.0-176.0","","<img src=""img/set1/S4.jpg"" width=""540"" height = ""360"" style=""border:16px solid orange"">","null","","","","","","","","",""
"null","","html-keyboard-response","177","881638","0.0-177.0","","","null","","","","","","","","",""
"822","","image-keyboard-response","178","882461","0.0-178.0","","img/set1/S1.jpg","83","1","structured_normal","83","structured_normal,structured_load,structured_incentive,random","2,3,3,4,2,1","true","","",""
"null","","html-keyboard-response","179","882813","0.0-179.0","","<img src=""img/set1/S1.jpg"" width=""540"" height = ""360"" style=""border:16px solid orange"">","null","","","","","","","","",""
"null","","html-keyboard-response","180","883014","0.0-180.0","","","null","","","","","","","","",""
"870.0999999940395","","image-keyboard-response","181","883885","0.0-181.0","","img/set1/S2.jpg","68","2","structured_normal","68","structured_normal,structured_load,structured_incentive,random","2,3,3,4,2,1","true","","",""
"null","","html-keyboard-response","182","884238","0.0-182.0","","<img src=""img/set1/S2.jpg"" width=""540"" height = ""360"" style=""border:16px solid orange"">","null","","","","","","","","",""
"null","","html-keyboard-response","183","884439","0.0-183.0","","","null","","","","","","","","",""
"916.9000000059605","","image-keyboard-response","184","885357","0.0-184.0","","img/set1/S3.jpg","72","3","structured_normal","72","structured_normal,structured_load,structured_incentive,random","2,3,3,4,2,1","true","","",""
"null","","html-keyboard-response","185","885709","0.0-185.0","","<img src=""img/set1/S3.jpg"" width=""540"" height = ""360"" style=""border:16px solid orange"">","null","","","","","","","","",""
"null","","html-keyboard-response","186","885910","0.0-186.0","","","null","","","","","","","","",""
"917.9000000059605","","image-keyboard-response","187","886829","0.0-187.0","","img/set1/S2.jpg","68","2","structured_normal","68","structured_normal,structured_load,structured_incentive,random","2,3,3,4,2,1","true","","",""
"null","","html-keyboard-response","188","887182","0.0-188.0","","<img src=""img/set1/S2.jpg"" width=""540"" height = ""360"" style=""border:16px solid orange"">","null","","","","","","","","",""
"null","","html-keyboard-response","189","887383","0.0-189.0","","","null","","","","","","","","",""
"653.1999999880791","","image-keyboard-response","190","888037","0.0-190.0","","img/set1/S3.jpg","72","3","structured_normal","72","structured_normal,structured_load,structured_incentive,random","2,3,3,4,2,1","true","","",""
"null","","html-keyboard-response","191","888390","0.0-191.0","","<img src=""img/set1/S3.jpg"" width=""540"" height = ""360"" style=""border:16px solid orange"">","null","","","","","","","","",""
"null","","html-keyboard-response","192","888591","0.0-192.0","","","null","","","","","","","","",""
"676.0999999940395","","image-keyboard-response","193","889269","0.0-193.0","","img/set1/S1.jpg","68","1","structured_normal","83","structured_normal,structured_load,structured_incentive,random","2,3,3,4,2,1","false","","",""
"null","","html-keyboard-response","194","889620","0.0-194.0","","<img src=""img/set1/S1.jpg"" width=""540"" height = ""360"">","null","","","","","","","","",""
"null","","html-keyboard-response","195","889822","0.0-195.0","","","null","","","","","","","","",""
"494.10000002384186","","image-keyboard-response","196","890317","0.0-196.0","","img/set1/S1.jpg","83","1","structured_normal","83","structured_normal,structured_load,structured_incentive,random","2,3,3,4,2,1","true","","",""
"null","","html-keyboard-response","197","890668","0.0-197.0","","<img src=""img/set1/S1.jpg"" width=""540"" height = ""360"" style=""border:16px solid orange"">","null","","","","","","","","",""
"null","","html-keyboard-response","198","890870","0.0-198.0","","","null","","","","","","","","",""
"773.5999999940395","","image-keyboard-response","199","891645","0.0-199.0","","img/set1/S4.jpg","74","4","structured_normal","74","structured_normal,structured_load,structured_incentive,random","2,3,3,4,2,1","true","","",""
"null","","html-keyboard-response","200","891997","0.0-200.0","","<img src=""img/set1/S4.jpg"" width=""540"" height = ""360"" style=""border:16px solid orange"">","null","","","","","","","","",""
"null","","html-keyboard-response","201","892198","0.0-201.0","","","null","","","","","","","","",""
"1061.199999988079","","image-keyboard-response","202","893261","0.0-202.0","","img/set1/S2.jpg","68","2","structured_normal","68","structured_normal,structured_load,structured_incentive,random","2,3,3,4,2,1","true","","",""
"null","","html-keyboard-response","203","893612","0.0-203.0","","<img src=""img/set1/S2.jpg"" width=""540"" height = ""360"" style=""border:16px solid orange"">","null","","","","","","","","",""
"null","","html-keyboard-response","204","893814","0.0-204.0","","","null","","","","","","","","",""
"510.2000000178814","","image-keyboard-response","205","894325","0.0-205.0","","img/set1/S3.jpg","72","3","structured_normal","72","structured_normal,structured_load,structured_incentive,random","2,3,3,4,2,1","true","","",""
"null","","html-keyboard-response","206","894677","0.0-206.0","","<img src=""img/set1/S3.jpg"" width=""540"" height = ""360"" style=""border:16px solid orange"">","null","","","","","","","","",""
"null","","html-keyboard-response","207","894878","0.0-207.0","","","null","","","","","","","","",""
"1886.800000011921","","image-keyboard-response","208","896766","0.0-208.0","","img/set1/S2.jpg","74","2","structured_normal","68","structured_normal,structured_load,structured_incentive,random","2,3,3,4,2,1","false","","",""
"null","","html-keyboard-response","209","897118","0.0-209.0","","<img src=""img/set1/S2.jpg"" width=""540"" height = ""360"">","null","","","","","","","","",""
"null","","html-keyboard-response","210","897319","0.0-210.0","","","null","","","","","","","","",""
"1573.4000000059605","","image-keyboard-response","211","898893","0.0-211.0","","img/set1/S3.jpg","68","3","structured_normal","72","structured_normal,structured_load,structured_incentive,random","2,3,3,4,2,1","false","","",""
"null","","html-keyboard-response","212","899245","0.0-212.0","","<img src=""img/set1/S3.jpg"" width=""540"" height = ""360"">","null","","","","","","","","",""
"null","","html-keyboard-response","213","899446","0.0-213.0","","","null","","","","","","","","",""
"798.2000000178814","","image-keyboard-response","214","900245","0.0-214.0","","img/set1/S4.jpg","74","4","structured_normal","74","structured_normal,structured_load,structured_incentive,random","2,3,3,4,2,1","true","","",""
"null","","html-keyboard-response","215","900597","0.0-215.0","","<img src=""img/set1/S4.jpg"" width=""540"" height = ""360"" style=""border:16px solid orange"">","null","","","","","","","","",""
"null","","html-keyboard-response","216","900799","0.0-216.0","","","null","","","","","","","","",""
"700.6999999880791","","image-keyboard-response","217","901501","0.0-217.0","","img/set1/S4.jpg","74","4","structured_normal","74","structured_normal,structured_load,structured_incentive,random","2,3,3,4,2,1","true","","",""
"null","","html-keyboard-response","218","901853","0.0-218.0","","<img src=""img/set1/S4.jpg"" width=""540"" height = ""360"" style=""border:16px solid orange"">","null","","","","","","","","",""
"null","","html-keyboard-response","219","902054","0.0-219.0","","","null","","","","","","","","",""
"573.5999999940395","","image-keyboard-response","220","902629","0.0-220.0","","img/set1/S4.jpg","74","4","structured_normal","74","structured_normal,structured_load,structured_incentive,random","2,3,3,4,2,1","true","","",""
"null","","html-keyboard-response","221","902980","0.0-221.0","","<img src=""img/set1/S4.jpg"" width=""540"" height = ""360"" style=""border:16px solid orange"">","null","","","","","","","","",""
"null","","html-keyboard-response","222","903182","0.0-222.0","","","null","","","","","","","","",""
"575.0999999940395","","image-keyboard-response","223","903758","0.0-223.0","","img/set1/S4.jpg","74","4","structured_normal","74","structured_normal,structured_load,structured_incentive,random","2,3,3,4,2,1","true","","",""
"null","","html-keyboard-response","224","904110","0.0-224.0","","<img src=""img/set1/S4.jpg"" width=""540"" height = ""360"" style=""border:16px solid orange"">","null","","","","","","","","",""
"null","","html-keyboard-response","225","904310","0.0-225.0","","","null","","","","","","","","",""
"877.2999999821186","","image-keyboard-response","226","905189","0.0-226.0","","img/set1/S2.jpg","72","2","structured_normal","68","structured_normal,structured_load,structured_incentive,random","2,3,3,4,2,1","false","","",""
"null","","html-keyboard-response","227","905540","0.0-227.0","","<img src=""img/set1/S2.jpg"" width=""540"" height = ""360"">","null","","","","","","","","",""
"null","","html-keyboard-response","228","905742","0.0-228.0","","","null","","","","","","","","",""
"949.8000000119209","","image-keyboard-response","229","906693","0.0-229.0","","img/set1/S3.jpg","72","3","structured_normal","72","structured_normal,structured_load,structured_incentive,random","2,3,3,4,2,1","true","","",""
"null","","html-keyboard-response","230","907045","0.0-230.0","","<img src=""img/set1/S3.jpg"" width=""540"" height = ""360"" style=""border:16px solid orange"">","null","","","","","","","","",""
"null","","html-keyboard-response","231","907246","0.0-231.0","","","null","","","","","","","","",""
"558.1000000238419","","image-keyboard-response","232","907805","0.0-232.0","","img/set1/S2.jpg","68","2","structured_normal","68","structured_normal,structured_load,structured_incentive,random","2,3,3,4,2,1","true","","",""
"null","","html-keyboard-response","233","908157","0.0-233.0","","<img src=""img/set1/S2.jpg"" width=""540"" height = ""360"" style=""border:16px solid orange"">","null","","","","","","","","",""
"null","","html-keyboard-response","234","908360","0.0-234.0","","","null","","","","","","","","",""
"731.8000000119209","","image-keyboard-response","235","909092","0.0-235.0","","img/set1/S3.jpg","72","3","structured_normal","72","structured_normal,structured_load,structured_incentive,random","2,3,3,4,2,1","true","","",""
"null","","html-keyboard-response","236","909444","0.0-236.0","","<img src=""img/set1/S3.jpg"" width=""540"" height = ""360"" style=""border:16px solid orange"">","null","","","","","","","","",""
"null","","html-keyboard-response","237","909645","0.0-237.0","","","null","","","","","","","","",""
"494","","image-keyboard-response","238","910140","0.0-238.0","","img/set1/S2.jpg","68","2","structured_normal","68","structured_normal,structured_load,structured_incentive,random","2,3,3,4,2,1","true","","",""
"null","","html-keyboard-response","239","910494","0.0-239.0","","<img src=""img/set1/S2.jpg"" width=""540"" height = ""360"" style=""border:16px solid orange"">","null","","","","","","","","",""
"null","","html-keyboard-response","240","910695","0.0-240.0","","","null","","","","","","","","",""
"533.0999999940395","","image-keyboard-response","241","911229","0.0-241.0","","img/set1/S3.jpg","72","3","structured_normal","72","structured_normal,structured_load,structured_incentive,random","2,3,3,4,2,1","true","","",""
"null","","html-keyboard-response","242","911580","0.0-242.0","","<img src=""img/set1/S3.jpg"" width=""540"" height = ""360"" style=""border:16px solid orange"">","null","","","","","","","","",""
"null","","html-keyboard-response","243","911782","0.0-243.0","","","null","","","","","","","","",""
"669.5999999940395","","image-keyboard-response","244","912453","0.0-244.0","","img/set1/S1.jpg","83","1","structured_normal","83","structured_normal,structured_load,structured_incentive,random","2,3,3,4,2,1","true","","",""
"null","","html-keyboard-response","245","912805","0.0-245.0","","<img src=""img/set1/S1.jpg"" width=""540"" height = ""360"" style=""border:16px solid orange"">","null","","","","","","","","",""
"null","","html-keyboard-response","246","913006","0.0-246.0","","","null","","","","","","","","",""
"453.80000001192093","","image-keyboard-response","247","913460","0.0-247.0","","img/set1/S4.jpg","74","4","structured_normal","74","structured_normal,structured_load,structured_incentive,random","2,3,3,4,2,1","true","","",""
"null","","html-keyboard-response","248","913812","0.0-248.0","","<img src=""img/set1/S4.jpg"" width=""540"" height = ""360"" style=""border:16px solid orange"">","null","","","","","","","","",""
"null","","html-keyboard-response","249","914013","0.0-249.0","","","null","","","","","","","","",""
"854.5999999940395","","image-keyboard-response","250","914869","0.0-250.0","","img/set1/S4.jpg","74","4","structured_normal","74","structured_normal,structured_load,structured_incentive,random","2,3,3,4,2,1","true","","",""
"null","","html-keyboard-response","251","915221","0.0-251.0","","<img src=""img/set1/S4.jpg"" width=""540"" height = ""360"" style=""border:16px solid orange"">","null","","","","","","","","",""
"null","","html-keyboard-response","252","915422","0.0-252.0","","","null","","","","","","","","",""
"622.2000000178814","","image-keyboard-response","253","916045","0.0-253.0","","img/set1/S1.jpg","83","1","structured_normal","83","structured_normal,structured_load,structured_incentive,random","2,3,3,4,2,1","true","","",""
"null","","html-keyboard-response","254","916396","0.0-254.0","","<img src=""img/set1/S1.jpg"" width=""540"" height = ""360"" style=""border:16px solid orange"">","null","","","","","","","","",""
"null","","html-keyboard-response","255","916598","0.0-255.0","","","null","","","","","","","","",""
"533.2000000178814","","image-keyboard-response","256","917133","0.0-256.0","","img/set1/S1.jpg","83","1","structured_normal","83","structured_normal,structured_load,structured_incentive,random","2,3,3,4,2,1","true","","",""
"null","","html-keyboard-response","257","917484","0.0-257.0","","<img src=""img/set1/S1.jpg"" width=""540"" height = ""360"" style=""border:16px solid orange"">","null","","","","","","","","",""
"null","","html-keyboard-response","258","917685","0.0-258.0","","","null","","","","","","","","",""
"1054.699999988079","","image-keyboard-response","259","918741","0.0-259.0","","img/set1/S2.jpg","68","2","structured_normal","68","structured_normal,structured_load,structured_incentive,random","2,3,3,4,2,1","true","","",""
"null","","html-keyboard-response","260","919094","0.0-260.0","","<img src=""img/set1/S2.jpg"" width=""540"" height = ""360"" style=""border:16px solid orange"">","null","","","","","","","","",""
"null","","html-keyboard-response","261","919296","0.0-261.0","","","null","","","","","","","","",""
"532.2999999821186","","image-keyboard-response","262","919829","0.0-262.0","","img/set1/S3.jpg","72","3","structured_normal","72","structured_normal,structured_load,structured_incentive,random","2,3,3,4,2,1","true","","",""
"null","","html-keyboard-response","263","920182","0.0-263.0","","<img src=""img/set1/S3.jpg"" width=""540"" height = ""360"" style=""border:16px solid orange"">","null","","","","","","","","",""
"null","","html-keyboard-response","264","920383","0.0-264.0","","","null","","","","","","","","",""
"532.0999999940395","","image-keyboard-response","265","920916","0.0-265.0","","img/set1/S4.jpg","74","4","structured_normal","74","structured_normal,structured_load,structured_incentive,random","2,3,3,4,2,1","true","","",""
"null","","html-keyboard-response","266","921268","0.0-266.0","","<img src=""img/set1/S4.jpg"" width=""540"" height = ""360"" style=""border:16px solid orange"">","null","","","","","","","","",""
"null","","html-keyboard-response","267","921469","0.0-267.0","","","null","","","","","","","","",""
"614.0999999940395","","image-keyboard-response","268","922084","0.0-268.0","","img/set1/S1.jpg","83","1","structured_normal","83","structured_normal,structured_load,structured_incentive,random","2,3,3,4,2,1","true","","",""
"null","","html-keyboard-response","269","922436","0.0-269.0","","<img src=""img/set1/S1.jpg"" width=""540"" height = ""360"" style=""border:16px solid orange"">","null","","","","","","","","",""
"null","","html-keyboard-response","270","922637","0.0-270.0","","","null","","","","","","","","",""
"598","","image-keyboard-response","271","923237","0.0-271.0","","img/set1/S4.jpg","68","4","structured_normal","74","structured_normal,structured_load,structured_incentive,random","2,3,3,4,2,1","false","","",""
"null","","html-keyboard-response","272","923588","0.0-272.0","","<img src=""img/set1/S4.jpg"" width=""540"" height = ""360"">","null","","","","","","","","",""
"null","","html-keyboard-response","273","923791","0.0-273.0","","","null","","","","","","","","",""
"1356.300000011921","","image-keyboard-response","274","925148","0.0-274.0","","img/set1/S2.jpg","68","2","structured_normal","68","structured_normal,structured_load,structured_incentive,random","2,3,3,4,2,1","true","","",""
"null","","html-keyboard-response","275","925500","0.0-275.0","","<img src=""img/set1/S2.jpg"" width=""540"" height = ""360"" style=""border:16px solid orange"">","null","","","","","","","","",""
"null","","html-keyboard-response","276","925702","0.0-276.0","","","null","","","","","","","","",""
"773.0999999940395","","image-keyboard-response","277","926476","0.0-277.0","","img/set1/S3.jpg","74","3","structured_normal","72","structured_normal,structured_load,structured_incentive,random","2,3,3,4,2,1","false","","",""
"null","","html-keyboard-response","278","926829","0.0-278.0","","<img src=""img/set1/S3.jpg"" width=""540"" height = ""360"">","null","","","","","","","","",""
"null","","html-keyboard-response","279","927030","0.0-279.0","","","null","","","","","","","","",""
"965.5999999940395","","image-keyboard-response","280","927997","0.0-280.0","","img/set1/S1.jpg","68","1","structured_normal","83","structured_normal,structured_load,structured_incentive,random","2,3,3,4,2,1","false","","",""
"null","","html-keyboard-response","281","928348","0.0-281.0","","<img src=""img/set1/S1.jpg"" width=""540"" height = ""360"">","null","","","","","","","","",""
"null","","html-keyboard-response","282","928550","0.0-282.0","","","null","","","","","","","","",""
"1556.4000000059605","","image-keyboard-response","283","930108","0.0-283.0","","img/set1/S2.jpg","74","2","structured_normal","68","structured_normal,structured_load,structured_incentive,random","2,3,3,4,2,1","false","","",""
"null","","html-keyboard-response","284","930460","0.0-284.0","","<img src=""img/set1/S2.jpg"" width=""540"" height = ""360"">","null","","","","","","","","",""
"null","","html-keyboard-response","285","930661","0.0-285.0","","","null","","","","","","","","",""
"1239.199999988079","","image-keyboard-response","286","931901","0.0-286.0","","img/set1/S3.jpg","72","3","structured_normal","72","structured_normal,structured_load,structured_incentive,random","2,3,3,4,2,1","true","","",""
"null","","html-keyboard-response","287","932254","0.0-287.0","","<img src=""img/set1/S3.jpg"" width=""540"" height = ""360"" style=""border:16px solid orange"">","null","","","","","","","","",""
"null","","html-keyboard-response","288","932456","0.0-288.0","","","null","","","","","","","","",""
"715.6999999880791","","image-keyboard-response","289","933172","0.0-289.0","","img/set1/S4.jpg","74","4","structured_normal","74","structured_normal,structured_load,structured_incentive,random","2,3,3,4,2,1","true","","",""
"null","","html-keyboard-response","290","933524","0.0-290.0","","<img src=""img/set1/S4.jpg"" width=""540"" height = ""360"" style=""border:16px solid orange"">","null","","","","","","","","",""
"null","","html-keyboard-response","291","933726","0.0-291.0","","","null","","","","","","","","",""
"589.8000000119209","","image-keyboard-response","292","934317","0.0-292.0","","img/set1/S4.jpg","74","4","structured_normal","74","structured_normal,structured_load,structured_incentive,random","2,3,3,4,2,1","true","","",""
"null","","html-keyboard-response","293","934669","0.0-293.0","","<img src=""img/set1/S4.jpg"" width=""540"" height = ""360"" style=""border:16px solid orange"">","null","","","","","","","","",""
"null","","html-keyboard-response","294","934870","0.0-294.0","","","null","","","","","","","","",""
"813.2999999821186","","image-keyboard-response","295","935685","0.0-295.0","","img/set1/S1.jpg","83","1","structured_normal","83","structured_normal,structured_load,structured_incentive,random","2,3,3,4,2,1","true","","",""
"null","","html-keyboard-response","296","936036","0.0-296.0","","<img src=""img/set1/S1.jpg"" width=""540"" height = ""360"" style=""border:16px solid orange"">","null","","","","","","","","",""
"null","","html-keyboard-response","297","936238","0.0-297.0","","","null","","","","","","","","",""
"653.8000000119209","","image-keyboard-response","298","936892","0.0-298.0","","img/set1/S4.jpg","74","4","structured_normal","74","structured_normal,structured_load,structured_incentive,random","2,3,3,4,2,1","true","","",""
"null","","html-keyboard-response","299","937245","0.0-299.0","","<img src=""img/set1/S4.jpg"" width=""540"" height = ""360"" style=""border:16px solid orange"">","null","","","","","","","","",""
"null","","html-keyboard-response","300","937447","0.0-300.0","","","null","","","","","","","","",""
"556.4000000059605","","image-keyboard-response","301","938004","0.0-301.0","","img/set1/S1.jpg","74","1","structured_normal","83","structured_normal,structured_load,structured_incentive,random","2,3,3,4,2,1","false","","",""
"null","","html-keyboard-response","302","938356","0.0-302.0","","<img src=""img/set1/S1.jpg"" width=""540"" height = ""360"">","null","","","","","","","","",""
"null","","html-keyboard-response","303","938558","0.0-303.0","","","null","","","","","","","","",""
"1077.4000000059605","","image-keyboard-response","304","939636","0.0-304.0","","img/set1/S2.jpg","72","2","structured_normal","68","structured_normal,structured_load,structured_incentive,random","2,3,3,4,2,1","false","","",""
"null","","html-keyboard-response","305","939988","0.0-305.0","","<img src=""img/set1/S2.jpg"" width=""540"" height = ""360"">","null","","","","","","","","",""
"null","","html-keyboard-response","306","940189","0.0-306.0","","","null","","","","","","","","",""
"902.5999999940395","","image-keyboard-response","307","941093","0.0-307.0","","img/set1/S3.jpg","72","3","structured_normal","72","structured_normal,structured_load,structured_incentive,random","2,3,3,4,2,1","true","","",""
"null","","html-keyboard-response","308","941445","0.0-308.0","","<img src=""img/set1/S3.jpg"" width=""540"" height = ""360"" style=""border:16px solid orange"">","null","","","","","","","","",""
"null","","html-keyboard-response","309","941647","0.0-309.0","","","null","","","","","","","","",""
"524.3000000119209","","image-keyboard-response","310","942172","0.0-310.0","","img/set1/S2.jpg","68","2","structured_normal","68","structured_normal,structured_load,structured_incentive,random","2,3,3,4,2,1","true","","",""
"null","","html-keyboard-response","311","942523","0.0-311.0","","<img src=""img/set1/S2.jpg"" width=""540"" height = ""360"" style=""border:16px solid orange"">","null","","","","","","","","",""
"null","","html-keyboard-response","312","942724","0.0-312.0","","","null","","","","","","","","",""
"1103.5","","image-keyboard-response","313","943829","0.0-313.0","","img/set1/S3.jpg","74","3","structured_normal","72","structured_normal,structured_load,structured_incentive,random","2,3,3,4,2,1","false","","",""
"null","","html-keyboard-response","314","944192","0.0-314.0","","<img src=""img/set1/S3.jpg"" width=""540"" height = ""360"">","null","","","","","","","","",""
"null","","html-keyboard-response","315","944393","0.0-315.0","","","null","","","","","","","","",""
"1066.6000000238419","","image-keyboard-response","316","945460","0.0-316.0","","img/set1/S2.jpg","68","2","structured_normal","68","structured_normal,structured_load,structured_incentive,random","2,3,3,4,2,1","true","","",""
"null","","html-keyboard-response","317","945812","0.0-317.0","","<img src=""img/set1/S2.jpg"" width=""540"" height = ""360"" style=""border:16px solid orange"">","null","","","","","","","","",""
"null","","html-keyboard-response","318","946014","0.0-318.0","","","null","","","","","","","","",""
"590","","image-keyboard-response","319","946605","0.0-319.0","","img/set1/S3.jpg","72","3","structured_normal","72","structured_normal,structured_load,structured_incentive,random","2,3,3,4,2,1","true","","",""
"null","","html-keyboard-response","320","946957","0.0-320.0","","<img src=""img/set1/S3.jpg"" width=""540"" height = ""360"" style=""border:16px solid orange"">","null","","","","","","","","",""
"null","","html-keyboard-response","321","947158","0.0-321.0","","","null","","","","","","","","",""
"717.0999999940395","","image-keyboard-response","322","947877","0.0-322.0","","img/set1/S2.jpg","68","2","structured_normal","68","structured_normal,structured_load,structured_incentive,random","2,3,3,4,2,1","true","","",""
"null","","html-keyboard-response","323","948229","0.0-323.0","","<img src=""img/set1/S2.jpg"" width=""540"" height = ""360"" style=""border:16px solid orange"">","null","","","","","","","","",""
"null","","html-keyboard-response","324","948431","0.0-324.0","","","null","","","","","","","","",""
"451.89999997615814","","image-keyboard-response","325","948884","0.0-325.0","","img/set1/S3.jpg","72","3","structured_normal","72","structured_normal,structured_load,structured_incentive,random","2,3,3,4,2,1","true","","",""
"null","","html-keyboard-response","326","949236","0.0-326.0","","<img src=""img/set1/S3.jpg"" width=""540"" height = ""360"" style=""border:16px solid orange"">","null","","","","","","","","",""
"null","","html-keyboard-response","327","949438","0.0-327.0","","","null","","","","","","","","",""
"669.5","","image-keyboard-response","328","950108","0.0-328.0","","img/set1/S4.jpg","74","4","structured_normal","74","structured_normal,structured_load,structured_incentive,random","2,3,3,4,2,1","true","","",""
"null","","html-keyboard-response","329","950460","0.0-329.0","","<img src=""img/set1/S4.jpg"" width=""540"" height = ""360"" style=""border:16px solid orange"">","null","","","","","","","","",""
"null","","html-keyboard-response","330","950661","0.0-330.0","","","null","","","","","","","","",""
"493.39999997615814","","image-keyboard-response","331","951156","0.0-331.0","","img/set1/S1.jpg","83","1","structured_normal","83","structured_normal,structured_load,structured_incentive,random","2,3,3,4,2,1","true","","",""
"null","","html-keyboard-response","332","951508","0.0-332.0","","<img src=""img/set1/S1.jpg"" width=""540"" height = ""360"" style=""border:16px solid orange"">","null","","","","","","","","",""
"null","","html-keyboard-response","333","951709","0.0-333.0","","","null","","","","","","","","",""
"838.3000000119209","","image-keyboard-response","334","952549","0.0-334.0","","img/set1/S4.jpg","74","4","structured_normal","74","structured_normal,structured_load,structured_incentive,random","2,3,3,4,2,1","true","","",""
"null","","html-keyboard-response","335","952901","0.0-335.0","","<img src=""img/set1/S4.jpg"" width=""540"" height = ""360"" style=""border:16px solid orange"">","null","","","","","","","","",""
"null","","html-keyboard-response","336","953103","0.0-336.0","","","null","","","","","","","","",""
"676","","image-keyboard-response","337","953780","0.0-337.0","","img/set1/S1.jpg","83","1","structured_normal","83","structured_normal,structured_load,structured_incentive,random","2,3,3,4,2,1","true","","",""
"null","","html-keyboard-response","338","954132","0.0-338.0","","<img src=""img/set1/S1.jpg"" width=""540"" height = ""360"" style=""border:16px solid orange"">","null","","","","","","","","",""
"null","","html-keyboard-response","339","954334","0.0-339.0","","","null","","","","","","","","",""
"1061.800000011921","","image-keyboard-response","340","955396","0.0-340.0","","img/set1/S2.jpg","68","2","structured_normal","68","structured_normal,structured_load,structured_incentive,random","2,3,3,4,2,1","true","","",""
"null","","html-keyboard-response","341","955749","0.0-341.0","","<img src=""img/set1/S2.jpg"" width=""540"" height = ""360"" style=""border:16px solid orange"">","null","","","","","","","","",""
"null","","html-keyboard-response","342","955950","0.0-342.0","","","null","","","","","","","","",""
"709.3000000119209","","image-keyboard-response","343","956660","0.0-343.0","","img/set1/S3.jpg","72","3","structured_normal","72","structured_normal,structured_load,structured_incentive,random","2,3,3,4,2,1","true","","",""
"null","","html-keyboard-response","344","957012","0.0-344.0","","<img src=""img/set1/S3.jpg"" width=""540"" height = ""360"" style=""border:16px solid orange"">","null","","","","","","","","",""
"null","","html-keyboard-response","345","957214","0.0-345.0","","","null","","","","","","","","",""
"1061.5","","image-keyboard-response","346","958277","0.0-346.0","","img/set1/S1.jpg","68","1","structured_normal","83","structured_normal,structured_load,structured_incentive,random","2,3,3,4,2,1","false","","",""
"null","","html-keyboard-response","347","958629","0.0-347.0","","<img src=""img/set1/S1.jpg"" width=""540"" height = ""360"">","null","","","","","","","","",""
"null","","html-keyboard-response","348","958831","0.0-348.0","","","null","","","","","","","","",""
"1012.4000000059605","","image-keyboard-response","349","959845","0.0-349.0","","img/set1/S4.jpg","74","4","structured_normal","74","structured_normal,structured_load,structured_incentive,random","2,3,3,4,2,1","true","","",""
"null","","html-keyboard-response","350","960198","0.0-350.0","","<img src=""img/set1/S4.jpg"" width=""540"" height = ""360"" style=""border:16px solid orange"">","null","","","","","","","","",""
"null","","html-keyboard-response","351","960399","0.0-351.0","","","null","","","","","","","","",""
"556.3000000119209","","image-keyboard-response","352","960956","0.0-352.0","","img/set1/S4.jpg","74","4","structured_normal","74","structured_normal,structured_load,structured_incentive,random","2,3,3,4,2,1","true","","",""
"null","","html-keyboard-response","353","961307","0.0-353.0","","<img src=""img/set1/S4.jpg"" width=""540"" height = ""360"" style=""border:16px solid orange"">","null","","","","","","","","",""
"null","","html-keyboard-response","354","961508","0.0-354.0","","","null","","","","","","","","",""
"775.0999999940395","","image-keyboard-response","355","962285","0.0-355.0","","img/set1/S2.jpg","68","2","structured_normal","68","structured_normal,structured_load,structured_incentive,random","2,3,3,4,2,1","true","","",""
"null","","html-keyboard-response","356","962637","0.0-356.0","","<img src=""img/set1/S2.jpg"" width=""540"" height = ""360"" style=""border:16px solid orange"">","null","","","","","","","","",""
"null","","html-keyboard-response","357","962838","0.0-357.0","","","null","","","","","","","","",""
"716.5","","image-keyboard-response","358","963556","0.0-358.0","","img/set1/S3.jpg","72","3","structured_normal","72","structured_normal,structured_load,structured_incentive,random","2,3,3,4,2,1","true","","",""
"null","","html-keyboard-response","359","963908","0.0-359.0","","<img src=""img/set1/S3.jpg"" width=""540"" height = ""360"" style=""border:16px solid orange"">","null","","","","","","","","",""
"null","","html-keyboard-response","360","964109","0.0-360.0","","","null","","","","","","","","",""
"670.3000000119209","","image-keyboard-response","361","964781","0.0-361.0","","img/set1/S4.jpg","83","4","structured_normal","74","structured_normal,structured_load,structured_incentive,random","2,3,3,4,2,1","false","","",""
"null","","html-keyboard-response","362","965133","0.0-362.0","","<img src=""img/set1/S4.jpg"" width=""540"" height = ""360"">","null","","","","","","","","",""
"null","","html-keyboard-response","363","965334","0.0-363.0","","","null","","","","","","","","",""
"4077.7000000178814","","html-keyboard-response","364","969413","0.0-364.0","","<p class=""center-content"">You have completed a block! </p><p class=""center-content"">Press any key on the keyboard to continue, </p><p class=""center-content"">or wait for the automatic progression to the next block after one minute.</p>","32","","","","","","","","",""
"9258","","instructions","365","978671","0.0-365.0","[{""page_index"":0,""viewing_time"":9257.59999999404}]","","","","","","","","","","",""
"21247","","instructions","366","999919","0.0-366.0","[{""page_index"":0,""viewing_time"":16465},{""page_index"":1,""viewing_time"":4781.9000000059605}]","","","","","","","","","","",""
"null","","image-keyboard-response","367","1002421","0.0-367.0","","img/set2/S2.jpg","null","2","structured_load","68","structured_normal,structured_load,structured_incentive,random","2,3,3,4,2,1","false","","",""
"null","","html-keyboard-response","368","1002773","0.0-368.0","","<img src=""img/set2/S2.jpg"" width=""540"" height = ""360"">","null","","","","","","","","",""
"null","","html-keyboard-response","369","1002974","0.0-369.0","","","null","","","","","","","","",""
"100.5","","image-keyboard-response","370","1003076","0.0-370.0","","img/set2/S1.jpg","74","1","structured_load","83","structured_normal,structured_load,structured_incentive,random","2,3,3,4,2,1","false","","",""
"null","","html-keyboard-response","371","1003427","0.0-371.0","","<img src=""img/set2/S1.jpg"" width=""540"" height = ""360"">","null","","","","","","","","",""
"null","","html-keyboard-response","372","1003628","0.0-372.0","","","null","","","","","","","","",""
"574.2000000178814","","image-keyboard-response","373","1004204","0.0-373.0","","img/set2/S2.jpg","74","2","structured_load","68","structured_normal,structured_load,structured_incentive,random","2,3,3,4,2,1","false","","",""
"null","","html-keyboard-response","374","1004556","0.0-374.0","","<img src=""img/set2/S2.jpg"" width=""540"" height = ""360"">","null","","","","","","","","",""
"null","","html-keyboard-response","375","1004757","0.0-375.0","","","null","","","","","","","","",""
"998.3000000119209","","image-keyboard-response","376","1005757","0.0-376.0","","img/set2/S3.jpg","83","3","structured_load","72","structured_normal,structured_load,structured_incentive,random","2,3,3,4,2,1","false","","",""
"null","","html-keyboard-response","377","1006109","0.0-377.0","","<img src=""img/set2/S3.jpg"" width=""540"" height = ""360"">","null","","","","","","","","",""
"null","","html-keyboard-response","378","1006310","0.0-378.0","","","null","","","","","","","","",""
"1077.300000011921","","image-keyboard-response","379","1007388","0.0-379.0","","img/set2/S4.jpg","72","4","structured_load","74","structured_normal,structured_load,structured_incentive,random","2,3,3,4,2,1","false","","",""
"null","","html-keyboard-response","380","1007740","0.0-380.0","","<img src=""img/set2/S4.jpg"" width=""540"" height = ""360"">","null","","","","","","","","",""
"null","","html-keyboard-response","381","1007942","0.0-381.0","","","null","","","","","","","","",""
"1133.4000000059605","","image-keyboard-response","382","1009076","0.0-382.0","","img/set2/S3.jpg","74","3","structured_load","72","structured_normal,structured_load,structured_incentive,random","2,3,3,4,2,1","false","","",""
"null","","html-keyboard-response","383","1009427","0.0-383.0","","<img src=""img/set2/S3.jpg"" width=""540"" height = ""360"">","null","","","","","","","","",""
"null","","html-keyboard-response","384","1009629","0.0-384.0","","","null","","","","","","","","",""
"1261.9000000059605","","image-keyboard-response","385","1010892","0.0-385.0","","img/set2/S4.jpg","68","4","structured_load","74","structured_normal,structured_load,structured_incentive,random","2,3,3,4,2,1","false","","",""
"null","","html-keyboard-response","386","1011247","0.0-386.0","","<img src=""img/set2/S4.jpg"" width=""540"" height = ""360"">","null","","","","","","","","",""
"null","","html-keyboard-response","387","1011448","0.0-387.0","","","null","","","","","","","","",""
"730.2999999821186","","image-keyboard-response","388","1012179","0.0-388.0","","img/set2/S3.jpg","83","3","structured_load","72","structured_normal,structured_load,structured_incentive,random","2,3,3,4,2,1","false","","",""
"null","","html-keyboard-response","389","1012531","0.0-389.0","","<img src=""img/set2/S3.jpg"" width=""540"" height = ""360"">","null","","","","","","","","",""
"null","","html-keyboard-response","390","1012733","0.0-390.0","","","null","","","","","","","","",""
"1126","","image-keyboard-response","391","1013860","0.0-391.0","","img/set2/S4.jpg","72","4","structured_load","74","structured_normal,structured_load,structured_incentive,random","2,3,3,4,2,1","false","","",""
"null","","html-keyboard-response","392","1014212","0.0-392.0","","<img src=""img/set2/S4.jpg"" width=""540"" height = ""360"">","null","","","","","","","","",""
"null","","html-keyboard-response","393","1014413","0.0-393.0","","","null","","","","","","","","",""
"1142","","image-keyboard-response","394","1015556","0.0-394.0","","img/set2/S3.jpg","68","3","structured_load","72","structured_normal,structured_load,structured_incentive,random","2,3,3,4,2,1","false","","",""
"null","","html-keyboard-response","395","1015909","0.0-395.0","","<img src=""img/set2/S3.jpg"" width=""540"" height = ""360"">","null","","","","","","","","",""
"null","","html-keyboard-response","396","1016111","0.0-396.0","","","null","","","","","","","","",""
"452.7999999821186","","image-keyboard-response","397","1016564","0.0-397.0","","img/set2/S4.jpg","74","4","structured_load","74","structured_normal,structured_load,structured_incentive,random","2,3,3,4,2,1","true","","",""
"null","","html-keyboard-response","398","1016917","0.0-398.0","","<img src=""img/set2/S4.jpg"" width=""540"" height = ""360"" style=""border:16px solid orange"">","null","","","","","","","","",""
"null","","html-keyboard-response","399","1017119","0.0-399.0","","","null","","","","","","","","",""
"1052.0999999940395","","image-keyboard-response","400","1018172","0.0-400.0","","img/set2/S2.jpg","83","2","structured_load","68","structured_normal,structured_load,structured_incentive,random","2,3,3,4,2,1","false","","",""
"null","","html-keyboard-response","401","1018523","0.0-401.0","","<img src=""img/set2/S2.jpg"" width=""540"" height = ""360"">","null","","","","","","","","",""
"null","","html-keyboard-response","402","1018725","0.0-402.0","","","null","","","","","","","","",""
"1142.2999999821186","","image-keyboard-response","403","1019868","0.0-403.0","","img/set2/S2.jpg","68","2","structured_load","68","structured_normal,structured_load,structured_incentive,random","2,3,3,4,2,1","true","","",""
"null","","html-keyboard-response","404","1020221","0.0-404.0","","<img src=""img/set2/S2.jpg"" width=""540"" height = ""360"" style=""border:16px solid orange"">","null","","","","","","","","",""
"null","","html-keyboard-response","405","1020423","0.0-405.0","","","null","","","","","","","","",""
"852","","image-keyboard-response","406","1021275","0.0-406.0","","img/set2/S3.jpg","74","3","structured_load","72","structured_normal,structured_load,structured_incentive,random","2,3,3,4,2,1","false","","",""
"null","","html-keyboard-response","407","1021628","0.0-407.0","","<img src=""img/set2/S3.jpg"" width=""540"" height = ""360"">","null","","","","","","","","",""
"null","","html-keyboard-response","408","1021829","0.0-408.0","","","null","","","","","","","","",""
"1381.800000011921","","image-keyboard-response","409","1023211","0.0-409.0","","img/set2/S4.jpg","72","4","structured_load","74","structured_normal,structured_load,structured_incentive,random","2,3,3,4,2,1","false","","",""
"null","","html-keyboard-response","410","1023563","0.0-410.0","","<img src=""img/set2/S4.jpg"" width=""540"" height = ""360"">","null","","","","","","","","",""
"null","","html-keyboard-response","411","1023765","0.0-411.0","","","null","","","","","","","","",""
"973","","image-keyboard-response","412","1024740","0.0-412.0","","img/set2/S2.jpg","83","2","structured_load","68","structured_normal,structured_load,structured_incentive,random","2,3,3,4,2,1","false","","",""
"null","","html-keyboard-response","413","1025091","0.0-413.0","","<img src=""img/set2/S2.jpg"" width=""540"" height = ""360"">","null","","","","","","","","",""
"null","","html-keyboard-response","414","1025293","0.0-414.0","","","null","","","","","","","","",""
"549.8000000119209","","image-keyboard-response","415","1025844","0.0-415.0","","img/set2/S3.jpg","72","3","structured_load","72","structured_normal,structured_load,structured_incentive,random","2,3,3,4,2,1","true","","",""
"null","","html-keyboard-response","416","1026195","0.0-416.0","","<img src=""img/set2/S3.jpg"" width=""540"" height = ""360"" style=""border:16px solid orange"">","null","","","","","","","","",""
"null","","html-keyboard-response","417","1026396","0.0-417.0","","","null","","","","","","","","",""
"1078.5999999940395","","image-keyboard-response","418","1027476","0.0-418.0","","img/set2/S4.jpg","74","4","structured_load","74","structured_normal,structured_load,structured_incentive,random","2,3,3,4,2,1","true","","",""
"null","","html-keyboard-response","419","1027828","0.0-419.0","","<img src=""img/set2/S4.jpg"" width=""540"" height = ""360"" style=""border:16px solid orange"">","null","","","","","","","","",""
"null","","html-keyboard-response","420","1028029","0.0-420.0","","","null","","","","","","","","",""
"1245.800000011921","","image-keyboard-response","421","1029276","0.0-421.0","","img/set2/S3.jpg","68","3","structured_load","72","structured_normal,structured_load,structured_incentive,random","2,3,3,4,2,1","false","","",""
"null","","html-keyboard-response","422","1029628","0.0-422.0","","<img src=""img/set2/S3.jpg"" width=""540"" height = ""360"">","null","","","","","","","","",""
"null","","html-keyboard-response","423","1029830","0.0-423.0","","","null","","","","","","","","",""
"668.7000000178814","","image-keyboard-response","424","1030500","0.0-424.0","","img/set2/S4.jpg","74","4","structured_load","74","structured_normal,structured_load,structured_incentive,random","2,3,3,4,2,1","true","","",""
"null","","html-keyboard-response","425","1030853","0.0-425.0","","<img src=""img/set2/S4.jpg"" width=""540"" height = ""360"" style=""border:16px solid orange"">","null","","","","","","","","",""
"null","","html-keyboard-response","426","1031054","0.0-426.0","","","null","","","","","","","","",""
"781.0999999940395","","image-keyboard-response","427","1031836","0.0-427.0","","img/set2/S2.jpg","72","2","structured_load","68","structured_normal,structured_load,structured_incentive,random","2,3,3,4,2,1","false","","",""
"null","","html-keyboard-response","428","1032200","0.0-428.0","","<img src=""img/set2/S2.jpg"" width=""540"" height = ""360"">","null","","","","","","","","",""
"null","","html-keyboard-response","429","1032401","0.0-429.0","","","null","","","","","","","","",""
"976.9000000059605","","image-keyboard-response","430","1033379","0.0-430.0","","img/set2/S2.jpg","83","2","structured_load","68","structured_normal,structured_load,structured_incentive,random","2,3,3,4,2,1","false","","",""
"null","","html-keyboard-response","431","1033731","0.0-431.0","","<img src=""img/set2/S2.jpg"" width=""540"" height = ""360"">","null","","","","","","","","",""
"null","","html-keyboard-response","432","1033932","0.0-432.0","","","null","","","","","","","","",""
"639.1000000238419","","image-keyboard-response","433","1034572","0.0-433.0","","img/set2/S2.jpg","68","2","structured_load","68","structured_normal,structured_load,structured_incentive,random","2,3,3,4,2,1","true","","",""
"null","","html-keyboard-response","434","1034924","0.0-434.0","","<img src=""img/set2/S2.jpg"" width=""540"" height = ""360"" style=""border:16px solid orange"">","null","","","","","","","","",""
"null","","html-keyboard-response","435","1035126","0.0-435.0","","","null","","","","","","","","",""
"1236.9000000059605","","image-keyboard-response","436","1036364","0.0-436.0","","img/set2/S1.jpg","83","1","structured_load","83","structured_normal,structured_load,structured_incentive,random","2,3,3,4,2,1","true","","",""
"null","","html-keyboard-response","437","1036715","0.0-437.0","","<img src=""img/set2/S1.jpg"" width=""540"" height = ""360"" style=""border:16px solid orange"">","null","","","","","","","","",""
"null","","html-keyboard-response","438","1036918","0.0-438.0","","","null","","","","","","","","",""
"1421.4000000059605","","image-keyboard-response","439","1038340","0.0-439.0","","img/set2/S3.jpg","68","3","structured_load","72","structured_normal,structured_load,structured_incentive,random","2,3,3,4,2,1","false","","",""
"null","","html-keyboard-response","440","1038692","0.0-440.0","","<img src=""img/set2/S3.jpg"" width=""540"" height = ""360"">","null","","","","","","","","",""
"null","","html-keyboard-response","441","1038893","0.0-441.0","","","null","","","","","","","","",""
"1077.7000000178814","","image-keyboard-response","442","1039972","0.0-442.0","","img/set2/S4.jpg","74","4","structured_load","74","structured_normal,structured_load,structured_incentive,random","2,3,3,4,2,1","true","","",""
"null","","html-keyboard-response","443","1040325","0.0-443.0","","<img src=""img/set2/S4.jpg"" width=""540"" height = ""360"" style=""border:16px solid orange"">","null","","","","","","","","",""
"null","","html-keyboard-response","444","1040527","0.0-444.0","","","null","","","","","","","","",""
"835.3000000119209","","image-keyboard-response","445","1041364","0.0-445.0","","img/set2/S3.jpg","68","3","structured_load","72","structured_normal,structured_load,structured_incentive,random","2,3,3,4,2,1","false","","",""
"null","","html-keyboard-response","446","1041715","0.0-446.0","","<img src=""img/set2/S3.jpg"" width=""540"" height = ""360"">","null","","","","","","","","",""
"null","","html-keyboard-response","447","1041925","0.0-447.0","","","null","","","","","","","","",""
"1373.300000011921","","image-keyboard-response","448","1043300","0.0-448.0","","img/set2/S4.jpg","74","4","structured_load","74","structured_normal,structured_load,structured_incentive,random","2,3,3,4,2,1","true","","",""
"null","","html-keyboard-response","449","1043652","0.0-449.0","","<img src=""img/set2/S4.jpg"" width=""540"" height = ""360"" style=""border:16px solid orange"">","null","","","","","","","","",""
"null","","html-keyboard-response","450","1043856","0.0-450.0","","","null","","","","","","","","",""
"851.1999999880791","","image-keyboard-response","451","1044708","0.0-451.0","","img/set2/S3.jpg","72","3","structured_load","72","structured_normal,structured_load,structured_incentive,random","2,3,3,4,2,1","true","","",""
"null","","html-keyboard-response","452","1045060","0.0-452.0","","<img src=""img/set2/S3.jpg"" width=""540"" height = ""360"" style=""border:16px solid orange"">","null","","","","","","","","",""
"null","","html-keyboard-response","453","1045262","0.0-453.0","","","null","","","","","","","","",""
"749.0999999940395","","image-keyboard-response","454","1046012","0.0-454.0","","img/set2/S4.jpg","74","4","structured_load","74","structured_normal,structured_load,structured_incentive,random","2,3,3,4,2,1","true","","",""
"null","","html-keyboard-response","455","1046364","0.0-455.0","","<img src=""img/set2/S4.jpg"" width=""540"" height = ""360"" style=""border:16px solid orange"">","null","","","","","","","","",""
"null","","html-keyboard-response","456","1046565","0.0-456.0","","","null","","","","","","","","",""
"677.2000000178814","","image-keyboard-response","457","1047243","0.0-457.0","","img/set2/S3.jpg","72","3","structured_load","72","structured_normal,structured_load,structured_incentive,random","2,3,3,4,2,1","true","","",""
"null","","html-keyboard-response","458","1047595","0.0-458.0","","<img src=""img/set2/S3.jpg"" width=""540"" height = ""360"" style=""border:16px solid orange"">","null","","","","","","","","",""
"null","","html-keyboard-response","459","1047796","0.0-459.0","","","null","","","","","","","","",""
"878.4000000059605","","image-keyboard-response","460","1048676","0.0-460.0","","img/set2/S4.jpg","74","4","structured_load","74","structured_normal,structured_load,structured_incentive,random","2,3,3,4,2,1","true","","",""
"null","","html-keyboard-response","461","1049028","0.0-461.0","","<img src=""img/set2/S4.jpg"" width=""540"" height = ""360"" style=""border:16px solid orange"">","null","","","","","","","","",""
"null","","html-keyboard-response","462","1049229","0.0-462.0","","","null","","","","","","","","",""
"1069.699999988079","","image-keyboard-response","463","1050300","0.0-463.0","","img/set2/S2.jpg","83","2","structured_load","68","structured_normal,structured_load,structured_incentive,random","2,3,3,4,2,1","false","","",""
"null","","html-keyboard-response","464","1050653","0.0-464.0","","<img src=""img/set2/S2.jpg"" width=""540"" height = ""360"">","null","","","","","","","","",""
"null","","html-keyboard-response","465","1050855","0.0-465.0","","","null","","","","","","","","",""
"1034.9000000059605","","image-keyboard-response","466","1051892","0.0-466.0","","img/set2/S1.jpg","68","1","structured_load","83","structured_normal,structured_load,structured_incentive,random","2,3,3,4,2,1","false","","",""
"null","","html-keyboard-response","467","1052244","0.0-467.0","","<img src=""img/set2/S1.jpg"" width=""540"" height = ""360"">","null","","","","","","","","",""
"null","","html-keyboard-response","468","1052445","0.0-468.0","","","null","","","","","","","","",""
"733.2999999821186","","image-keyboard-response","469","1053179","0.0-469.0","","img/set2/S1.jpg","83","1","structured_load","83","structured_normal,structured_load,structured_incentive,random","2,3,3,4,2,1","true","","",""
"null","","html-keyboard-response","470","1053531","0.0-470.0","","<img src=""img/set2/S1.jpg"" width=""540"" height = ""360"" style=""border:16px solid orange"">","null","","","","","","","","",""
"null","","html-keyboard-response","471","1053732","0.0-471.0","","","null","","","","","","","","",""
"679.1999999880791","","image-keyboard-response","472","1054412","0.0-472.0","","img/set2/S1.jpg","83","1","structured_load","83","structured_normal,structured_load,structured_incentive,random","2,3,3,4,2,1","true","","",""
"null","","html-keyboard-response","473","1054764","0.0-473.0","","<img src=""img/set2/S1.jpg"" width=""540"" height = ""360"" style=""border:16px solid orange"">","null","","","","","","","","",""
"null","","html-keyboard-response","474","1054966","0.0-474.0","","","null","","","","","","","","",""
"893.2999999821186","","image-keyboard-response","475","1055860","0.0-475.0","","img/set2/S2.jpg","68","2","structured_load","68","structured_normal,structured_load,structured_incentive,random","2,3,3,4,2,1","true","","",""
"null","","html-keyboard-response","476","1056212","0.0-476.0","","<img src=""img/set2/S2.jpg"" width=""540"" height = ""360"" style=""border:16px solid orange"">","null","","","","","","","","",""
"null","","html-keyboard-response","477","1056413","0.0-477.0","","","null","","","","","","","","",""
"1157.9000000059605","","image-keyboard-response","478","1057572","0.0-478.0","","img/set2/S3.jpg","72","3","structured_load","72","structured_normal,structured_load,structured_incentive,random","2,3,3,4,2,1","true","","",""
"null","","html-keyboard-response","479","1057924","0.0-479.0","","<img src=""img/set2/S3.jpg"" width=""540"" height = ""360"" style=""border:16px solid orange"">","null","","","","","","","","",""
"null","","html-keyboard-response","480","1058126","0.0-480.0","","","null","","","","","","","","",""
"676.8999999761581","","image-keyboard-response","481","1058804","0.0-481.0","","img/set2/S4.jpg","74","4","structured_load","74","structured_normal,structured_load,structured_incentive,random","2,3,3,4,2,1","true","","",""
"null","","html-keyboard-response","482","1059156","0.0-482.0","","<img src=""img/set2/S4.jpg"" width=""540"" height = ""360"" style=""border:16px solid orange"">","null","","","","","","","","",""
"null","","html-keyboard-response","483","1059359","0.0-483.0","","","null","","","","","","","","",""
"1235.199999988079","","image-keyboard-response","484","1060595","0.0-484.0","","img/set2/S2.jpg","83","2","structured_load","68","structured_normal,structured_load,structured_incentive,random","2,3,3,4,2,1","false","","",""
"null","","html-keyboard-response","485","1060947","0.0-485.0","","<img src=""img/set2/S2.jpg"" width=""540"" height = ""360"">","null","","","","","","","","",""
"null","","html-keyboard-response","486","1061157","0.0-486.0","","","null","","","","","","","","",""
"909.7999999821186","","image-keyboard-response","487","1062068","0.0-487.0","","img/set2/S1.jpg","68","1","structured_load","83","structured_normal,structured_load,structured_incentive,random","2,3,3,4,2,1","false","","",""
"null","","html-keyboard-response","488","1062420","0.0-488.0","","<img src=""img/set2/S1.jpg"" width=""540"" height = ""360"">","null","","","","","","","","",""
"null","","html-keyboard-response","489","1062622","0.0-489.0","","","null","","","","","","","","",""
"1012.5999999940395","","image-keyboard-response","490","1063636","0.0-490.0","","img/set2/S2.jpg","83","2","structured_load","68","structured_normal,structured_load,structured_incentive,random","2,3,3,4,2,1","false","","",""
"null","","html-keyboard-response","491","1063988","0.0-491.0","","<img src=""img/set2/S2.jpg"" width=""540"" height = ""360"">","null","","","","","","","","",""
"null","","html-keyboard-response","492","1064189","0.0-492.0","","","null","","","","","","","","",""
"1405.4000000059605","","image-keyboard-response","493","1065596","0.0-493.0","","img/set2/S1.jpg","83","1","structured_load","83","structured_normal,structured_load,structured_incentive,random","2,3,3,4,2,1","true","","",""
"null","","html-keyboard-response","494","1065948","0.0-494.0","","<img src=""img/set2/S1.jpg"" width=""540"" height = ""360"" style=""border:16px solid orange"">","null","","","","","","","","",""
"null","","html-keyboard-response","495","1066149","0.0-495.0","","","null","","","","","","","","",""
"637.3000000119209","","image-keyboard-response","496","1066788","0.0-496.0","","img/set2/S1.jpg","83","1","structured_load","83","structured_normal,structured_load,structured_incentive,random","2,3,3,4,2,1","true","","",""
"null","","html-keyboard-response","497","1067140","0.0-497.0","","<img src=""img/set2/S1.jpg"" width=""540"" height = ""360"" style=""border:16px solid orange"">","null","","","","","","","","",""
"null","","html-keyboard-response","498","1067342","0.0-498.0","","","null","","","","","","","","",""
"996.9000000059605","","image-keyboard-response","499","1068340","0.0-499.0","","img/set2/S3.jpg","68","3","structured_load","72","structured_normal,structured_load,structured_incentive,random","2,3,3,4,2,1","false","","",""
"null","","html-keyboard-response","500","1068693","0.0-500.0","","<img src=""img/set2/S3.jpg"" width=""540"" height = ""360"">","null","","","","","","","","",""
"null","","html-keyboard-response","501","1068896","0.0-501.0","","","null","","","","","","","","",""
"810.6000000238419","","image-keyboard-response","502","1069708","0.0-502.0","","img/set2/S4.jpg","74","4","structured_load","74","structured_normal,structured_load,structured_incentive,random","2,3,3,4,2,1","true","","",""
"null","","html-keyboard-response","503","1070060","0.0-503.0","","<img src=""img/set2/S4.jpg"" width=""540"" height = ""360"" style=""border:16px solid orange"">","null","","","","","","","","",""
"null","","html-keyboard-response","504","1070262","0.0-504.0","","","null","","","","","","","","",""
"1228.3999999761581","","image-keyboard-response","505","1071491","0.0-505.0","","img/set2/S2.jpg","68","2","structured_load","68","structured_normal,structured_load,structured_incentive,random","2,3,3,4,2,1","true","","",""
"null","","html-keyboard-response","506","1071843","0.0-506.0","","<img src=""img/set2/S2.jpg"" width=""540"" height = ""360"" style=""border:16px solid orange"">","null","","","","","","","","",""
"null","","html-keyboard-response","507","1072045","0.0-507.0","","","null","","","","","","","","",""
"941.3000000119209","","image-keyboard-response","508","1072988","0.0-508.0","","img/set2/S3.jpg","74","3","structured_load","72","structured_normal,structured_load,structured_incentive,random","2,3,3,4,2,1","false","","",""
"null","","html-keyboard-response","509","1073339","0.0-509.0","","<img src=""img/set2/S3.jpg"" width=""540"" height = ""360"">","null","","","","","","","","",""
"null","","html-keyboard-response","510","1073541","0.0-510.0","","","null","","","","","","","","",""
"710","","image-keyboard-response","511","1074252","0.0-511.0","","img/set2/S4.jpg","74","4","structured_load","74","structured_normal,structured_load,structured_incentive,random","2,3,3,4,2,1","true","","",""
"null","","html-keyboard-response","512","1074604","0.0-512.0","","<img src=""img/set2/S4.jpg"" width=""540"" height = ""360"" style=""border:16px solid orange"">","null","","","","","","","","",""
"null","","html-keyboard-response","513","1074805","0.0-513.0","","","null","","","","","","","","",""
"1013","","image-keyboard-response","514","1075820","0.0-514.0","","img/set2/S2.jpg","83","2","structured_load","68","structured_normal,structured_load,structured_incentive,random","2,3,3,4,2,1","false","","",""
"null","","html-keyboard-response","515","1076172","0.0-515.0","","<img src=""img/set2/S2.jpg"" width=""540"" height = ""360"">","null","","","","","","","","",""
"null","","html-keyboard-response","516","1076373","0.0-516.0","","","null","","","","","","","","",""
"924.7999999821186","","image-keyboard-response","517","1077299","0.0-517.0","","img/set2/S1.jpg","68","1","structured_load","83","structured_normal,structured_load,structured_incentive,random","2,3,3,4,2,1","false","","",""
"null","","html-keyboard-response","518","1077651","0.0-518.0","","<img src=""img/set2/S1.jpg"" width=""540"" height = ""360"">","null","","","","","","","","",""
"null","","html-keyboard-response","519","1077852","0.0-519.0","","","null","","","","","","","","",""
"1214.699999988079","","image-keyboard-response","520","1079068","0.0-520.0","","img/set2/S3.jpg","72","3","structured_load","72","structured_normal,structured_load,structured_incentive,random","2,3,3,4,2,1","true","","",""
"null","","html-keyboard-response","521","1079420","0.0-521.0","","<img src=""img/set2/S3.jpg"" width=""540"" height = ""360"" style=""border:16px solid orange"">","null","","","","","","","","",""
"null","","html-keyboard-response","522","1079621","0.0-522.0","","","null","","","","","","","","",""
"694","","image-keyboard-response","523","1080316","0.0-523.0","","img/set2/S4.jpg","74","4","structured_load","74","structured_normal,structured_load,structured_incentive,random","2,3,3,4,2,1","true","","",""
"null","","html-keyboard-response","524","1080668","0.0-524.0","","<img src=""img/set2/S4.jpg"" width=""540"" height = ""360"" style=""border:16px solid orange"">","null","","","","","","","","",""
"null","","html-keyboard-response","525","1080869","0.0-525.0","","","null","","","","","","","","",""
"1324.9000000059605","","image-keyboard-response","526","1082195","0.0-526.0","","img/set2/S2.jpg","83","2","structured_load","68","structured_normal,structured_load,structured_incentive,random","2,3,3,4,2,1","false","","",""
"null","","html-keyboard-response","527","1082548","0.0-527.0","","<img src=""img/set2/S2.jpg"" width=""540"" height = ""360"">","null","","","","","","","","",""
"null","","html-keyboard-response","528","1082750","0.0-528.0","","","null","","","","","","","","",""
"1436.300000011921","","image-keyboard-response","529","1084188","0.0-529.0","","img/set2/S1.jpg","83","1","structured_load","83","structured_normal,structured_load,structured_incentive,random","2,3,3,4,2,1","true","","",""
"null","","html-keyboard-response","530","1084541","0.0-530.0","","<img src=""img/set2/S1.jpg"" width=""540"" height = ""360"" style=""border:16px solid orange"">","null","","","","","","","","",""
"null","","html-keyboard-response","531","1084742","0.0-531.0","","","null","","","","","","","","",""
"1195.9000000059605","","image-keyboard-response","532","1085939","0.0-532.0","","img/set2/S3.jpg","68","3","structured_load","72","structured_normal,structured_load,structured_incentive,random","2,3,3,4,2,1","false","","",""
"null","","html-keyboard-response","533","1086291","0.0-533.0","","<img src=""img/set2/S3.jpg"" width=""540"" height = ""360"">","null","","","","","","","","",""
"null","","html-keyboard-response","534","1086492","0.0-534.0","","","null","","","","","","","","",""
"653.4000000059605","","image-keyboard-response","535","1087147","0.0-535.0","","img/set2/S4.jpg","74","4","structured_load","74","structured_normal,structured_load,structured_incentive,random","2,3,3,4,2,1","true","","",""
"null","","html-keyboard-response","536","1087499","0.0-536.0","","<img src=""img/set2/S4.jpg"" width=""540"" height = ""360"" style=""border:16px solid orange"">","null","","","","","","","","",""
"null","","html-keyboard-response","537","1087700","0.0-537.0","","","null","","","","","","","","",""
"894.9000000059605","","image-keyboard-response","538","1088596","0.0-538.0","","img/set2/S1.jpg","68","1","structured_load","83","structured_normal,structured_load,structured_incentive,random","2,3,3,4,2,1","false","","",""
"null","","html-keyboard-response","539","1088948","0.0-539.0","","<img src=""img/set2/S1.jpg"" width=""540"" height = ""360"">","null","","","","","","","","",""
"null","","html-keyboard-response","540","1089150","0.0-540.0","","","null","","","","","","","","",""
"772","","image-keyboard-response","541","1089923","0.0-541.0","","img/set2/S3.jpg","74","3","structured_load","72","structured_normal,structured_load,structured_incentive,random","2,3,3,4,2,1","false","","",""
"null","","html-keyboard-response","542","1090275","0.0-542.0","","<img src=""img/set2/S3.jpg"" width=""540"" height = ""360"">","null","","","","","","","","",""
"null","","html-keyboard-response","543","1090485","0.0-543.0","","","null","","","","","","","","",""
"604.0999999940395","","image-keyboard-response","544","1091091","0.0-544.0","","img/set2/S4.jpg","74","4","structured_load","74","structured_normal,structured_load,structured_incentive,random","2,3,3,4,2,1","true","","",""
"null","","html-keyboard-response","545","1091443","0.0-545.0","","<img src=""img/set2/S4.jpg"" width=""540"" height = ""360"" style=""border:16px solid orange"">","null","","","","","","","","",""
"null","","html-keyboard-response","546","1091645","0.0-546.0","","","null","","","","","","","","",""
"837.7000000178814","","image-keyboard-response","547","1092484","0.0-547.0","","img/set2/S2.jpg","68","2","structured_load","68","structured_normal,structured_load,structured_incentive,random","2,3,3,4,2,1","true","","",""
"null","","html-keyboard-response","548","1092836","0.0-548.0","","<img src=""img/set2/S2.jpg"" width=""540"" height = ""360"" style=""border:16px solid orange"">","null","","","","","","","","",""
"null","","html-keyboard-response","549","1093037","0.0-549.0","","","null","","","","","","","","",""
"1204.5","","image-keyboard-response","550","1094243","0.0-550.0","","img/set2/S1.jpg","83","1","structured_load","83","structured_normal,structured_load,structured_incentive,random","2,3,3,4,2,1","true","","",""
"null","","html-keyboard-response","551","1094595","0.0-551.0","","<img src=""img/set2/S1.jpg"" width=""540"" height = ""360"" style=""border:16px solid orange"">","null","","","","","","","","",""
"null","","html-keyboard-response","552","1094797","0.0-552.0","","","null","","","","","","","","",""
"629.0999999940395","","image-keyboard-response","553","1095427","0.0-553.0","","img/set2/S1.jpg","83","1","structured_load","83","structured_normal,structured_load,structured_incentive,random","2,3,3,4,2,1","true","","",""
"null","","html-keyboard-response","554","1095779","0.0-554.0","","<img src=""img/set2/S1.jpg"" width=""540"" height = ""360"" style=""border:16px solid orange"">","null","","","","","","","","",""
"null","","html-keyboard-response","555","1095980","0.0-555.0","","","null","","","","","","","","",""
"693.7000000178814","","image-keyboard-response","556","1096675","0.0-556.0","","img/set2/S1.jpg","83","1","structured_load","83","structured_normal,structured_load,structured_incentive,random","2,3,3,4,2,1","true","","",""
"null","","html-keyboard-response","557","1097028","0.0-557.0","","<img src=""img/set2/S1.jpg"" width=""540"" height = ""360"" style=""border:16px solid orange"">","null","","","","","","","","",""
"null","","html-keyboard-response","558","1097229","0.0-558.0","","","null","","","","","","","","",""
"692.5","","image-keyboard-response","559","1097923","0.0-559.0","","img/set2/S1.jpg","83","1","structured_load","83","structured_normal,structured_load,structured_incentive,random","2,3,3,4,2,1","true","","",""
"null","","html-keyboard-response","560","1098275","0.0-560.0","","<img src=""img/set2/S1.jpg"" width=""540"" height = ""360"" style=""border:16px solid orange"">","null","","","","","","","","",""
"null","","html-keyboard-response","561","1098477","0.0-561.0","","","null","","","","","","","","",""
"981.0999999940395","","image-keyboard-response","562","1099459","0.0-562.0","","img/set2/S3.jpg","74","3","structured_load","72","structured_normal,structured_load,structured_incentive,random","2,3,3,4,2,1","false","","",""
"null","","html-keyboard-response","563","1099811","0.0-563.0","","<img src=""img/set2/S3.jpg"" width=""540"" height = ""360"">","null","","","","","","","","",""
"null","","html-keyboard-response","564","1100013","0.0-564.0","","","null","","","","","","","","",""
"837.8000000119209","","image-keyboard-response","565","1100852","0.0-565.0","","img/set2/S4.jpg","74","4","structured_load","74","structured_normal,structured_load,structured_incentive,random","2,3,3,4,2,1","true","","",""
"null","","html-keyboard-response","566","1101204","0.0-566.0","","<img src=""img/set2/S4.jpg"" width=""540"" height = ""360"" style=""border:16px solid orange"">","null","","","","","","","","",""
"null","","html-keyboard-response","567","1101405","0.0-567.0","","","null","","","","","","","","",""
"1093","","image-keyboard-response","568","1102499","0.0-568.0","","img/set2/S1.jpg","83","1","structured_load","83","structured_normal,structured_load,structured_incentive,random","2,3,3,4,2,1","true","","",""
"null","","html-keyboard-response","569","1102851","0.0-569.0","","<img src=""img/set2/S1.jpg"" width=""540"" height = ""360"" style=""border:16px solid orange"">","null","","","","","","","","",""
"null","","html-keyboard-response","570","1103052","0.0-570.0","","","null","","","","","","","","",""
"1061.0999999940395","","image-keyboard-response","571","1104115","0.0-571.0","","img/set2/S3.jpg","68","3","structured_load","72","structured_normal,structured_load,structured_incentive,random","2,3,3,4,2,1","false","","",""
"null","","html-keyboard-response","572","1104467","0.0-572.0","","<img src=""img/set2/S3.jpg"" width=""540"" height = ""360"">","null","","","","","","","","",""
"null","","html-keyboard-response","573","1104669","0.0-573.0","","","null","","","","","","","","",""
"733.1999999880791","","image-keyboard-response","574","1105403","0.0-574.0","","img/set2/S4.jpg","74","4","structured_load","74","structured_normal,structured_load,structured_incentive,random","2,3,3,4,2,1","true","","",""
"null","","html-keyboard-response","575","1105755","0.0-575.0","","<img src=""img/set2/S4.jpg"" width=""540"" height = ""360"" style=""border:16px solid orange"">","null","","","","","","","","",""
"null","","html-keyboard-response","576","1105957","0.0-576.0","","","null","","","","","","","","",""
"1116.800000011921","","image-keyboard-response","577","1107074","0.0-577.0","","img/set2/S1.jpg","83","1","structured_load","83","structured_normal,structured_load,structured_incentive,random","2,3,3,4,2,1","true","","",""
"null","","html-keyboard-response","578","1107426","0.0-578.0","","<img src=""img/set2/S1.jpg"" width=""540"" height = ""360"" style=""border:16px solid orange"">","null","","","","","","","","",""
"null","","html-keyboard-response","579","1107636","0.0-579.0","","","null","","","","","","","","",""
