"rt","url","trial_type","trial_index","time_elapsed","internal_node_id","view_history","stimulus","key_press","state","test_part","correct_response","order_block","order_chunk","order_freq","correct","responses","question_order","bonus"
"279954.6649999975","consent.html","external-html","0","280041","0.0-0.0","","","","","","","","","","","","",""
"106125.40499999886","","instructions","1","386168","0.0-1.0","[{""page_index"":0,""viewing_time"":7915.600000000326},{""page_index"":1,""viewing_time"":14713.964999998978},{""page_index"":2,""viewing_time"":10348.365000001679},{""page_index"":3,""viewing_time"":27512.23999999999},{""page_index"":4,""viewing_time"":13438.630000000587},{""page_index"":5,""viewing_time"":14739.174999998766},{""page_index"":6,""viewing_time"":17457.22499999829}]","","","","","","","","","","","",""
"21579.695000000298","","instructions","2","407748","0.0-2.0","[{""page_index"":0,""viewing_time"":21579.539999998757}]","","","","","","","","","","","",""
"7695.690000000526","","instructions","3","415444","0.0-3.0","[{""page_index"":0,""viewing_time"":7695.575000001583}]","","","","","","","","","","","",""
"982.9749999989872","","image-keyboard-response","4","416428","0.0-4.0","","img/set1/S2.jpg","83","2","structured_normal","68","structured_normal,structured_load,structured_incentive,random","3,4,2,1,2,3","4,3,2,1","false","","",""
"null","","html-keyboard-response","5","416779","0.0-5.0","","<img src=""img/set1/S2.jpg"" width=""540"" height = ""360"">","null","","","","","","","","","",""
"null","","html-keyboard-response","6","416980","0.0-6.0","","","null","","","","","","","","","",""
"1049.3150000002352","","image-keyboard-response","7","418030","0.0-7.0","","img/set1/S1.jpg","74","1","structured_normal","83","structured_normal,structured_load,structured_incentive,random","3,4,2,1,2,3","4,3,2,1","false","","",""
"null","","html-keyboard-response","8","418382","0.0-8.0","","<img src=""img/set1/S1.jpg"" width=""540"" height = ""360"">","null","","","","","","","","","",""
"null","","html-keyboard-response","9","418582","0.0-9.0","","","null","","","","","","","","","",""
"792.1299999980256","","image-keyboard-response","10","419375","0.0-10.0","","img/set1/S2.jpg","83","2","structured_normal","68","structured_normal,structured_load,structured_incentive,random","3,4,2,1,2,3","4,3,2,1","false","","",""
"null","","html-keyboard-response","11","419725","0.0-11.0","","<img src=""img/set1/S2.jpg"" width=""540"" height = ""360"">","null","","","","","","","","","",""
"null","","html-keyboard-response","12","419926","0.0-12.0","","","null","","","","","","","","","",""
"null","","image-keyboard-response","13","422426","0.0-13.0","","img/set1/S3.jpg","null","3","structured_normal","72","structured_normal,structured_load,structured_incentive,random","3,4,2,1,2,3","4,3,2,1","false","","",""
"null","","html-keyboard-response","14","422777","0.0-14.0","","<img src=""img/set1/S3.jpg"" width=""540"" height = ""360"">","null","","","","","","","","","",""
"null","","html-keyboard-response","15","422978","0.0-15.0","","","null","","","","","","","","","",""
"954.5900000011316","","image-keyboard-response","16","423933","0.0-16.0","","img/set1/S4.jpg","68","4","structured_normal","74","structured_normal,structured_load,structured_incentive,random","3,4,2,1,2,3","4,3,2,1","false","","",""
"null","","html-keyboard-response","17","424284","0.0-17.0","","<img src=""img/set1/S4.jpg"" width=""540"" height = ""360"">","null","","","","","","","","","",""
"null","","html-keyboard-response","18","424484","0.0-18.0","","","null","","","","","","","","","",""
"956.3100000013947","","image-keyboard-response","19","425441","0.0-19.0","","img/set1/S1.jpg","68","1","structured_normal","83","structured_normal,structured_load,structured_incentive,random","3,4,2,1,2,3","4,3,2,1","false","","",""
"null","","html-keyboard-response","20","425792","0.0-20.0","","<img src=""img/set1/S1.jpg"" width=""540"" height = ""360"">","null","","","","","","","","","",""
"null","","html-keyboard-response","21","425992","0.0-21.0","","","null","","","","","","","","","",""
"732.1849999971455","","image-keyboard-response","22","426725","0.0-22.0","","img/set1/S2.jpg","68","2","structured_normal","68","structured_normal,structured_load,structured_incentive,random","3,4,2,1,2,3","4,3,2,1","true","","",""
"null","","html-keyboard-response","23","427076","0.0-23.0","","<img src=""img/set1/S2.jpg"" width=""540"" height = ""360"" style=""border:16px solid orange"">","null","","","","","","","","","",""
"null","","html-keyboard-response","24","427276","0.0-24.0","","","null","","","","","","","","","",""
"770.5550000028452","","image-keyboard-response","25","428047","0.0-25.0","","img/set1/S2.jpg","68","2","structured_normal","68","structured_normal,structured_load,structured_incentive,random","3,4,2,1,2,3","4,3,2,1","true","","",""
"null","","html-keyboard-response","26","428398","0.0-26.0","","<img src=""img/set1/S2.jpg"" width=""540"" height = ""360"" style=""border:16px solid orange"">","null","","","","","","","","","",""
"null","","html-keyboard-response","27","428598","0.0-27.0","","","null","","","","","","","","","",""
"693.3300000018207","","image-keyboard-response","28","429292","0.0-28.0","","img/set1/S3.jpg","83","3","structured_normal","72","structured_normal,structured_load,structured_incentive,random","3,4,2,1,2,3","4,3,2,1","false","","",""
"null","","html-keyboard-response","29","429642","0.0-29.0","","<img src=""img/set1/S3.jpg"" width=""540"" height = ""360"">","null","","","","","","","","","",""
"null","","html-keyboard-response","30","429843","0.0-30.0","","","null","","","","","","","","","",""
"1194.6549999993294","","image-keyboard-response","31","431038","0.0-31.0","","img/set1/S4.jpg","83","4","structured_normal","74","structured_normal,structured_load,structured_incentive,random","3,4,2,1,2,3","4,3,2,1","false","","",""
"null","","html-keyboard-response","32","431389","0.0-32.0","","<img src=""img/set1/S4.jpg"" width=""540"" height = ""360"">","null","","","","","","","","","",""
"null","","html-keyboard-response","33","431589","0.0-33.0","","","null","","","","","","","","","",""
"1123.519999997341","","image-keyboard-response","34","432713","0.0-34.0","","img/set1/S3.jpg","83","3","structured_normal","72","structured_normal,structured_load,structured_incentive,random","3,4,2,1,2,3","4,3,2,1","false","","",""
"null","","html-keyboard-response","35","433064","0.0-35.0","","<img src=""img/set1/S3.jpg"" width=""540"" height = ""360"">","null","","","","","","","","","",""
"null","","html-keyboard-response","36","433264","0.0-36.0","","","null","","","","","","","","","",""
"1184.5700000012876","","image-keyboard-response","37","434449","0.0-37.0","","img/set1/S4.jpg","74","4","structured_normal","74","structured_normal,structured_load,structured_incentive,random","3,4,2,1,2,3","4,3,2,1","true","","",""
"null","","html-keyboard-response","38","434800","0.0-38.0","","<img src=""img/set1/S4.jpg"" width=""540"" height = ""360"" style=""border:16px solid orange"">","null","","","","","","","","","",""
"null","","html-keyboard-response","39","435000","0.0-39.0","","","null","","","","","","","","","",""
"610.5449999995762","","image-keyboard-response","40","435611","0.0-40.0","","img/set1/S2.jpg","68","2","structured_normal","68","structured_normal,structured_load,structured_incentive,random","3,4,2,1,2,3","4,3,2,1","true","","",""
"null","","html-keyboard-response","41","435962","0.0-41.0","","<img src=""img/set1/S2.jpg"" width=""540"" height = ""360"" style=""border:16px solid orange"">","null","","","","","","","","","",""
"null","","html-keyboard-response","42","436162","0.0-42.0","","","null","","","","","","","","","",""
"2115.5650000000605","","image-keyboard-response","43","438278","0.0-43.0","","img/set1/S3.jpg","74","3","structured_normal","72","structured_normal,structured_load,structured_incentive,random","3,4,2,1,2,3","4,3,2,1","false","","",""
"null","","html-keyboard-response","44","438629","0.0-44.0","","<img src=""img/set1/S3.jpg"" width=""540"" height = ""360"">","null","","","","","","","","","",""
"null","","html-keyboard-response","45","438829","0.0-45.0","","","null","","","","","","","","","",""
"1218.7199999971199","","image-keyboard-response","46","440048","0.0-46.0","","img/set1/S4.jpg","74","4","structured_normal","74","structured_normal,structured_load,structured_incentive,random","3,4,2,1,2,3","4,3,2,1","true","","",""
"null","","html-keyboard-response","47","440399","0.0-47.0","","<img src=""img/set1/S4.jpg"" width=""540"" height = ""360"" style=""border:16px solid orange"">","null","","","","","","","","","",""
"null","","html-keyboard-response","48","440599","0.0-48.0","","","null","","","","","","","","","",""
"1300.3900000003632","","image-keyboard-response","49","441900","0.0-49.0","","img/set1/S3.jpg","83","3","structured_normal","72","structured_normal,structured_load,structured_incentive,random","3,4,2,1,2,3","4,3,2,1","false","","",""
"null","","html-keyboard-response","50","442251","0.0-50.0","","<img src=""img/set1/S3.jpg"" width=""540"" height = ""360"">","null","","","","","","","","","",""
"null","","html-keyboard-response","51","442451","0.0-51.0","","","null","","","","","","","","","",""
"1974.4449999998324","","image-keyboard-response","52","444426","0.0-52.0","","img/set1/S4.jpg","72","4","structured_normal","74","structured_normal,structured_load,structured_incentive,random","3,4,2,1,2,3","4,3,2,1","false","","",""
"null","","html-keyboard-response","53","444777","0.0-53.0","","<img src=""img/set1/S4.jpg"" width=""540"" height = ""360"">","null","","","","","","","","","",""
"null","","html-keyboard-response","54","444977","0.0-54.0","","","null","","","","","","","","","",""
"1141.6050000006799","","image-keyboard-response","55","446119","0.0-55.0","","img/set1/S2.jpg","68","2","structured_normal","68","structured_normal,structured_load,structured_incentive,random","3,4,2,1,2,3","4,3,2,1","true","","",""
"null","","html-keyboard-response","56","446470","0.0-56.0","","<img src=""img/set1/S2.jpg"" width=""540"" height = ""360"" style=""border:16px solid orange"">","null","","","","","","","","","",""
"null","","html-keyboard-response","57","446670","0.0-57.0","","","null","","","","","","","","","",""
"973.4900000003399","","image-keyboard-response","58","447644","0.0-58.0","","img/set1/S1.jpg","72","1","structured_normal","83","structured_normal,structured_load,structured_incentive,random","3,4,2,1,2,3","4,3,2,1","false","","",""
"null","","html-keyboard-response","59","447995","0.0-59.0","","<img src=""img/set1/S1.jpg"" width=""540"" height = ""360"">","null","","","","","","","","","",""
"null","","html-keyboard-response","60","448195","0.0-60.0","","","null","","","","","","","","","",""
"1206.5499999989406","","image-keyboard-response","61","449402","0.0-61.0","","img/set1/S3.jpg","72","3","structured_normal","72","structured_normal,structured_load,structured_incentive,random","3,4,2,1,2,3","4,3,2,1","true","","",""
"null","","html-keyboard-response","62","449753","0.0-62.0","","<img src=""img/set1/S3.jpg"" width=""540"" height = ""360"" style=""border:16px solid orange"">","null","","","","","","","","","",""
"null","","html-keyboard-response","63","449953","0.0-63.0","","","null","","","","","","","","","",""
"1791.6599999989849","","image-keyboard-response","64","451745","0.0-64.0","","img/set1/S4.jpg","83","4","structured_normal","74","structured_normal,structured_load,structured_incentive,random","3,4,2,1,2,3","4,3,2,1","false","","",""
"null","","html-keyboard-response","65","452096","0.0-65.0","","<img src=""img/set1/S4.jpg"" width=""540"" height = ""360"">","null","","","","","","","","","",""
"null","","html-keyboard-response","66","452296","0.0-66.0","","","null","","","","","","","","","",""
"1199.5399999978254","","image-keyboard-response","67","453496","0.0-67.0","","img/set1/S1.jpg","74","1","structured_normal","83","structured_normal,structured_load,structured_incentive,random","3,4,2,1,2,3","4,3,2,1","false","","",""
"null","","html-keyboard-response","68","453847","0.0-68.0","","<img src=""img/set1/S1.jpg"" width=""540"" height = ""360"">","null","","","","","","","","","",""
"null","","html-keyboard-response","69","454047","0.0-69.0","","","null","","","","","","","","","",""
"584.804999998596","","image-keyboard-response","70","454633","0.0-70.0","","img/set1/S3.jpg","83","3","structured_normal","72","structured_normal,structured_load,structured_incentive,random","3,4,2,1,2,3","4,3,2,1","false","","",""
"null","","html-keyboard-response","71","454984","0.0-71.0","","<img src=""img/set1/S3.jpg"" width=""540"" height = ""360"">","null","","","","","","","","","",""
"null","","html-keyboard-response","72","455184","0.0-72.0","","","null","","","","","","","","","",""
"734.7000000008848","","image-keyboard-response","73","455919","0.0-73.0","","img/set1/S4.jpg","72","4","structured_normal","74","structured_normal,structured_load,structured_incentive,random","3,4,2,1,2,3","4,3,2,1","false","","",""
"null","","html-keyboard-response","74","456270","0.0-74.0","","<img src=""img/set1/S4.jpg"" width=""540"" height = ""360"">","null","","","","","","","","","",""
"null","","html-keyboard-response","75","456470","0.0-75.0","","","null","","","","","","","","","",""
"1076.6100000001024","","image-keyboard-response","76","457547","0.0-76.0","","img/set1/S1.jpg","68","1","structured_normal","83","structured_normal,structured_load,structured_incentive,random","3,4,2,1,2,3","4,3,2,1","false","","",""
"null","","html-keyboard-response","77","457898","0.0-77.0","","<img src=""img/set1/S1.jpg"" width=""540"" height = ""360"">","null","","","","","","","","","",""
"null","","html-keyboard-response","78","458098","0.0-78.0","","","null","","","","","","","","","",""
"506.58000000112224","","image-keyboard-response","79","458605","0.0-79.0","","img/set1/S2.jpg","68","2","structured_normal","68","structured_normal,structured_load,structured_incentive,random","3,4,2,1,2,3","4,3,2,1","true","","",""
"null","","html-keyboard-response","80","458956","0.0-80.0","","<img src=""img/set1/S2.jpg"" width=""540"" height = ""360"" style=""border:16px solid orange"">","null","","","","","","","","","",""
"null","","html-keyboard-response","81","459156","0.0-81.0","","","null","","","","","","","","","",""
"904.8000000002212","","image-keyboard-response","82","460061","0.0-82.0","","img/set1/S3.jpg","74","3","structured_normal","72","structured_normal,structured_load,structured_incentive,random","3,4,2,1,2,3","4,3,2,1","false","","",""
"null","","html-keyboard-response","83","460412","0.0-83.0","","<img src=""img/set1/S3.jpg"" width=""540"" height = ""360"">","null","","","","","","","","","",""
"null","","html-keyboard-response","84","460612","0.0-84.0","","","null","","","","","","","","","",""
"993.5100000002421","","image-keyboard-response","85","461606","0.0-85.0","","img/set1/S4.jpg","72","4","structured_normal","74","structured_normal,structured_load,structured_incentive,random","3,4,2,1,2,3","4,3,2,1","false","","",""
"null","","html-keyboard-response","86","461957","0.0-86.0","","<img src=""img/set1/S4.jpg"" width=""540"" height = ""360"">","null","","","","","","","","","",""
"null","","html-keyboard-response","87","462157","0.0-87.0","","","null","","","","","","","","","",""
"752.7249999984633","","image-keyboard-response","88","462910","0.0-88.0","","img/set1/S1.jpg","72","1","structured_normal","83","structured_normal,structured_load,structured_incentive,random","3,4,2,1,2,3","4,3,2,1","false","","",""
"null","","html-keyboard-response","89","463261","0.0-89.0","","<img src=""img/set1/S1.jpg"" width=""540"" height = ""360"">","null","","","","","","","","","",""
"null","","html-keyboard-response","90","463461","0.0-90.0","","","null","","","","","","","","","",""
"810.5550000000512","","image-keyboard-response","91","464272","0.0-91.0","","img/set1/S2.jpg","68","2","structured_normal","68","structured_normal,structured_load,structured_incentive,random","3,4,2,1,2,3","4,3,2,1","true","","",""
"null","","html-keyboard-response","92","464623","0.0-92.0","","<img src=""img/set1/S2.jpg"" width=""540"" height = ""360"" style=""border:16px solid orange"">","null","","","","","","","","","",""
"null","","html-keyboard-response","93","464823","0.0-93.0","","","null","","","","","","","","","",""
"754.6949999995995","","image-keyboard-response","94","465578","0.0-94.0","","img/set1/S3.jpg","83","3","structured_normal","72","structured_normal,structured_load,structured_incentive,random","3,4,2,1,2,3","4,3,2,1","false","","",""
"null","","html-keyboard-response","95","465929","0.0-95.0","","<img src=""img/set1/S3.jpg"" width=""540"" height = ""360"">","null","","","","","","","","","",""
"null","","html-keyboard-response","96","466129","0.0-96.0","","","null","","","","","","","","","",""
"883.624999998603","","image-keyboard-response","97","467013","0.0-97.0","","img/set1/S4.jpg","74","4","structured_normal","74","structured_normal,structured_load,structured_incentive,random","3,4,2,1,2,3","4,3,2,1","true","","",""
"null","","html-keyboard-response","98","467364","0.0-98.0","","<img src=""img/set1/S4.jpg"" width=""540"" height = ""360"" style=""border:16px solid orange"">","null","","","","","","","","","",""
"null","","html-keyboard-response","99","467564","0.0-99.0","","","null","","","","","","","","","",""
"1954.6100000006845","","image-keyboard-response","100","469520","0.0-100.0","","img/set1/S3.jpg","72","3","structured_normal","72","structured_normal,structured_load,structured_incentive,random","3,4,2,1,2,3","4,3,2,1","true","","",""
"null","","html-keyboard-response","101","469870","0.0-101.0","","<img src=""img/set1/S3.jpg"" width=""540"" height = ""360"" style=""border:16px solid orange"">","null","","","","","","","","","",""
"null","","html-keyboard-response","102","470070","0.0-102.0","","","null","","","","","","","","","",""
"799.7149999973481","","image-keyboard-response","103","470871","0.0-103.0","","img/set1/S4.jpg","74","4","structured_normal","74","structured_normal,structured_load,structured_incentive,random","3,4,2,1,2,3","4,3,2,1","true","","",""
"null","","html-keyboard-response","104","471221","0.0-104.0","","<img src=""img/set1/S4.jpg"" width=""540"" height = ""360"" style=""border:16px solid orange"">","null","","","","","","","","","",""
"null","","html-keyboard-response","105","471422","0.0-105.0","","","null","","","","","","","","","",""
"585.4700000018347","","image-keyboard-response","106","472007","0.0-106.0","","img/set1/S2.jpg","68","2","structured_normal","68","structured_normal,structured_load,structured_incentive,random","3,4,2,1,2,3","4,3,2,1","true","","",""
"null","","html-keyboard-response","107","472358","0.0-107.0","","<img src=""img/set1/S2.jpg"" width=""540"" height = ""360"" style=""border:16px solid orange"">","null","","","","","","","","","",""
"null","","html-keyboard-response","108","472558","0.0-108.0","","","null","","","","","","","","","",""
"610.6350000009406","","image-keyboard-response","109","473169","0.0-109.0","","img/set1/S2.jpg","68","2","structured_normal","68","structured_normal,structured_load,structured_incentive,random","3,4,2,1,2,3","4,3,2,1","true","","",""
"null","","html-keyboard-response","110","473520","0.0-110.0","","<img src=""img/set1/S2.jpg"" width=""540"" height = ""360"" style=""border:16px solid orange"">","null","","","","","","","","","",""
"null","","html-keyboard-response","111","473720","0.0-111.0","","","null","","","","","","","","","",""
"681.7950000003912","","image-keyboard-response","112","474402","0.0-112.0","","img/set1/S2.jpg","68","2","structured_normal","68","structured_normal,structured_load,structured_incentive,random","3,4,2,1,2,3","4,3,2,1","true","","",""
"null","","html-keyboard-response","113","474753","0.0-113.0","","<img src=""img/set1/S2.jpg"" width=""540"" height = ""360"" style=""border:16px solid orange"">","null","","","","","","","","","",""
"null","","html-keyboard-response","114","474953","0.0-114.0","","","null","","","","","","","","","",""
"995.6899999997695","","image-keyboard-response","115","475950","0.0-115.0","","img/set1/S1.jpg","83","1","structured_normal","83","structured_normal,structured_load,structured_incentive,random","3,4,2,1,2,3","4,3,2,1","true","","",""
"null","","html-keyboard-response","116","476300","0.0-116.0","","<img src=""img/set1/S1.jpg"" width=""540"" height = ""360"" style=""border:16px solid orange"">","null","","","","","","","","","",""
"null","","html-keyboard-response","117","476501","0.0-117.0","","","null","","","","","","","","","",""
"884.4849999986473","","image-keyboard-response","118","477386","0.0-118.0","","img/set1/S3.jpg","74","3","structured_normal","72","structured_normal,structured_load,structured_incentive,random","3,4,2,1,2,3","4,3,2,1","false","","",""
"null","","html-keyboard-response","119","477736","0.0-119.0","","<img src=""img/set1/S3.jpg"" width=""540"" height = ""360"">","null","","","","","","","","","",""
"null","","html-keyboard-response","120","477937","0.0-120.0","","","null","","","","","","","","","",""
"1160.390000000887","","image-keyboard-response","121","479098","0.0-121.0","","img/set1/S4.jpg","74","4","structured_normal","74","structured_normal,structured_load,structured_incentive,random","3,4,2,1,2,3","4,3,2,1","true","","",""
"null","","html-keyboard-response","122","479448","0.0-122.0","","<img src=""img/set1/S4.jpg"" width=""540"" height = ""360"" style=""border:16px solid orange"">","null","","","","","","","","","",""
"null","","html-keyboard-response","123","479649","0.0-123.0","","","null","","","","","","","","","",""
"708.5849999967031","","image-keyboard-response","124","480358","0.0-124.0","","img/set1/S3.jpg","72","3","structured_normal","72","structured_normal,structured_load,structured_incentive,random","3,4,2,1,2,3","4,3,2,1","true","","",""
"null","","html-keyboard-response","125","480708","0.0-125.0","","<img src=""img/set1/S3.jpg"" width=""540"" height = ""360"" style=""border:16px solid orange"">","null","","","","","","","","","",""
"null","","html-keyboard-response","126","480909","0.0-126.0","","","null","","","","","","","","","",""
"817.460000002","","image-keyboard-response","127","481727","0.0-127.0","","img/set1/S4.jpg","74","4","structured_normal","74","structured_normal,structured_load,structured_incentive,random","3,4,2,1,2,3","4,3,2,1","true","","",""
"null","","html-keyboard-response","128","482077","0.0-128.0","","<img src=""img/set1/S4.jpg"" width=""540"" height = ""360"" style=""border:16px solid orange"">","null","","","","","","","","","",""
"null","","html-keyboard-response","129","482278","0.0-129.0","","","null","","","","","","","","","",""
"838.354999999865","","image-keyboard-response","130","483117","0.0-130.0","","img/set1/S2.jpg","68","2","structured_normal","68","structured_normal,structured_load,structured_incentive,random","3,4,2,1,2,3","4,3,2,1","true","","",""
"null","","html-keyboard-response","131","483467","0.0-131.0","","<img src=""img/set1/S2.jpg"" width=""540"" height = ""360"" style=""border:16px solid orange"">","null","","","","","","","","","",""
"null","","html-keyboard-response","132","483668","0.0-132.0","","","null","","","","","","","","","",""
"779.5299999997951","","image-keyboard-response","133","484448","0.0-133.0","","img/set1/S1.jpg","83","1","structured_normal","83","structured_normal,structured_load,structured_incentive,random","3,4,2,1,2,3","4,3,2,1","true","","",""
"null","","html-keyboard-response","134","484799","0.0-134.0","","<img src=""img/set1/S1.jpg"" width=""540"" height = ""360"" style=""border:16px solid orange"">","null","","","","","","","","","",""
"null","","html-keyboard-response","135","484999","0.0-135.0","","","null","","","","","","","","","",""
"665.914999997709","","image-keyboard-response","136","485666","0.0-136.0","","img/set1/S1.jpg","83","1","structured_normal","83","structured_normal,structured_load,structured_incentive,random","3,4,2,1,2,3","4,3,2,1","true","","",""
"null","","html-keyboard-response","137","486017","0.0-137.0","","<img src=""img/set1/S1.jpg"" width=""540"" height = ""360"" style=""border:16px solid orange"">","null","","","","","","","","","",""
"null","","html-keyboard-response","138","486217","0.0-138.0","","","null","","","","","","","","","",""
"852.35499999905","","image-keyboard-response","139","487070","0.0-139.0","","img/set1/S3.jpg","72","3","structured_normal","72","structured_normal,structured_load,structured_incentive,random","3,4,2,1,2,3","4,3,2,1","true","","",""
"null","","html-keyboard-response","140","487421","0.0-140.0","","<img src=""img/set1/S3.jpg"" width=""540"" height = ""360"" style=""border:16px solid orange"">","null","","","","","","","","","",""
"null","","html-keyboard-response","141","487621","0.0-141.0","","","null","","","","","","","","","",""
"651.3400000003166","","image-keyboard-response","142","488273","0.0-142.0","","img/set1/S4.jpg","74","4","structured_normal","74","structured_normal,structured_load,structured_incentive,random","3,4,2,1,2,3","4,3,2,1","true","","",""
"null","","html-keyboard-response","143","488623","0.0-143.0","","<img src=""img/set1/S4.jpg"" width=""540"" height = ""360"" style=""border:16px solid orange"">","null","","","","","","","","","",""
"null","","html-keyboard-response","144","488824","0.0-144.0","","","null","","","","","","","","","",""
"700.4449999985518","","image-keyboard-response","145","489525","0.0-145.0","","img/set1/S2.jpg","68","2","structured_normal","68","structured_normal,structured_load,structured_incentive,random","3,4,2,1,2,3","4,3,2,1","true","","",""
"null","","html-keyboard-response","146","489876","0.0-146.0","","<img src=""img/set1/S2.jpg"" width=""540"" height = ""360"" style=""border:16px solid orange"">","null","","","","","","","","","",""
"null","","html-keyboard-response","147","490076","0.0-147.0","","","null","","","","","","","","","",""
"542.4400000010501","","image-keyboard-response","148","490619","0.0-148.0","","img/set1/S2.jpg","68","2","structured_normal","68","structured_normal,structured_load,structured_incentive,random","3,4,2,1,2,3","4,3,2,1","true","","",""
"null","","html-keyboard-response","149","490969","0.0-149.0","","<img src=""img/set1/S2.jpg"" width=""540"" height = ""360"" style=""border:16px solid orange"">","null","","","","","","","","","",""
"null","","html-keyboard-response","150","491170","0.0-150.0","","","null","","","","","","","","","",""
"743.6449999986799","","image-keyboard-response","151","491914","0.0-151.0","","img/set1/S3.jpg","72","3","structured_normal","72","structured_normal,structured_load,structured_incentive,random","3,4,2,1,2,3","4,3,2,1","true","","",""
"null","","html-keyboard-response","152","492265","0.0-152.0","","<img src=""img/set1/S3.jpg"" width=""540"" height = ""360"" style=""border:16px solid orange"">","null","","","","","","","","","",""
"null","","html-keyboard-response","153","492465","0.0-153.0","","","null","","","","","","","","","",""
"515.3700000009849","","image-keyboard-response","154","492981","0.0-154.0","","img/set1/S4.jpg","74","4","structured_normal","74","structured_normal,structured_load,structured_incentive,random","3,4,2,1,2,3","4,3,2,1","true","","",""
"null","","html-keyboard-response","155","493331","0.0-155.0","","<img src=""img/set1/S4.jpg"" width=""540"" height = ""360"" style=""border:16px solid orange"">","null","","","","","","","","","",""
"null","","html-keyboard-response","156","493532","0.0-156.0","","","null","","","","","","","","","",""
"742.6599999999162","","image-keyboard-response","157","494275","0.0-157.0","","img/set1/S1.jpg","83","1","structured_normal","83","structured_normal,structured_load,structured_incentive,random","3,4,2,1,2,3","4,3,2,1","true","","",""
"null","","html-keyboard-response","158","494626","0.0-158.0","","<img src=""img/set1/S1.jpg"" width=""540"" height = ""360"" style=""border:16px solid orange"">","null","","","","","","","","","",""
"null","","html-keyboard-response","159","494826","0.0-159.0","","","null","","","","","","","","","",""
"867.2650000007707","","image-keyboard-response","160","495694","0.0-160.0","","img/set1/S3.jpg","72","3","structured_normal","72","structured_normal,structured_load,structured_incentive,random","3,4,2,1,2,3","4,3,2,1","true","","",""
"null","","html-keyboard-response","161","496045","0.0-161.0","","<img src=""img/set1/S3.jpg"" width=""540"" height = ""360"" style=""border:16px solid orange"">","null","","","","","","","","","",""
"null","","html-keyboard-response","162","496245","0.0-162.0","","","null","","","","","","","","","",""
"585.3500000012573","","image-keyboard-response","163","496831","0.0-163.0","","img/set1/S4.jpg","74","4","structured_normal","74","structured_normal,structured_load,structured_incentive,random","3,4,2,1,2,3","4,3,2,1","true","","",""
"null","","html-keyboard-response","164","497182","0.0-164.0","","<img src=""img/set1/S4.jpg"" width=""540"" height = ""360"" style=""border:16px solid orange"">","null","","","","","","","","","",""
"null","","html-keyboard-response","165","497382","0.0-165.0","","","null","","","","","","","","","",""
"530.5399999997462","","image-keyboard-response","166","497913","0.0-166.0","","img/set1/S3.jpg","72","3","structured_normal","72","structured_normal,structured_load,structured_incentive,random","3,4,2,1,2,3","4,3,2,1","true","","",""
"null","","html-keyboard-response","167","498264","0.0-167.0","","<img src=""img/set1/S3.jpg"" width=""540"" height = ""360"" style=""border:16px solid orange"">","null","","","","","","","","","",""
"null","","html-keyboard-response","168","498464","0.0-168.0","","","null","","","","","","","","","",""
"504.37500000040745","","image-keyboard-response","169","498969","0.0-169.0","","img/set1/S4.jpg","74","4","structured_normal","74","structured_normal,structured_load,structured_incentive,random","3,4,2,1,2,3","4,3,2,1","true","","",""
"null","","html-keyboard-response","170","499320","0.0-170.0","","<img src=""img/set1/S4.jpg"" width=""540"" height = ""360"" style=""border:16px solid orange"">","null","","","","","","","","","",""
"null","","html-keyboard-response","171","499520","0.0-171.0","","","null","","","","","","","","","",""
"415.3999999980442","","image-keyboard-response","172","499936","0.0-172.0","","img/set1/S2.jpg","68","2","structured_normal","68","structured_normal,structured_load,structured_incentive,random","3,4,2,1,2,3","4,3,2,1","true","","",""
"null","","html-keyboard-response","173","500287","0.0-173.0","","<img src=""img/set1/S2.jpg"" width=""540"" height = ""360"" style=""border:16px solid orange"">","null","","","","","","","","","",""
"null","","html-keyboard-response","174","500487","0.0-174.0","","","null","","","","","","","","","",""
"388.48000000137836","","image-keyboard-response","175","500876","0.0-175.0","","img/set1/S2.jpg","68","2","structured_normal","68","structured_normal,structured_load,structured_incentive,random","3,4,2,1,2,3","4,3,2,1","true","","",""
"null","","html-keyboard-response","176","501227","0.0-176.0","","<img src=""img/set1/S2.jpg"" width=""540"" height = ""360"" style=""border:16px solid orange"">","null","","","","","","","","","",""
"null","","html-keyboard-response","177","501427","0.0-177.0","","","null","","","","","","","","","",""
"530.4900000009802","","image-keyboard-response","178","501958","0.0-178.0","","img/set1/S2.jpg","68","2","structured_normal","68","structured_normal,structured_load,structured_incentive,random","3,4,2,1,2,3","4,3,2,1","true","","",""
"null","","html-keyboard-response","179","502309","0.0-179.0","","<img src=""img/set1/S2.jpg"" width=""540"" height = ""360"" style=""border:16px solid orange"">","null","","","","","","","","","",""
"null","","html-keyboard-response","180","502509","0.0-180.0","","","null","","","","","","","","","",""
"488.40500000002794","","image-keyboard-response","181","502998","0.0-181.0","","img/set1/S1.jpg","83","1","structured_normal","83","structured_normal,structured_load,structured_incentive,random","3,4,2,1,2,3","4,3,2,1","true","","",""
"null","","html-keyboard-response","182","503349","0.0-182.0","","<img src=""img/set1/S1.jpg"" width=""540"" height = ""360"" style=""border:16px solid orange"">","null","","","","","","","","","",""
"null","","html-keyboard-response","183","503549","0.0-183.0","","","null","","","","","","","","","",""
"592.5050000005285","","image-keyboard-response","184","504142","0.0-184.0","","img/set1/S3.jpg","72","3","structured_normal","72","structured_normal,structured_load,structured_incentive,random","3,4,2,1,2,3","4,3,2,1","true","","",""
"null","","html-keyboard-response","185","504493","0.0-185.0","","<img src=""img/set1/S3.jpg"" width=""540"" height = ""360"" style=""border:16px solid orange"">","null","","","","","","","","","",""
"null","","html-keyboard-response","186","504693","0.0-186.0","","","null","","","","","","","","","",""
"404.4900000008056","","image-keyboard-response","187","505098","0.0-187.0","","img/set1/S4.jpg","74","4","structured_normal","74","structured_normal,structured_load,structured_incentive,random","3,4,2,1,2,3","4,3,2,1","true","","",""
"null","","html-keyboard-response","188","505449","0.0-188.0","","<img src=""img/set1/S4.jpg"" width=""540"" height = ""360"" style=""border:16px solid orange"">","null","","","","","","","","","",""
"null","","html-keyboard-response","189","505649","0.0-189.0","","","null","","","","","","","","","",""
"487.47000000003027","","image-keyboard-response","190","506137","0.0-190.0","","img/set1/S2.jpg","68","2","structured_normal","68","structured_normal,structured_load,structured_incentive,random","3,4,2,1,2,3","4,3,2,1","true","","",""
"null","","html-keyboard-response","191","506488","0.0-191.0","","<img src=""img/set1/S2.jpg"" width=""540"" height = ""360"" style=""border:16px solid orange"">","null","","","","","","","","","",""
"null","","html-keyboard-response","192","506688","0.0-192.0","","","null","","","","","","","","","",""
"709.4400000023888","","image-keyboard-response","193","507398","0.0-193.0","","img/set1/S1.jpg","83","1","structured_normal","83","structured_normal,structured_load,structured_incentive,random","3,4,2,1,2,3","4,3,2,1","true","","",""
"null","","html-keyboard-response","194","507749","0.0-194.0","","<img src=""img/set1/S1.jpg"" width=""540"" height = ""360"" style=""border:16px solid orange"">","null","","","","","","","","","",""
"null","","html-keyboard-response","195","507949","0.0-195.0","","","null","","","","","","","","","",""
"580.4800000005052","","image-keyboard-response","196","508530","0.0-196.0","","img/set1/S2.jpg","68","2","structured_normal","68","structured_normal,structured_load,structured_incentive,random","3,4,2,1,2,3","4,3,2,1","true","","",""
"null","","html-keyboard-response","197","508881","0.0-197.0","","<img src=""img/set1/S2.jpg"" width=""540"" height = ""360"" style=""border:16px solid orange"">","null","","","","","","","","","",""
"null","","html-keyboard-response","198","509081","0.0-198.0","","","null","","","","","","","","","",""
"487.4249999993481","","image-keyboard-response","199","509569","0.0-199.0","","img/set1/S2.jpg","68","2","structured_normal","68","structured_normal,structured_load,structured_incentive,random","3,4,2,1,2,3","4,3,2,1","true","","",""
"null","","html-keyboard-response","200","509920","0.0-200.0","","<img src=""img/set1/S2.jpg"" width=""540"" height = ""360"" style=""border:16px solid orange"">","null","","","","","","","","","",""
"null","","html-keyboard-response","201","510120","0.0-201.0","","","null","","","","","","","","","",""
"456.384999997681","","image-keyboard-response","202","510577","0.0-202.0","","img/set1/S1.jpg","83","1","structured_normal","83","structured_normal,structured_load,structured_incentive,random","3,4,2,1,2,3","4,3,2,1","true","","",""
"null","","html-keyboard-response","203","510928","0.0-203.0","","<img src=""img/set1/S1.jpg"" width=""540"" height = ""360"" style=""border:16px solid orange"">","null","","","","","","","","","",""
"null","","html-keyboard-response","204","511128","0.0-204.0","","","null","","","","","","","","","",""
"463.3700000013341","","image-keyboard-response","205","511592","0.0-205.0","","img/set1/S1.jpg","83","1","structured_normal","83","structured_normal,structured_load,structured_incentive,random","3,4,2,1,2,3","4,3,2,1","true","","",""
"null","","html-keyboard-response","206","511943","0.0-206.0","","<img src=""img/set1/S1.jpg"" width=""540"" height = ""360"" style=""border:16px solid orange"">","null","","","","","","","","","",""
"null","","html-keyboard-response","207","512143","0.0-207.0","","","null","","","","","","","","","",""
"478.5349999983446","","image-keyboard-response","208","512622","0.0-208.0","","img/set1/S2.jpg","68","2","structured_normal","68","structured_normal,structured_load,structured_incentive,random","3,4,2,1,2,3","4,3,2,1","true","","",""
"null","","html-keyboard-response","209","512973","0.0-209.0","","<img src=""img/set1/S2.jpg"" width=""540"" height = ""360"" style=""border:16px solid orange"">","null","","","","","","","","","",""
"null","","html-keyboard-response","210","513173","0.0-210.0","","","null","","","","","","","","","",""
"574.5150000002468","","image-keyboard-response","211","513748","0.0-211.0","","img/set1/S1.jpg","83","1","structured_normal","83","structured_normal,structured_load,structured_incentive,random","3,4,2,1,2,3","4,3,2,1","true","","",""
"null","","html-keyboard-response","212","514099","0.0-212.0","","<img src=""img/set1/S1.jpg"" width=""540"" height = ""360"" style=""border:16px solid orange"">","null","","","","","","","","","",""
"null","","html-keyboard-response","213","514299","0.0-213.0","","","null","","","","","","","","","",""
"505.4749999981141","","image-keyboard-response","214","514805","0.0-214.0","","img/set1/S1.jpg","83","1","structured_normal","83","structured_normal,structured_load,structured_incentive,random","3,4,2,1,2,3","4,3,2,1","true","","",""
"null","","html-keyboard-response","215","515156","0.0-215.0","","<img src=""img/set1/S1.jpg"" width=""540"" height = ""360"" style=""border:16px solid orange"">","null","","","","","","","","","",""
"null","","html-keyboard-response","216","515356","0.0-216.0","","","null","","","","","","","","","",""
"630.4749999981141","","image-keyboard-response","217","515988","0.0-217.0","","img/set1/S3.jpg","72","3","structured_normal","72","structured_normal,structured_load,structured_incentive,random","3,4,2,1,2,3","4,3,2,1","true","","",""
"null","","html-keyboard-response","218","516339","0.0-218.0","","<img src=""img/set1/S3.jpg"" width=""540"" height = ""360"" style=""border:16px solid orange"">","null","","","","","","","","","",""
"null","","html-keyboard-response","219","516540","0.0-219.0","","","null","","","","","","","","","",""
"387.87500000034925","","image-keyboard-response","220","516928","0.0-220.0","","img/set1/S4.jpg","74","4","structured_normal","74","structured_normal,structured_load,structured_incentive,random","3,4,2,1,2,3","4,3,2,1","true","","",""
"null","","html-keyboard-response","221","517279","0.0-221.0","","<img src=""img/set1/S4.jpg"" width=""540"" height = ""360"" style=""border:16px solid orange"">","null","","","","","","","","","",""
"null","","html-keyboard-response","222","517479","0.0-222.0","","","null","","","","","","","","","",""
"398.3649999972549","","image-keyboard-response","223","517878","0.0-223.0","","img/set1/S3.jpg","72","3","structured_normal","72","structured_normal,structured_load,structured_incentive,random","3,4,2,1,2,3","4,3,2,1","true","","",""
"null","","html-keyboard-response","224","518229","0.0-224.0","","<img src=""img/set1/S3.jpg"" width=""540"" height = ""360"" style=""border:16px solid orange"">","null","","","","","","","","","",""
"null","","html-keyboard-response","225","518429","0.0-225.0","","","null","","","","","","","","","",""
"407.33499999990454","","image-keyboard-response","226","518837","0.0-226.0","","img/set1/S4.jpg","74","4","structured_normal","74","structured_normal,structured_load,structured_incentive,random","3,4,2,1,2,3","4,3,2,1","true","","",""
"null","","html-keyboard-response","227","519188","0.0-227.0","","<img src=""img/set1/S4.jpg"" width=""540"" height = ""360"" style=""border:16px solid orange"">","null","","","","","","","","","",""
"null","","html-keyboard-response","228","519388","0.0-228.0","","","null","","","","","","","","","",""
"646.5250000001397","","image-keyboard-response","229","520035","0.0-229.0","","img/set1/S1.jpg","83","1","structured_normal","83","structured_normal,structured_load,structured_incentive,random","3,4,2,1,2,3","4,3,2,1","true","","",""
"null","","html-keyboard-response","230","520386","0.0-230.0","","<img src=""img/set1/S1.jpg"" width=""540"" height = ""360"" style=""border:16px solid orange"">","null","","","","","","","","","",""
"null","","html-keyboard-response","231","520586","0.0-231.0","","","null","","","","","","","","","",""
"497.41999999969266","","image-keyboard-response","232","521084","0.0-232.0","","img/set1/S2.jpg","68","2","structured_normal","68","structured_normal,structured_load,structured_incentive,random","3,4,2,1,2,3","4,3,2,1","true","","",""
"null","","html-keyboard-response","233","521435","0.0-233.0","","<img src=""img/set1/S2.jpg"" width=""540"" height = ""360"" style=""border:16px solid orange"">","null","","","","","","","","","",""
"null","","html-keyboard-response","234","521635","0.0-234.0","","","null","","","","","","","","","",""
"482.49999999825377","","image-keyboard-response","235","522118","0.0-235.0","","img/set1/S1.jpg","83","1","structured_normal","83","structured_normal,structured_load,structured_incentive,random","3,4,2,1,2,3","4,3,2,1","true","","",""
"null","","html-keyboard-response","236","522469","0.0-236.0","","<img src=""img/set1/S1.jpg"" width=""540"" height = ""360"" style=""border:16px solid orange"">","null","","","","","","","","","",""
"null","","html-keyboard-response","237","522669","0.0-237.0","","","null","","","","","","","","","",""
"342.54000000143424","","image-keyboard-response","238","523012","0.0-238.0","","img/set1/S1.jpg","68","1","structured_normal","83","structured_normal,structured_load,structured_incentive,random","3,4,2,1,2,3","4,3,2,1","false","","",""
"null","","html-keyboard-response","239","523363","0.0-239.0","","<img src=""img/set1/S1.jpg"" width=""540"" height = ""360"">","null","","","","","","","","","",""
"null","","html-keyboard-response","240","523563","0.0-240.0","","","null","","","","","","","","","",""
"543.2650000002468","","image-keyboard-response","241","524107","0.0-241.0","","img/set1/S1.jpg","83","1","structured_normal","83","structured_normal,structured_load,structured_incentive,random","3,4,2,1,2,3","4,3,2,1","true","","",""
"null","","html-keyboard-response","242","524458","0.0-242.0","","<img src=""img/set1/S1.jpg"" width=""540"" height = ""360"" style=""border:16px solid orange"">","null","","","","","","","","","",""
"null","","html-keyboard-response","243","524658","0.0-243.0","","","null","","","","","","","","","",""
"702.5199999989709","","image-keyboard-response","244","525361","0.0-244.0","","img/set1/S3.jpg","72","3","structured_normal","72","structured_normal,structured_load,structured_incentive,random","3,4,2,1,2,3","4,3,2,1","true","","",""
"null","","html-keyboard-response","245","525712","0.0-245.0","","<img src=""img/set1/S3.jpg"" width=""540"" height = ""360"" style=""border:16px solid orange"">","null","","","","","","","","","",""
"null","","html-keyboard-response","246","525912","0.0-246.0","","","null","","","","","","","","","",""
"365.574999999837","","image-keyboard-response","247","526278","0.0-247.0","","img/set1/S4.jpg","74","4","structured_normal","74","structured_normal,structured_load,structured_incentive,random","3,4,2,1,2,3","4,3,2,1","true","","",""
"null","","html-keyboard-response","248","526629","0.0-248.0","","<img src=""img/set1/S4.jpg"" width=""540"" height = ""360"" style=""border:16px solid orange"">","null","","","","","","","","","",""
"null","","html-keyboard-response","249","526829","0.0-249.0","","","null","","","","","","","","","",""
"496.3199999984354","","image-keyboard-response","250","527326","0.0-250.0","","img/set1/S2.jpg","68","2","structured_normal","68","structured_normal,structured_load,structured_incentive,random","3,4,2,1,2,3","4,3,2,1","true","","",""
"null","","html-keyboard-response","251","527677","0.0-251.0","","<img src=""img/set1/S2.jpg"" width=""540"" height = ""360"" style=""border:16px solid orange"">","null","","","","","","","","","",""
"null","","html-keyboard-response","252","527877","0.0-252.0","","","null","","","","","","","","","",""
"481.53499999898486","","image-keyboard-response","253","528359","0.0-253.0","","img/set1/S2.jpg","68","2","structured_normal","68","structured_normal,structured_load,structured_incentive,random","3,4,2,1,2,3","4,3,2,1","true","","",""
"null","","html-keyboard-response","254","528710","0.0-254.0","","<img src=""img/set1/S2.jpg"" width=""540"" height = ""360"" style=""border:16px solid orange"">","null","","","","","","","","","",""
"null","","html-keyboard-response","255","528910","0.0-255.0","","","null","","","","","","","","","",""
"395.48999999905936","","image-keyboard-response","256","529306","0.0-256.0","","img/set1/S1.jpg","83","1","structured_normal","83","structured_normal,structured_load,structured_incentive,random","3,4,2,1,2,3","4,3,2,1","true","","",""
"null","","html-keyboard-response","257","529657","0.0-257.0","","<img src=""img/set1/S1.jpg"" width=""540"" height = ""360"" style=""border:16px solid orange"">","null","","","","","","","","","",""
"null","","html-keyboard-response","258","529857","0.0-258.0","","","null","","","","","","","","","",""
"387.585000000312","","image-keyboard-response","259","530245","0.0-259.0","","img/set1/S1.jpg","83","1","structured_normal","83","structured_normal,structured_load,structured_incentive,random","3,4,2,1,2,3","4,3,2,1","true","","",""
"null","","html-keyboard-response","260","530596","0.0-260.0","","<img src=""img/set1/S1.jpg"" width=""540"" height = ""360"" style=""border:16px solid orange"">","null","","","","","","","","","",""
"null","","html-keyboard-response","261","530796","0.0-261.0","","","null","","","","","","","","","",""
"438.49000000045635","","image-keyboard-response","262","531235","0.0-262.0","","img/set1/S1.jpg","83","1","structured_normal","83","structured_normal,structured_load,structured_incentive,random","3,4,2,1,2,3","4,3,2,1","true","","",""
"null","","html-keyboard-response","263","531586","0.0-263.0","","<img src=""img/set1/S1.jpg"" width=""540"" height = ""360"" style=""border:16px solid orange"">","null","","","","","","","","","",""
"null","","html-keyboard-response","264","531786","0.0-264.0","","","null","","","","","","","","","",""
"464.5249999994412","","image-keyboard-response","265","532251","0.0-265.0","","img/set1/S3.jpg","72","3","structured_normal","72","structured_normal,structured_load,structured_incentive,random","3,4,2,1,2,3","4,3,2,1","true","","",""
"null","","html-keyboard-response","266","532602","0.0-266.0","","<img src=""img/set1/S3.jpg"" width=""540"" height = ""360"" style=""border:16px solid orange"">","null","","","","","","","","","",""
"null","","html-keyboard-response","267","532802","0.0-267.0","","","null","","","","","","","","","",""
"344.6199999998789","","image-keyboard-response","268","533147","0.0-268.0","","img/set1/S4.jpg","74","4","structured_normal","74","structured_normal,structured_load,structured_incentive,random","3,4,2,1,2,3","4,3,2,1","true","","",""
"null","","html-keyboard-response","269","533498","0.0-269.0","","<img src=""img/set1/S4.jpg"" width=""540"" height = ""360"" style=""border:16px solid orange"">","null","","","","","","","","","",""
"null","","html-keyboard-response","270","533698","0.0-270.0","","","null","","","","","","","","","",""
"390.3649999992922","","image-keyboard-response","271","534089","0.0-271.0","","img/set1/S2.jpg","68","2","structured_normal","68","structured_normal,structured_load,structured_incentive,random","3,4,2,1,2,3","4,3,2,1","true","","",""
"null","","html-keyboard-response","272","534440","0.0-272.0","","<img src=""img/set1/S2.jpg"" width=""540"" height = ""360"" style=""border:16px solid orange"">","null","","","","","","","","","",""
"null","","html-keyboard-response","273","534640","0.0-273.0","","","null","","","","","","","","","",""
"612.475000001723","","image-keyboard-response","274","535253","0.0-274.0","","img/set1/S3.jpg","72","3","structured_normal","72","structured_normal,structured_load,structured_incentive,random","3,4,2,1,2,3","4,3,2,1","true","","",""
"null","","html-keyboard-response","275","535604","0.0-275.0","","<img src=""img/set1/S3.jpg"" width=""540"" height = ""360"" style=""border:16px solid orange"">","null","","","","","","","","","",""
"null","","html-keyboard-response","276","535804","0.0-276.0","","","null","","","","","","","","","",""
"446.54000000085216","","image-keyboard-response","277","536251","0.0-277.0","","img/set1/S4.jpg","74","4","structured_normal","74","structured_normal,structured_load,structured_incentive,random","3,4,2,1,2,3","4,3,2,1","true","","",""
"null","","html-keyboard-response","278","536602","0.0-278.0","","<img src=""img/set1/S4.jpg"" width=""540"" height = ""360"" style=""border:16px solid orange"">","null","","","","","","","","","",""
"null","","html-keyboard-response","279","536803","0.0-279.0","","","null","","","","","","","","","",""
"515.4750000002095","","image-keyboard-response","280","537319","0.0-280.0","","img/set1/S3.jpg","72","3","structured_normal","72","structured_normal,structured_load,structured_incentive,random","3,4,2,1,2,3","4,3,2,1","true","","",""
"null","","html-keyboard-response","281","537669","0.0-281.0","","<img src=""img/set1/S3.jpg"" width=""540"" height = ""360"" style=""border:16px solid orange"">","null","","","","","","","","","",""
"null","","html-keyboard-response","282","537870","0.0-282.0","","","null","","","","","","","","","",""
"365.50500000163447","","image-keyboard-response","283","538236","0.0-283.0","","img/set1/S4.jpg","74","4","structured_normal","74","structured_normal,structured_load,structured_incentive,random","3,4,2,1,2,3","4,3,2,1","true","","",""
"null","","html-keyboard-response","284","538586","0.0-284.0","","<img src=""img/set1/S4.jpg"" width=""540"" height = ""360"" style=""border:16px solid orange"">","null","","","","","","","","","",""
"null","","html-keyboard-response","285","538787","0.0-285.0","","","null","","","","","","","","","",""
"435.31499999877997","","image-keyboard-response","286","539223","0.0-286.0","","img/set1/S3.jpg","72","3","structured_normal","72","structured_normal,structured_load,structured_incentive,random","3,4,2,1,2,3","4,3,2,1","true","","",""
"null","","html-keyboard-response","287","539573","0.0-287.0","","<img src=""img/set1/S3.jpg"" width=""540"" height = ""360"" style=""border:16px solid orange"">","null","","","","","","","","","",""
"null","","html-keyboard-response","288","539774","0.0-288.0","","","null","","","","","","","","","",""
"397.43999999703374","","image-keyboard-response","289","540172","0.0-289.0","","img/set1/S4.jpg","74","4","structured_normal","74","structured_normal,structured_load,structured_incentive,random","3,4,2,1,2,3","4,3,2,1","true","","",""
"null","","html-keyboard-response","290","540522","0.0-290.0","","<img src=""img/set1/S4.jpg"" width=""540"" height = ""360"" style=""border:16px solid orange"">","null","","","","","","","","","",""
"null","","html-keyboard-response","291","540723","0.0-291.0","","","null","","","","","","","","","",""
"438.404999997234","","image-keyboard-response","292","541162","0.0-292.0","","img/set1/S3.jpg","72","3","structured_normal","72","structured_normal,structured_load,structured_incentive,random","3,4,2,1,2,3","4,3,2,1","true","","",""
"null","","html-keyboard-response","293","541512","0.0-293.0","","<img src=""img/set1/S3.jpg"" width=""540"" height = ""360"" style=""border:16px solid orange"">","null","","","","","","","","","",""
"null","","html-keyboard-response","294","541713","0.0-294.0","","","null","","","","","","","","","",""
"336.8549999977695","","image-keyboard-response","295","542051","0.0-295.0","","img/set1/S4.jpg","74","4","structured_normal","74","structured_normal,structured_load,structured_incentive,random","3,4,2,1,2,3","4,3,2,1","true","","",""
"null","","html-keyboard-response","296","542401","0.0-296.0","","<img src=""img/set1/S4.jpg"" width=""540"" height = ""360"" style=""border:16px solid orange"">","null","","","","","","","","","",""
"null","","html-keyboard-response","297","542602","0.0-297.0","","","null","","","","","","","","","",""
"449.1999999991385","","image-keyboard-response","298","543052","0.0-298.0","","img/set1/S2.jpg","68","2","structured_normal","68","structured_normal,structured_load,structured_incentive,random","3,4,2,1,2,3","4,3,2,1","true","","",""
"null","","html-keyboard-response","299","543402","0.0-299.0","","<img src=""img/set1/S2.jpg"" width=""540"" height = ""360"" style=""border:16px solid orange"">","null","","","","","","","","","",""
"null","","html-keyboard-response","300","543603","0.0-300.0","","","null","","","","","","","","","",""
"343.43000000086613","","image-keyboard-response","301","543947","0.0-301.0","","img/set1/S2.jpg","68","2","structured_normal","68","structured_normal,structured_load,structured_incentive,random","3,4,2,1,2,3","4,3,2,1","true","","",""
"null","","html-keyboard-response","302","544297","0.0-302.0","","<img src=""img/set1/S2.jpg"" width=""540"" height = ""360"" style=""border:16px solid orange"">","null","","","","","","","","","",""
"null","","html-keyboard-response","303","544498","0.0-303.0","","","null","","","","","","","","","",""
"378.59499999834225","","image-keyboard-response","304","544877","0.0-304.0","","img/set1/S1.jpg","83","1","structured_normal","83","structured_normal,structured_load,structured_incentive,random","3,4,2,1,2,3","4,3,2,1","true","","",""
"null","","html-keyboard-response","305","545227","0.0-305.0","","<img src=""img/set1/S1.jpg"" width=""540"" height = ""360"" style=""border:16px solid orange"">","null","","","","","","","","","",""
"null","","html-keyboard-response","306","545428","0.0-306.0","","","null","","","","","","","","","",""
"526.6000000010245","","image-keyboard-response","307","545955","0.0-307.0","","img/set1/S2.jpg","68","2","structured_normal","68","structured_normal,structured_load,structured_incentive,random","3,4,2,1,2,3","4,3,2,1","true","","",""
"null","","html-keyboard-response","308","546305","0.0-308.0","","<img src=""img/set1/S2.jpg"" width=""540"" height = ""360"" style=""border:16px solid orange"">","null","","","","","","","","","",""
"null","","html-keyboard-response","309","546506","0.0-309.0","","","null","","","","","","","","","",""
"617.5849999999627","","image-keyboard-response","310","547124","0.0-310.0","","img/set1/S1.jpg","83","1","structured_normal","83","structured_normal,structured_load,structured_incentive,random","3,4,2,1,2,3","4,3,2,1","true","","",""
"null","","html-keyboard-response","311","547474","0.0-311.0","","<img src=""img/set1/S1.jpg"" width=""540"" height = ""360"" style=""border:16px solid orange"">","null","","","","","","","","","",""
"null","","html-keyboard-response","312","547675","0.0-312.0","","","null","","","","","","","","","",""
"376.5950000016019","","image-keyboard-response","313","548052","0.0-313.0","","img/set1/S3.jpg","72","3","structured_normal","72","structured_normal,structured_load,structured_incentive,random","3,4,2,1,2,3","4,3,2,1","true","","",""
"null","","html-keyboard-response","314","548402","0.0-314.0","","<img src=""img/set1/S3.jpg"" width=""540"" height = ""360"" style=""border:16px solid orange"">","null","","","","","","","","","",""
"null","","html-keyboard-response","315","548603","0.0-315.0","","","null","","","","","","","","","",""
"374.4200000001583","","image-keyboard-response","316","548978","0.0-316.0","","img/set1/S4.jpg","74","4","structured_normal","74","structured_normal,structured_load,structured_incentive,random","3,4,2,1,2,3","4,3,2,1","true","","",""
"null","","html-keyboard-response","317","549328","0.0-317.0","","<img src=""img/set1/S4.jpg"" width=""540"" height = ""360"" style=""border:16px solid orange"">","null","","","","","","","","","",""
"null","","html-keyboard-response","318","549529","0.0-318.0","","","null","","","","","","","","","",""
"478.6149999999907","","image-keyboard-response","319","550008","0.0-319.0","","img/set1/S1.jpg","83","1","structured_normal","83","structured_normal,structured_load,structured_incentive,random","3,4,2,1,2,3","4,3,2,1","true","","",""
"null","","html-keyboard-response","320","550358","0.0-320.0","","<img src=""img/set1/S1.jpg"" width=""540"" height = ""360"" style=""border:16px solid orange"">","null","","","","","","","","","",""
"null","","html-keyboard-response","321","550559","0.0-321.0","","","null","","","","","","","","","",""
"482.4000000008382","","image-keyboard-response","322","551042","0.0-322.0","","img/set1/S3.jpg","72","3","structured_normal","72","structured_normal,structured_load,structured_incentive,random","3,4,2,1,2,3","4,3,2,1","true","","",""
"null","","html-keyboard-response","323","551392","0.0-323.0","","<img src=""img/set1/S3.jpg"" width=""540"" height = ""360"" style=""border:16px solid orange"">","null","","","","","","","","","",""
"null","","html-keyboard-response","324","551593","0.0-324.0","","","null","","","","","","","","","",""
"386.55000000284053","","image-keyboard-response","325","551980","0.0-325.0","","img/set1/S4.jpg","74","4","structured_normal","74","structured_normal,structured_load,structured_incentive,random","3,4,2,1,2,3","4,3,2,1","true","","",""
"null","","html-keyboard-response","326","552330","0.0-326.0","","<img src=""img/set1/S4.jpg"" width=""540"" height = ""360"" style=""border:16px solid orange"">","null","","","","","","","","","",""
"null","","html-keyboard-response","327","552531","0.0-327.0","","","null","","","","","","","","","",""
"771.5549999993527","","image-keyboard-response","328","553303","0.0-328.0","","img/set1/S1.jpg","83","1","structured_normal","83","structured_normal,structured_load,structured_incentive,random","3,4,2,1,2,3","4,3,2,1","true","","",""
"null","","html-keyboard-response","329","553653","0.0-329.0","","<img src=""img/set1/S1.jpg"" width=""540"" height = ""360"" style=""border:16px solid orange"">","null","","","","","","","","","",""
"null","","html-keyboard-response","330","553854","0.0-330.0","","","null","","","","","","","","","",""
"497.5099999974482","","image-keyboard-response","331","554352","0.0-331.0","","img/set1/S1.jpg","83","1","structured_normal","83","structured_normal,structured_load,structured_incentive,random","3,4,2,1,2,3","4,3,2,1","true","","",""
"null","","html-keyboard-response","332","554702","0.0-332.0","","<img src=""img/set1/S1.jpg"" width=""540"" height = ""360"" style=""border:16px solid orange"">","null","","","","","","","","","",""
"null","","html-keyboard-response","333","554903","0.0-333.0","","","null","","","","","","","","","",""
"470.5450000001583","","image-keyboard-response","334","555374","0.0-334.0","","img/set1/S1.jpg","83","1","structured_normal","83","structured_normal,structured_load,structured_incentive,random","3,4,2,1,2,3","4,3,2,1","true","","",""
"null","","html-keyboard-response","335","555725","0.0-335.0","","<img src=""img/set1/S1.jpg"" width=""540"" height = ""360"" style=""border:16px solid orange"">","null","","","","","","","","","",""
"null","","html-keyboard-response","336","555925","0.0-336.0","","","null","","","","","","","","","",""
"543.4900000001071","","image-keyboard-response","337","556469","0.0-337.0","","img/set1/S3.jpg","72","3","structured_normal","72","structured_normal,structured_load,structured_incentive,random","3,4,2,1,2,3","4,3,2,1","true","","",""
"null","","html-keyboard-response","338","556819","0.0-338.0","","<img src=""img/set1/S3.jpg"" width=""540"" height = ""360"" style=""border:16px solid orange"">","null","","","","","","","","","",""
"null","","html-keyboard-response","339","557020","0.0-339.0","","","null","","","","","","","","","",""
"398.44499999890104","","image-keyboard-response","340","557419","0.0-340.0","","img/set1/S4.jpg","74","4","structured_normal","74","structured_normal,structured_load,structured_incentive,random","3,4,2,1,2,3","4,3,2,1","true","","",""
"null","","html-keyboard-response","341","557769","0.0-341.0","","<img src=""img/set1/S4.jpg"" width=""540"" height = ""360"" style=""border:16px solid orange"">","null","","","","","","","","","",""
"null","","html-keyboard-response","342","557970","0.0-342.0","","","null","","","","","","","","","",""
"559.5699999976205","","image-keyboard-response","343","558530","0.0-343.0","","img/set1/S1.jpg","83","1","structured_normal","83","structured_normal,structured_load,structured_incentive,random","3,4,2,1,2,3","4,3,2,1","true","","",""
"null","","html-keyboard-response","344","558881","0.0-344.0","","<img src=""img/set1/S1.jpg"" width=""540"" height = ""360"" style=""border:16px solid orange"">","null","","","","","","","","","",""
"null","","html-keyboard-response","345","559081","0.0-345.0","","","null","","","","","","","","","",""
"531.43999999878","","image-keyboard-response","346","559613","0.0-346.0","","img/set1/S3.jpg","72","3","structured_normal","72","structured_normal,structured_load,structured_incentive,random","3,4,2,1,2,3","4,3,2,1","true","","",""
"null","","html-keyboard-response","347","559964","0.0-347.0","","<img src=""img/set1/S3.jpg"" width=""540"" height = ""360"" style=""border:16px solid orange"">","null","","","","","","","","","",""
"null","","html-keyboard-response","348","560164","0.0-348.0","","","null","","","","","","","","","",""
"367.45499999960884","","image-keyboard-response","349","560532","0.0-349.0","","img/set1/S4.jpg","74","4","structured_normal","74","structured_normal,structured_load,structured_incentive,random","3,4,2,1,2,3","4,3,2,1","true","","",""
"null","","html-keyboard-response","350","560883","0.0-350.0","","<img src=""img/set1/S4.jpg"" width=""540"" height = ""360"" style=""border:16px solid orange"">","null","","","","","","","","","",""
"null","","html-keyboard-response","351","561083","0.0-351.0","","","null","","","","","","","","","",""
"541.4500000006519","","image-keyboard-response","352","561625","0.0-352.0","","img/set1/S3.jpg","72","3","structured_normal","72","structured_normal,structured_load,structured_incentive,random","3,4,2,1,2,3","4,3,2,1","true","","",""
"null","","html-keyboard-response","353","561976","0.0-353.0","","<img src=""img/set1/S3.jpg"" width=""540"" height = ""360"" style=""border:16px solid orange"">","null","","","","","","","","","",""
"null","","html-keyboard-response","354","562176","0.0-354.0","","","null","","","","","","","","","",""
"451.51500000059605","","image-keyboard-response","355","562628","0.0-355.0","","img/set1/S4.jpg","74","4","structured_normal","74","structured_normal,structured_load,structured_incentive,random","3,4,2,1,2,3","4,3,2,1","true","","",""
"null","","html-keyboard-response","356","562979","0.0-356.0","","<img src=""img/set1/S4.jpg"" width=""540"" height = ""360"" style=""border:16px solid orange"">","null","","","","","","","","","",""
"null","","html-keyboard-response","357","563179","0.0-357.0","","","null","","","","","","","","","",""
"646.5749999989057","","image-keyboard-response","358","563826","0.0-358.0","","img/set1/S1.jpg","83","1","structured_normal","83","structured_normal,structured_load,structured_incentive,random","3,4,2,1,2,3","4,3,2,1","true","","",""
"null","","html-keyboard-response","359","564177","0.0-359.0","","<img src=""img/set1/S1.jpg"" width=""540"" height = ""360"" style=""border:16px solid orange"">","null","","","","","","","","","",""
"null","","html-keyboard-response","360","564377","0.0-360.0","","","null","","","","","","","","","",""
"470.6049999985844","","image-keyboard-response","361","564848","0.0-361.0","","img/set1/S2.jpg","68","2","structured_normal","68","structured_normal,structured_load,structured_incentive,random","3,4,2,1,2,3","4,3,2,1","true","","",""
"null","","html-keyboard-response","362","565199","0.0-362.0","","<img src=""img/set1/S2.jpg"" width=""540"" height = ""360"" style=""border:16px solid orange"">","null","","","","","","","","","",""
"null","","html-keyboard-response","363","565399","0.0-363.0","","","null","","","","","","","","","",""
"22966.075000000303","","html-keyboard-response","364","588366","0.0-364.0","","<p class=""center-content"">You have completed a block! </p><p class=""center-content"">Press any key on the keyboard to continue, </p><p class=""center-content"">or wait for the automatic progression to the next block after one minute.</p>","32","","","","","","","","","",""
"11283.895000000484","","instructions","365","599650","0.0-365.0","[{""page_index"":0,""viewing_time"":11283.729999999283}]","","","","","","","","","","","",""
"26346.92499999795","","instructions","366","625997","0.0-366.0","[{""page_index"":0,""viewing_time"":22514.8349999981},{""page_index"":1,""viewing_time"":3831.9699999992736}]","","","","","","","","","","","",""
"886.3899999996647","","image-keyboard-response","367","626884","0.0-367.0","","img/set2/S4.jpg","72","4","structured_load","74","structured_normal,structured_load,structured_incentive,random","3,4,2,1,2,3","4,3,2,1","false","","",""
"null","","html-keyboard-response","368","627235","0.0-368.0","","<img src=""img/set2/S4.jpg"" width=""540"" height = ""360"">","null","","","","","","","","","",""
"null","","html-keyboard-response","369","627435","0.0-369.0","","","null","","","","","","","","","",""
"493.29999999830034","","image-keyboard-response","370","627929","0.0-370.0","","img/set2/S4.jpg","74","4","structured_load","74","structured_normal,structured_load,structured_incentive,random","3,4,2,1,2,3","4,3,2,1","true","","",""
"null","","html-keyboard-response","371","628280","0.0-371.0","","<img src=""img/set2/S4.jpg"" width=""540"" height = ""360"" style=""border:16px solid orange"">","null","","","","","","","","","",""
"null","","html-keyboard-response","372","628480","0.0-372.0","","","null","","","","","","","","","",""
"416.35999999928754","","image-keyboard-response","373","628897","0.0-373.0","","img/set2/S4.jpg","74","4","structured_load","74","structured_normal,structured_load,structured_incentive,random","3,4,2,1,2,3","4,3,2,1","true","","",""
"null","","html-keyboard-response","374","629248","0.0-374.0","","<img src=""img/set2/S4.jpg"" width=""540"" height = ""360"" style=""border:16px solid orange"">","null","","","","","","","","","",""
"null","","html-keyboard-response","375","629448","0.0-375.0","","","null","","","","","","","","","",""
"432.5799999970477","","image-keyboard-response","376","629881","0.0-376.0","","img/set2/S4.jpg","74","4","structured_load","74","structured_normal,structured_load,structured_incentive,random","3,4,2,1,2,3","4,3,2,1","true","","",""
"null","","html-keyboard-response","377","630232","0.0-377.0","","<img src=""img/set2/S4.jpg"" width=""540"" height = ""360"" style=""border:16px solid orange"">","null","","","","","","","","","",""
"null","","html-keyboard-response","378","630432","0.0-378.0","","","null","","","","","","","","","",""
"436.3499999998603","","image-keyboard-response","379","630869","0.0-379.0","","img/set2/S4.jpg","74","4","structured_load","74","structured_normal,structured_load,structured_incentive,random","3,4,2,1,2,3","4,3,2,1","true","","",""
"null","","html-keyboard-response","380","631220","0.0-380.0","","<img src=""img/set2/S4.jpg"" width=""540"" height = ""360"" style=""border:16px solid orange"">","null","","","","","","","","","",""
"null","","html-keyboard-response","381","631420","0.0-381.0","","","null","","","","","","","","","",""
"402.5849999997299","","image-keyboard-response","382","631823","0.0-382.0","","img/set2/S4.jpg","74","4","structured_load","74","structured_normal,structured_load,structured_incentive,random","3,4,2,1,2,3","4,3,2,1","true","","",""
"null","","html-keyboard-response","383","632174","0.0-383.0","","<img src=""img/set2/S4.jpg"" width=""540"" height = ""360"" style=""border:16px solid orange"">","null","","","","","","","","","",""
"null","","html-keyboard-response","384","632374","0.0-384.0","","","null","","","","","","","","","",""
"510.6149999991758","","image-keyboard-response","385","632885","0.0-385.0","","img/set2/S3.jpg","72","3","structured_load","72","structured_normal,structured_load,structured_incentive,random","3,4,2,1,2,3","4,3,2,1","true","","",""
"null","","html-keyboard-response","386","633236","0.0-386.0","","<img src=""img/set2/S3.jpg"" width=""540"" height = ""360"" style=""border:16px solid orange"">","null","","","","","","","","","",""
"null","","html-keyboard-response","387","633436","0.0-387.0","","","null","","","","","","","","","",""
"650.3450000018347","","image-keyboard-response","388","634087","0.0-388.0","","img/set2/S2.jpg","83","2","structured_load","68","structured_normal,structured_load,structured_incentive,random","3,4,2,1,2,3","4,3,2,1","false","","",""
"null","","html-keyboard-response","389","634438","0.0-389.0","","<img src=""img/set2/S2.jpg"" width=""540"" height = ""360"">","null","","","","","","","","","",""
"null","","html-keyboard-response","390","634638","0.0-390.0","","","null","","","","","","","","","",""
"1357.480000002426","","image-keyboard-response","391","635996","0.0-391.0","","img/set2/S1.jpg","68","1","structured_load","83","structured_normal,structured_load,structured_incentive,random","3,4,2,1,2,3","4,3,2,1","false","","",""
"null","","html-keyboard-response","392","636347","0.0-392.0","","<img src=""img/set2/S1.jpg"" width=""540"" height = ""360"">","null","","","","","","","","","",""
"null","","html-keyboard-response","393","636547","0.0-393.0","","","null","","","","","","","","","",""
"688.285000000149","","image-keyboard-response","394","637236","0.0-394.0","","img/set2/S2.jpg","68","2","structured_load","68","structured_normal,structured_load,structured_incentive,random","3,4,2,1,2,3","4,3,2,1","true","","",""
"null","","html-keyboard-response","395","637587","0.0-395.0","","<img src=""img/set2/S2.jpg"" width=""540"" height = ""360"" style=""border:16px solid orange"">","null","","","","","","","","","",""
"null","","html-keyboard-response","396","637787","0.0-396.0","","","null","","","","","","","","","",""
"731.324999997043","","image-keyboard-response","397","638519","0.0-397.0","","img/set2/S1.jpg","83","1","structured_load","83","structured_normal,structured_load,structured_incentive,random","3,4,2,1,2,3","4,3,2,1","true","","",""
"null","","html-keyboard-response","398","638870","0.0-398.0","","<img src=""img/set2/S1.jpg"" width=""540"" height = ""360"" style=""border:16px solid orange"">","null","","","","","","","","","",""
"null","","html-keyboard-response","399","639070","0.0-399.0","","","null","","","","","","","","","",""
"646.2099999990314","","image-keyboard-response","400","639717","0.0-400.0","","img/set2/S4.jpg","72","4","structured_load","74","structured_normal,structured_load,structured_incentive,random","3,4,2,1,2,3","4,3,2,1","false","","",""
"null","","html-keyboard-response","401","640068","0.0-401.0","","<img src=""img/set2/S4.jpg"" width=""540"" height = ""360"">","null","","","","","","","","","",""
"null","","html-keyboard-response","402","640268","0.0-402.0","","","null","","","","","","","","","",""
"912.465000001248","","image-keyboard-response","403","641181","0.0-403.0","","img/set2/S3.jpg","72","3","structured_load","72","structured_normal,structured_load,structured_incentive,random","3,4,2,1,2,3","4,3,2,1","true","","",""
"null","","html-keyboard-response","404","641532","0.0-404.0","","<img src=""img/set2/S3.jpg"" width=""540"" height = ""360"" style=""border:16px solid orange"">","null","","","","","","","","","",""
"null","","html-keyboard-response","405","641732","0.0-405.0","","","null","","","","","","","","","",""
"448.375","","image-keyboard-response","406","642181","0.0-406.0","","img/set2/S3.jpg","72","3","structured_load","72","structured_normal,structured_load,structured_incentive,random","3,4,2,1,2,3","4,3,2,1","true","","",""
"null","","html-keyboard-response","407","642532","0.0-407.0","","<img src=""img/set2/S3.jpg"" width=""540"" height = ""360"" style=""border:16px solid orange"">","null","","","","","","","","","",""
"null","","html-keyboard-response","408","642732","0.0-408.0","","","null","","","","","","","","","",""
"418.5750000033295","","image-keyboard-response","409","643151","0.0-409.0","","img/set2/S4.jpg","74","4","structured_load","74","structured_normal,structured_load,structured_incentive,random","3,4,2,1,2,3","4,3,2,1","true","","",""
"null","","html-keyboard-response","410","643502","0.0-410.0","","<img src=""img/set2/S4.jpg"" width=""540"" height = ""360"" style=""border:16px solid orange"">","null","","","","","","","","","",""
"null","","html-keyboard-response","411","643702","0.0-411.0","","","null","","","","","","","","","",""
"703.3750000009313","","image-keyboard-response","412","644406","0.0-412.0","","img/set2/S2.jpg","83","2","structured_load","68","structured_normal,structured_load,structured_incentive,random","3,4,2,1,2,3","4,3,2,1","false","","",""
"null","","html-keyboard-response","413","644757","0.0-413.0","","<img src=""img/set2/S2.jpg"" width=""540"" height = ""360"">","null","","","","","","","","","",""
"null","","html-keyboard-response","414","644957","0.0-414.0","","","null","","","","","","","","","",""
"836.4199999996927","","image-keyboard-response","415","645794","0.0-415.0","","img/set2/S1.jpg","83","1","structured_load","83","structured_normal,structured_load,structured_incentive,random","3,4,2,1,2,3","4,3,2,1","true","","",""
"null","","html-keyboard-response","416","646145","0.0-416.0","","<img src=""img/set2/S1.jpg"" width=""540"" height = ""360"" style=""border:16px solid orange"">","null","","","","","","","","","",""
"null","","html-keyboard-response","417","646345","0.0-417.0","","","null","","","","","","","","","",""
"1177.3149999972666","","image-keyboard-response","418","647523","0.0-418.0","","img/set2/S3.jpg","72","3","structured_load","72","structured_normal,structured_load,structured_incentive,random","3,4,2,1,2,3","4,3,2,1","true","","",""
"null","","html-keyboard-response","419","647874","0.0-419.0","","<img src=""img/set2/S3.jpg"" width=""540"" height = ""360"" style=""border:16px solid orange"">","null","","","","","","","","","",""
"null","","html-keyboard-response","420","648074","0.0-420.0","","","null","","","","","","","","","",""
"922.3449999990407","","image-keyboard-response","421","648997","0.0-421.0","","img/set2/S2.jpg","83","2","structured_load","68","structured_normal,structured_load,structured_incentive,random","3,4,2,1,2,3","4,3,2,1","false","","",""
"null","","html-keyboard-response","422","649348","0.0-422.0","","<img src=""img/set2/S2.jpg"" width=""540"" height = ""360"">","null","","","","","","","","","",""
"null","","html-keyboard-response","423","649548","0.0-423.0","","","null","","","","","","","","","",""
"972.3250000025146","","image-keyboard-response","424","650521","0.0-424.0","","img/set2/S1.jpg","83","1","structured_load","83","structured_normal,structured_load,structured_incentive,random","3,4,2,1,2,3","4,3,2,1","true","","",""
"null","","html-keyboard-response","425","650872","0.0-425.0","","<img src=""img/set2/S1.jpg"" width=""540"" height = ""360"" style=""border:16px solid orange"">","null","","","","","","","","","",""
"null","","html-keyboard-response","426","651072","0.0-426.0","","","null","","","","","","","","","",""
"655.385000001872","","image-keyboard-response","427","651728","0.0-427.0","","img/set2/S4.jpg","72","4","structured_load","74","structured_normal,structured_load,structured_incentive,random","3,4,2,1,2,3","4,3,2,1","false","","",""
"null","","html-keyboard-response","428","652079","0.0-428.0","","<img src=""img/set2/S4.jpg"" width=""540"" height = ""360"">","null","","","","","","","","","",""
"null","","html-keyboard-response","429","652279","0.0-429.0","","","null","","","","","","","","","",""
"903.4250000003958","","image-keyboard-response","430","653183","0.0-430.0","","img/set2/S2.jpg","68","2","structured_load","68","structured_normal,structured_load,structured_incentive,random","3,4,2,1,2,3","4,3,2,1","true","","",""
"null","","html-keyboard-response","431","653534","0.0-431.0","","<img src=""img/set2/S2.jpg"" width=""540"" height = ""360"" style=""border:16px solid orange"">","null","","","","","","","","","",""
"null","","html-keyboard-response","432","653734","0.0-432.0","","","null","","","","","","","","","",""
"406.36000000080094","","image-keyboard-response","433","654141","0.0-433.0","","img/set2/S1.jpg","83","1","structured_load","83","structured_normal,structured_load,structured_incentive,random","3,4,2,1,2,3","4,3,2,1","true","","",""
"null","","html-keyboard-response","434","654492","0.0-434.0","","<img src=""img/set2/S1.jpg"" width=""540"" height = ""360"" style=""border:16px solid orange"">","null","","","","","","","","","",""
"null","","html-keyboard-response","435","654692","0.0-435.0","","","null","","","","","","","","","",""
"952.4200000014389","","image-keyboard-response","436","655645","0.0-436.0","","img/set2/S3.jpg","74","3","structured_load","72","structured_normal,structured_load,structured_incentive,random","3,4,2,1,2,3","4,3,2,1","false","","",""
"null","","html-keyboard-response","437","655996","0.0-437.0","","<img src=""img/set2/S3.jpg"" width=""540"" height = ""360"">","null","","","","","","","","","",""
"null","","html-keyboard-response","438","656196","0.0-438.0","","","null","","","","","","","","","",""
"464.37999999755993","","image-keyboard-response","439","656661","0.0-439.0","","img/set2/S4.jpg","74","4","structured_load","74","structured_normal,structured_load,structured_incentive,random","3,4,2,1,2,3","4,3,2,1","true","","",""
"null","","html-keyboard-response","440","657012","0.0-440.0","","<img src=""img/set2/S4.jpg"" width=""540"" height = ""360"" style=""border:16px solid orange"">","null","","","","","","","","","",""
"null","","html-keyboard-response","441","657212","0.0-441.0","","","null","","","","","","","","","",""
"395.39500000327826","","image-keyboard-response","442","657608","0.0-442.0","","img/set2/S4.jpg","74","4","structured_load","74","structured_normal,structured_load,structured_incentive,random","3,4,2,1,2,3","4,3,2,1","true","","",""
"null","","html-keyboard-response","443","657959","0.0-443.0","","<img src=""img/set2/S4.jpg"" width=""540"" height = ""360"" style=""border:16px solid orange"">","null","","","","","","","","","",""
"null","","html-keyboard-response","444","658160","0.0-444.0","","","null","","","","","","","","","",""
"548.3949999980396","","image-keyboard-response","445","658708","0.0-445.0","","img/set2/S3.jpg","72","3","structured_load","72","structured_normal,structured_load,structured_incentive,random","3,4,2,1,2,3","4,3,2,1","true","","",""
"null","","html-keyboard-response","446","659059","0.0-446.0","","<img src=""img/set2/S3.jpg"" width=""540"" height = ""360"" style=""border:16px solid orange"">","null","","","","","","","","","",""
"null","","html-keyboard-response","447","659259","0.0-447.0","","","null","","","","","","","","","",""
"1056.7150000025285","","image-keyboard-response","448","660317","0.0-448.0","","img/set2/S2.jpg","83","2","structured_load","68","structured_normal,structured_load,structured_incentive,random","3,4,2,1,2,3","4,3,2,1","false","","",""
"null","","html-keyboard-response","449","660667","0.0-449.0","","<img src=""img/set2/S2.jpg"" width=""540"" height = ""360"">","null","","","","","","","","","",""
"null","","html-keyboard-response","450","660868","0.0-450.0","","","null","","","","","","","","","",""
"580.2049999983283","","image-keyboard-response","451","661448","0.0-451.0","","img/set2/S1.jpg","83","1","structured_load","83","structured_normal,structured_load,structured_incentive,random","3,4,2,1,2,3","4,3,2,1","true","","",""
"null","","html-keyboard-response","452","661799","0.0-452.0","","<img src=""img/set2/S1.jpg"" width=""540"" height = ""360"" style=""border:16px solid orange"">","null","","","","","","","","","",""
"null","","html-keyboard-response","453","661999","0.0-453.0","","","null","","","","","","","","","",""
"575.4799999995157","","image-keyboard-response","454","662575","0.0-454.0","","img/set2/S2.jpg","68","2","structured_load","68","structured_normal,structured_load,structured_incentive,random","3,4,2,1,2,3","4,3,2,1","true","","",""
"null","","html-keyboard-response","455","662926","0.0-455.0","","<img src=""img/set2/S2.jpg"" width=""540"" height = ""360"" style=""border:16px solid orange"">","null","","","","","","","","","",""
"null","","html-keyboard-response","456","663127","0.0-456.0","","","null","","","","","","","","","",""
"476.56999999890104","","image-keyboard-response","457","663604","0.0-457.0","","img/set2/S1.jpg","83","1","structured_load","83","structured_normal,structured_load,structured_incentive,random","3,4,2,1,2,3","4,3,2,1","true","","",""
"null","","html-keyboard-response","458","663954","0.0-458.0","","<img src=""img/set2/S1.jpg"" width=""540"" height = ""360"" style=""border:16px solid orange"">","null","","","","","","","","","",""
"null","","html-keyboard-response","459","664155","0.0-459.0","","","null","","","","","","","","","",""
"429.2699999968754","","image-keyboard-response","460","664584","0.0-460.0","","img/set2/S2.jpg","68","2","structured_load","68","structured_normal,structured_load,structured_incentive,random","3,4,2,1,2,3","4,3,2,1","true","","",""
"null","","html-keyboard-response","461","664935","0.0-461.0","","<img src=""img/set2/S2.jpg"" width=""540"" height = ""360"" style=""border:16px solid orange"">","null","","","","","","","","","",""
"null","","html-keyboard-response","462","665136","0.0-462.0","","","null","","","","","","","","","",""
"383.4449999994831","","image-keyboard-response","463","665520","0.0-463.0","","img/set2/S1.jpg","83","1","structured_load","83","structured_normal,structured_load,structured_incentive,random","3,4,2,1,2,3","4,3,2,1","true","","",""
"null","","html-keyboard-response","464","665870","0.0-464.0","","<img src=""img/set2/S1.jpg"" width=""540"" height = ""360"" style=""border:16px solid orange"">","null","","","","","","","","","",""
"null","","html-keyboard-response","465","666071","0.0-465.0","","","null","","","","","","","","","",""
"595.484999998007","","image-keyboard-response","466","666667","0.0-466.0","","img/set2/S4.jpg","72","4","structured_load","74","structured_normal,structured_load,structured_incentive,random","3,4,2,1,2,3","4,3,2,1","false","","",""
"null","","html-keyboard-response","467","667017","0.0-467.0","","<img src=""img/set2/S4.jpg"" width=""540"" height = ""360"">","null","","","","","","","","","",""
"null","","html-keyboard-response","468","667218","0.0-468.0","","","null","","","","","","","","","",""
"389.3399999978719","","image-keyboard-response","469","667607","0.0-469.0","","img/set2/S4.jpg","74","4","structured_load","74","structured_normal,structured_load,structured_incentive,random","3,4,2,1,2,3","4,3,2,1","true","","",""
"null","","html-keyboard-response","470","667958","0.0-470.0","","<img src=""img/set2/S4.jpg"" width=""540"" height = ""360"" style=""border:16px solid orange"">","null","","","","","","","","","",""
"null","","html-keyboard-response","471","668159","0.0-471.0","","","null","","","","","","","","","",""
"973.375000001397","","image-keyboard-response","472","669133","0.0-472.0","","img/set2/S2.jpg","68","2","structured_load","68","structured_normal,structured_load,structured_incentive,random","3,4,2,1,2,3","4,3,2,1","true","","",""
"null","","html-keyboard-response","473","669484","0.0-473.0","","<img src=""img/set2/S2.jpg"" width=""540"" height = ""360"" style=""border:16px solid orange"">","null","","","","","","","","","",""
"null","","html-keyboard-response","474","669684","0.0-474.0","","","null","","","","","","","","","",""
"362.20500000123866","","image-keyboard-response","475","670047","0.0-475.0","","img/set2/S1.jpg","83","1","structured_load","83","structured_normal,structured_load,structured_incentive,random","3,4,2,1,2,3","4,3,2,1","true","","",""
"null","","html-keyboard-response","476","670397","0.0-476.0","","<img src=""img/set2/S1.jpg"" width=""540"" height = ""360"" style=""border:16px solid orange"">","null","","","","","","","","","",""
"null","","html-keyboard-response","477","670598","0.0-477.0","","","null","","","","","","","","","",""
"717.2550000032643","","image-keyboard-response","478","671316","0.0-478.0","","img/set2/S3.jpg","72","3","structured_load","72","structured_normal,structured_load,structured_incentive,random","3,4,2,1,2,3","4,3,2,1","true","","",""
"null","","html-keyboard-response","479","671666","0.0-479.0","","<img src=""img/set2/S3.jpg"" width=""540"" height = ""360"" style=""border:16px solid orange"">","null","","","","","","","","","",""
"null","","html-keyboard-response","480","671867","0.0-480.0","","","null","","","","","","","","","",""
"710.3300000017043","","image-keyboard-response","481","672578","0.0-481.0","","img/set2/S2.jpg","68","2","structured_load","68","structured_normal,structured_load,structured_incentive,random","3,4,2,1,2,3","4,3,2,1","true","","",""
"null","","html-keyboard-response","482","672928","0.0-482.0","","<img src=""img/set2/S2.jpg"" width=""540"" height = ""360"" style=""border:16px solid orange"">","null","","","","","","","","","",""
"null","","html-keyboard-response","483","673129","0.0-483.0","","","null","","","","","","","","","",""
"717.5250000001397","","image-keyboard-response","484","673847","0.0-484.0","","img/set2/S1.jpg","83","1","structured_load","83","structured_normal,structured_load,structured_incentive,random","3,4,2,1,2,3","4,3,2,1","true","","",""
"null","","html-keyboard-response","485","674197","0.0-485.0","","<img src=""img/set2/S1.jpg"" width=""540"" height = ""360"" style=""border:16px solid orange"">","null","","","","","","","","","",""
"null","","html-keyboard-response","486","674398","0.0-486.0","","","null","","","","","","","","","",""
"481.31499999726657","","image-keyboard-response","487","674880","0.0-487.0","","img/set2/S2.jpg","68","2","structured_load","68","structured_normal,structured_load,structured_incentive,random","3,4,2,1,2,3","4,3,2,1","true","","",""
"null","","html-keyboard-response","488","675230","0.0-488.0","","<img src=""img/set2/S2.jpg"" width=""540"" height = ""360"" style=""border:16px solid orange"">","null","","","","","","","","","",""
"null","","html-keyboard-response","489","675431","0.0-489.0","","","null","","","","","","","","","",""
"354.3649999991758","","image-keyboard-response","490","675786","0.0-490.0","","img/set2/S1.jpg","83","1","structured_load","83","structured_normal,structured_load,structured_incentive,random","3,4,2,1,2,3","4,3,2,1","true","","",""
"null","","html-keyboard-response","491","676136","0.0-491.0","","<img src=""img/set2/S1.jpg"" width=""540"" height = ""360"" style=""border:16px solid orange"">","null","","","","","","","","","",""
"null","","html-keyboard-response","492","676337","0.0-492.0","","","null","","","","","","","","","",""
"411.54500000260305","","image-keyboard-response","493","676749","0.0-493.0","","img/set2/S2.jpg","68","2","structured_load","68","structured_normal,structured_load,structured_incentive,random","3,4,2,1,2,3","4,3,2,1","true","","",""
"null","","html-keyboard-response","494","677099","0.0-494.0","","<img src=""img/set2/S2.jpg"" width=""540"" height = ""360"" style=""border:16px solid orange"">","null","","","","","","","","","",""
"null","","html-keyboard-response","495","677300","0.0-495.0","","","null","","","","","","","","","",""
"384.3650000017369","","image-keyboard-response","496","677685","0.0-496.0","","img/set2/S1.jpg","83","1","structured_load","83","structured_normal,structured_load,structured_incentive,random","3,4,2,1,2,3","4,3,2,1","true","","",""
"null","","html-keyboard-response","497","678035","0.0-497.0","","<img src=""img/set2/S1.jpg"" width=""540"" height = ""360"" style=""border:16px solid orange"">","null","","","","","","","","","",""
"null","","html-keyboard-response","498","678236","0.0-498.0","","","null","","","","","","","","","",""
"712.5950000009034","","image-keyboard-response","499","678949","0.0-499.0","","img/set2/S3.jpg","72","3","structured_load","72","structured_normal,structured_load,structured_incentive,random","3,4,2,1,2,3","4,3,2,1","true","","",""
"null","","html-keyboard-response","500","679300","0.0-500.0","","<img src=""img/set2/S3.jpg"" width=""540"" height = ""360"" style=""border:16px solid orange"">","null","","","","","","","","","",""
"null","","html-keyboard-response","501","679500","0.0-501.0","","","null","","","","","","","","","",""
"382.3599999996368","","image-keyboard-response","502","679883","0.0-502.0","","img/set2/S4.jpg","74","4","structured_load","74","structured_normal,structured_load,structured_incentive,random","3,4,2,1,2,3","4,3,2,1","true","","",""
"null","","html-keyboard-response","503","680234","0.0-503.0","","<img src=""img/set2/S4.jpg"" width=""540"" height = ""360"" style=""border:16px solid orange"">","null","","","","","","","","","",""
"null","","html-keyboard-response","504","680434","0.0-504.0","","","null","","","","","","","","","",""
"784.3850000026869","","image-keyboard-response","505","681219","0.0-505.0","","img/set2/S2.jpg","83","2","structured_load","68","structured_normal,structured_load,structured_incentive,random","3,4,2,1,2,3","4,3,2,1","false","","",""
"null","","html-keyboard-response","506","681569","0.0-506.0","","<img src=""img/set2/S2.jpg"" width=""540"" height = ""360"">","null","","","","","","","","","",""
"null","","html-keyboard-response","507","681770","0.0-507.0","","","null","","","","","","","","","",""
"620.370000000461","","image-keyboard-response","508","682391","0.0-508.0","","img/set2/S1.jpg","83","1","structured_load","83","structured_normal,structured_load,structured_incentive,random","3,4,2,1,2,3","4,3,2,1","true","","",""
"null","","html-keyboard-response","509","682741","0.0-509.0","","<img src=""img/set2/S1.jpg"" width=""540"" height = ""360"" style=""border:16px solid orange"">","null","","","","","","","","","",""
"null","","html-keyboard-response","510","682942","0.0-510.0","","","null","","","","","","","","","",""
"812.4650000027614","","image-keyboard-response","511","683755","0.0-511.0","","img/set2/S4.jpg","74","4","structured_load","74","structured_normal,structured_load,structured_incentive,random","3,4,2,1,2,3","4,3,2,1","true","","",""
"null","","html-keyboard-response","512","684105","0.0-512.0","","<img src=""img/set2/S4.jpg"" width=""540"" height = ""360"" style=""border:16px solid orange"">","null","","","","","","","","","",""
"null","","html-keyboard-response","513","684306","0.0-513.0","","","null","","","","","","","","","",""
"738.4649999985704","","image-keyboard-response","514","685045","0.0-514.0","","img/set2/S2.jpg","68","2","structured_load","68","structured_normal,structured_load,structured_incentive,random","3,4,2,1,2,3","4,3,2,1","true","","",""
"null","","html-keyboard-response","515","685396","0.0-515.0","","<img src=""img/set2/S2.jpg"" width=""540"" height = ""360"" style=""border:16px solid orange"">","null","","","","","","","","","",""
"null","","html-keyboard-response","516","685596","0.0-516.0","","","null","","","","","","","","","",""
"584.0499999976018","","image-keyboard-response","517","686181","0.0-517.0","","img/set2/S1.jpg","83","1","structured_load","83","structured_normal,structured_load,structured_incentive,random","3,4,2,1,2,3","4,3,2,1","true","","",""
"null","","html-keyboard-response","518","686532","0.0-518.0","","<img src=""img/set2/S1.jpg"" width=""540"" height = ""360"" style=""border:16px solid orange"">","null","","","","","","","","","",""
"null","","html-keyboard-response","519","686732","0.0-519.0","","","null","","","","","","","","","",""
"690.3649999984773","","image-keyboard-response","520","687423","0.0-520.0","","img/set2/S4.jpg","74","4","structured_load","74","structured_normal,structured_load,structured_incentive,random","3,4,2,1,2,3","4,3,2,1","true","","",""
"null","","html-keyboard-response","521","687774","0.0-521.0","","<img src=""img/set2/S4.jpg"" width=""540"" height = ""360"" style=""border:16px solid orange"">","null","","","","","","","","","",""
"null","","html-keyboard-response","522","687974","0.0-522.0","","","null","","","","","","","","","",""
"659.4750000004424","","image-keyboard-response","523","688634","0.0-523.0","","img/set2/S2.jpg","68","2","structured_load","68","structured_normal,structured_load,structured_incentive,random","3,4,2,1,2,3","4,3,2,1","true","","",""
"null","","html-keyboard-response","524","688985","0.0-524.0","","<img src=""img/set2/S2.jpg"" width=""540"" height = ""360"" style=""border:16px solid orange"">","null","","","","","","","","","",""
"null","","html-keyboard-response","525","689185","0.0-525.0","","","null","","","","","","","","","",""
"497.24000000057276","","image-keyboard-response","526","689683","0.0-526.0","","img/set2/S1.jpg","83","1","structured_load","83","structured_normal,structured_load,structured_incentive,random","3,4,2,1,2,3","4,3,2,1","true","","",""
"null","","html-keyboard-response","527","690034","0.0-527.0","","<img src=""img/set2/S1.jpg"" width=""540"" height = ""360"" style=""border:16px solid orange"">","null","","","","","","","","","",""
"null","","html-keyboard-response","528","690234","0.0-528.0","","","null","","","","","","","","","",""
"546.309999997844","","image-keyboard-response","529","690781","0.0-529.0","","img/set2/S4.jpg","74","4","structured_load","74","structured_normal,structured_load,structured_incentive,random","3,4,2,1,2,3","4,3,2,1","true","","",""
"null","","html-keyboard-response","530","691132","0.0-530.0","","<img src=""img/set2/S4.jpg"" width=""540"" height = ""360"" style=""border:16px solid orange"">","null","","","","","","","","","",""
"null","","html-keyboard-response","531","691332","0.0-531.0","","","null","","","","","","","","","",""
"486.46999999973923","","image-keyboard-response","532","691819","0.0-532.0","","img/set2/S4.jpg","74","4","structured_load","74","structured_normal,structured_load,structured_incentive,random","3,4,2,1,2,3","4,3,2,1","true","","",""
"null","","html-keyboard-response","533","692170","0.0-533.0","","<img src=""img/set2/S4.jpg"" width=""540"" height = ""360"" style=""border:16px solid orange"">","null","","","","","","","","","",""
"null","","html-keyboard-response","534","692370","0.0-534.0","","","null","","","","","","","","","",""
"432.5199999985052","","image-keyboard-response","535","692803","0.0-535.0","","img/set2/S4.jpg","74","4","structured_load","74","structured_normal,structured_load,structured_incentive,random","3,4,2,1,2,3","4,3,2,1","true","","",""
"null","","html-keyboard-response","536","693154","0.0-536.0","","<img src=""img/set2/S4.jpg"" width=""540"" height = ""360"" style=""border:16px solid orange"">","null","","","","","","","","","",""
"null","","html-keyboard-response","537","693354","0.0-537.0","","","null","","","","","","","","","",""
"400.47999999660533","","image-keyboard-response","538","693755","0.0-538.0","","img/set2/S4.jpg","74","4","structured_load","74","structured_normal,structured_load,structured_incentive,random","3,4,2,1,2,3","4,3,2,1","true","","",""
"null","","html-keyboard-response","539","694106","0.0-539.0","","<img src=""img/set2/S4.jpg"" width=""540"" height = ""360"" style=""border:16px solid orange"">","null","","","","","","","","","",""
"null","","html-keyboard-response","540","694306","0.0-540.0","","","null","","","","","","","","","",""
"479.41999999957625","","image-keyboard-response","541","694786","0.0-541.0","","img/set2/S3.jpg","72","3","structured_load","72","structured_normal,structured_load,structured_incentive,random","3,4,2,1,2,3","4,3,2,1","true","","",""
"null","","html-keyboard-response","542","695137","0.0-542.0","","<img src=""img/set2/S3.jpg"" width=""540"" height = ""360"" style=""border:16px solid orange"">","null","","","","","","","","","",""
"null","","html-keyboard-response","543","695337","0.0-543.0","","","null","","","","","","","","","",""
"471.3850000007078","","image-keyboard-response","544","695809","0.0-544.0","","img/set2/S4.jpg","74","4","structured_load","74","structured_normal,structured_load,structured_incentive,random","3,4,2,1,2,3","4,3,2,1","true","","",""
"null","","html-keyboard-response","545","696160","0.0-545.0","","<img src=""img/set2/S4.jpg"" width=""540"" height = ""360"" style=""border:16px solid orange"">","null","","","","","","","","","",""
"null","","html-keyboard-response","546","696360","0.0-546.0","","","null","","","","","","","","","",""
"678.3450000002049","","image-keyboard-response","547","697039","0.0-547.0","","img/set2/S2.jpg","68","2","structured_load","68","structured_normal,structured_load,structured_incentive,random","3,4,2,1,2,3","4,3,2,1","true","","",""
"null","","html-keyboard-response","548","697390","0.0-548.0","","<img src=""img/set2/S2.jpg"" width=""540"" height = ""360"" style=""border:16px solid orange"">","null","","","","","","","","","",""
"null","","html-keyboard-response","549","697590","0.0-549.0","","","null","","","","","","","","","",""
"334.69500000134576","","image-keyboard-response","550","697925","0.0-550.0","","img/set2/S1.jpg","83","1","structured_load","83","structured_normal,structured_load,structured_incentive,random","3,4,2,1,2,3","4,3,2,1","true","","",""
"null","","html-keyboard-response","551","698276","0.0-551.0","","<img src=""img/set2/S1.jpg"" width=""540"" height = ""360"" style=""border:16px solid orange"">","null","","","","","","","","","",""
"null","","html-keyboard-response","552","698476","0.0-552.0","","","null","","","","","","","","","",""
"540.724999998929","","image-keyboard-response","553","699017","0.0-553.0","","img/set2/S3.jpg","72","3","structured_load","72","structured_normal,structured_load,structured_incentive,random","3,4,2,1,2,3","4,3,2,1","true","","",""
"null","","html-keyboard-response","554","699368","0.0-554.0","","<img src=""img/set2/S3.jpg"" width=""540"" height = ""360"" style=""border:16px solid orange"">","null","","","","","","","","","",""
"null","","html-keyboard-response","555","699568","0.0-555.0","","","null","","","","","","","","","",""
"367.5199999997858","","image-keyboard-response","556","699936","0.0-556.0","","img/set2/S4.jpg","74","4","structured_load","74","structured_normal,structured_load,structured_incentive,random","3,4,2,1,2,3","4,3,2,1","true","","",""
