"rt","url","trial_type","trial_index","time_elapsed","internal_node_id","assignmentID","mturkID","hitID","view_history","stimulus","key_press","state","test_part","correct_response","order_block","order_chunk","order_freq","correct","responses","question_order","bonus"
"11721.70000000298","consent.html","external-html","0","11833","0.0-0.0","3FE2ERCCZYUZ5PDEHLLJUUMZY22PO1","A2QX3YJXAAHHVV","3DZKABX2ZIR9F0FDMQGPG3LEN12CVN","","","","","","","","","","","","",""
"49746.20000000298","","instructions","1","61581","0.0-1.0","3FE2ERCCZYUZ5PDEHLLJUUMZY22PO1","A2QX3YJXAAHHVV","3DZKABX2ZIR9F0FDMQGPG3LEN12CVN","[{""page_index"":0,""viewing_time"":7783},{""page_index"":1,""viewing_time"":3844},{""page_index"":2,""viewing_time"":4905.0999999940395},{""page_index"":3,""viewing_time"":6442.800000011921},{""page_index"":4,""viewing_time"":6692.699999988079},{""page_index"":5,""viewing_time"":16159.300000011921},{""page_index"":6,""viewing_time"":3918.0999999940395}]","","","","","","","","","","","",""
"12622","","instructions","2","74205","0.0-2.0","3FE2ERCCZYUZ5PDEHLLJUUMZY22PO1","A2QX3YJXAAHHVV","3DZKABX2ZIR9F0FDMQGPG3LEN12CVN","[{""page_index"":0,""viewing_time"":12621.40000000596}]","","","","","","","","","","","",""
"4703.600000008941","","instructions","3","78909","0.0-3.0","3FE2ERCCZYUZ5PDEHLLJUUMZY22PO1","A2QX3YJXAAHHVV","3DZKABX2ZIR9F0FDMQGPG3LEN12CVN","[{""page_index"":0,""viewing_time"":4703.100000008941}]","","","","","","","","","","","",""
"929.5999999940395","","image-keyboard-response","4","79841","0.0-4.0","3FE2ERCCZYUZ5PDEHLLJUUMZY22PO1","A2QX3YJXAAHHVV","3DZKABX2ZIR9F0FDMQGPG3LEN12CVN","","img/set1/S1.jpg","72","1","structured_normal","83","structured_normal,structured_load,random,structured_incentive","2,3,3,4,2,1","2,4,3,1","false","","",""
"null","","html-keyboard-response","5","80198","0.0-5.0","3FE2ERCCZYUZ5PDEHLLJUUMZY22PO1","A2QX3YJXAAHHVV","3DZKABX2ZIR9F0FDMQGPG3LEN12CVN","","<img src=""img/set1/S1.jpg"" width=""540"" height = ""360"">","null","","","","","","","","","",""
"null","","html-keyboard-response","6","80414","0.0-6.0","3FE2ERCCZYUZ5PDEHLLJUUMZY22PO1","A2QX3YJXAAHHVV","3DZKABX2ZIR9F0FDMQGPG3LEN12CVN","","","null","","","","","","","","","",""
"565.7999999970198","","image-keyboard-response","7","80981","0.0-7.0","3FE2ERCCZYUZ5PDEHLLJUUMZY22PO1","A2QX3YJXAAHHVV","3DZKABX2ZIR9F0FDMQGPG3LEN12CVN","","img/set1/S1.jpg","74","1","structured_normal","83","structured_normal,structured_load,random,structured_incentive","2,3,3,4,2,1","2,4,3,1","false","","",""
"null","","html-keyboard-response","8","81335","0.0-8.0","3FE2ERCCZYUZ5PDEHLLJUUMZY22PO1","A2QX3YJXAAHHVV","3DZKABX2ZIR9F0FDMQGPG3LEN12CVN","","<img src=""img/set1/S1.jpg"" width=""540"" height = ""360"">","null","","","","","","","","","",""
"null","","html-keyboard-response","9","81551","0.0-9.0","3FE2ERCCZYUZ5PDEHLLJUUMZY22PO1","A2QX3YJXAAHHVV","3DZKABX2ZIR9F0FDMQGPG3LEN12CVN","","","null","","","","","","","","","",""
"521.7000000029802","","image-keyboard-response","10","82074","0.0-10.0","3FE2ERCCZYUZ5PDEHLLJUUMZY22PO1","A2QX3YJXAAHHVV","3DZKABX2ZIR9F0FDMQGPG3LEN12CVN","","img/set1/S2.jpg","83","2","structured_normal","68","structured_normal,structured_load,random,structured_incentive","2,3,3,4,2,1","2,4,3,1","false","","",""
"null","","html-keyboard-response","11","82435","0.0-11.0","3FE2ERCCZYUZ5PDEHLLJUUMZY22PO1","A2QX3YJXAAHHVV","3DZKABX2ZIR9F0FDMQGPG3LEN12CVN","","<img src=""img/set1/S2.jpg"" width=""540"" height = ""360"">","null","","","","","","","","","",""
"null","","html-keyboard-response","12","82638","0.0-12.0","3FE2ERCCZYUZ5PDEHLLJUUMZY22PO1","A2QX3YJXAAHHVV","3DZKABX2ZIR9F0FDMQGPG3LEN12CVN","","","null","","","","","","","","","",""
"330.5","","image-keyboard-response","13","82970","0.0-13.0","3FE2ERCCZYUZ5PDEHLLJUUMZY22PO1","A2QX3YJXAAHHVV","3DZKABX2ZIR9F0FDMQGPG3LEN12CVN","","img/set1/S3.jpg","83","3","structured_normal","72","structured_normal,structured_load,random,structured_incentive","2,3,3,4,2,1","2,4,3,1","false","","",""
"null","","html-keyboard-response","14","83322","0.0-14.0","3FE2ERCCZYUZ5PDEHLLJUUMZY22PO1","A2QX3YJXAAHHVV","3DZKABX2ZIR9F0FDMQGPG3LEN12CVN","","<img src=""img/set1/S3.jpg"" width=""540"" height = ""360"">","null","","","","","","","","","",""
"null","","html-keyboard-response","15","83524","0.0-15.0","3FE2ERCCZYUZ5PDEHLLJUUMZY22PO1","A2QX3YJXAAHHVV","3DZKABX2ZIR9F0FDMQGPG3LEN12CVN","","","null","","","","","","","","","",""
"450.59999999403954","","image-keyboard-response","16","83975","0.0-16.0","3FE2ERCCZYUZ5PDEHLLJUUMZY22PO1","A2QX3YJXAAHHVV","3DZKABX2ZIR9F0FDMQGPG3LEN12CVN","","img/set1/S4.jpg","83","4","structured_normal","74","structured_normal,structured_load,random,structured_incentive","2,3,3,4,2,1","2,4,3,1","false","","",""
"null","","html-keyboard-response","17","84330","0.0-17.0","3FE2ERCCZYUZ5PDEHLLJUUMZY22PO1","A2QX3YJXAAHHVV","3DZKABX2ZIR9F0FDMQGPG3LEN12CVN","","<img src=""img/set1/S4.jpg"" width=""540"" height = ""360"">","null","","","","","","","","","",""
"null","","html-keyboard-response","18","84533","0.0-18.0","3FE2ERCCZYUZ5PDEHLLJUUMZY22PO1","A2QX3YJXAAHHVV","3DZKABX2ZIR9F0FDMQGPG3LEN12CVN","","","null","","","","","","","","","",""
"328.5","","image-keyboard-response","19","84863","0.0-19.0","3FE2ERCCZYUZ5PDEHLLJUUMZY22PO1","A2QX3YJXAAHHVV","3DZKABX2ZIR9F0FDMQGPG3LEN12CVN","","img/set1/S2.jpg","68","2","structured_normal","68","structured_normal,structured_load,random,structured_incentive","2,3,3,4,2,1","2,4,3,1","true","","",""
"null","","html-keyboard-response","20","85217","0.0-20.0","3FE2ERCCZYUZ5PDEHLLJUUMZY22PO1","A2QX3YJXAAHHVV","3DZKABX2ZIR9F0FDMQGPG3LEN12CVN","","<img src=""img/set1/S2.jpg"" width=""540"" height = ""360"" style=""border:16px solid orange"">","null","","","","","","","","","",""
"null","","html-keyboard-response","21","85419","0.0-21.0","3FE2ERCCZYUZ5PDEHLLJUUMZY22PO1","A2QX3YJXAAHHVV","3DZKABX2ZIR9F0FDMQGPG3LEN12CVN","","","null","","","","","","","","","",""
"868","","image-keyboard-response","22","86289","0.0-22.0","3FE2ERCCZYUZ5PDEHLLJUUMZY22PO1","A2QX3YJXAAHHVV","3DZKABX2ZIR9F0FDMQGPG3LEN12CVN","","img/set1/S3.jpg","68","3","structured_normal","72","structured_normal,structured_load,random,structured_incentive","2,3,3,4,2,1","2,4,3,1","false","","",""
"null","","html-keyboard-response","23","86644","0.0-23.0","3FE2ERCCZYUZ5PDEHLLJUUMZY22PO1","A2QX3YJXAAHHVV","3DZKABX2ZIR9F0FDMQGPG3LEN12CVN","","<img src=""img/set1/S3.jpg"" width=""540"" height = ""360"">","null","","","","","","","","","",""
"null","","html-keyboard-response","24","86860","0.0-24.0","3FE2ERCCZYUZ5PDEHLLJUUMZY22PO1","A2QX3YJXAAHHVV","3DZKABX2ZIR9F0FDMQGPG3LEN12CVN","","","null","","","","","","","","","",""
"605.0999999940395","","image-keyboard-response","25","87467","0.0-25.0","3FE2ERCCZYUZ5PDEHLLJUUMZY22PO1","A2QX3YJXAAHHVV","3DZKABX2ZIR9F0FDMQGPG3LEN12CVN","","img/set1/S2.jpg","68","2","structured_normal","68","structured_normal,structured_load,random,structured_incentive","2,3,3,4,2,1","2,4,3,1","true","","",""
"null","","html-keyboard-response","26","87824","0.0-26.0","3FE2ERCCZYUZ5PDEHLLJUUMZY22PO1","A2QX3YJXAAHHVV","3DZKABX2ZIR9F0FDMQGPG3LEN12CVN","","<img src=""img/set1/S2.jpg"" width=""540"" height = ""360"" style=""border:16px solid orange"">","null","","","","","","","","","",""
"null","","html-keyboard-response","27","88027","0.0-27.0","3FE2ERCCZYUZ5PDEHLLJUUMZY22PO1","A2QX3YJXAAHHVV","3DZKABX2ZIR9F0FDMQGPG3LEN12CVN","","","null","","","","","","","","","",""
"887.2999999970198","","image-keyboard-response","28","88915","0.0-28.0","3FE2ERCCZYUZ5PDEHLLJUUMZY22PO1","A2QX3YJXAAHHVV","3DZKABX2ZIR9F0FDMQGPG3LEN12CVN","","img/set1/S3.jpg","72","3","structured_normal","72","structured_normal,structured_load,random,structured_incentive","2,3,3,4,2,1","2,4,3,1","true","","",""
"null","","html-keyboard-response","29","89269","0.0-29.0","3FE2ERCCZYUZ5PDEHLLJUUMZY22PO1","A2QX3YJXAAHHVV","3DZKABX2ZIR9F0FDMQGPG3LEN12CVN","","<img src=""img/set1/S3.jpg"" width=""540"" height = ""360"" style=""border:16px solid orange"">","null","","","","","","","","","",""
"null","","html-keyboard-response","30","89471","0.0-30.0","3FE2ERCCZYUZ5PDEHLLJUUMZY22PO1","A2QX3YJXAAHHVV","3DZKABX2ZIR9F0FDMQGPG3LEN12CVN","","","null","","","","","","","","","",""
"731.6000000089407","","image-keyboard-response","31","90204","0.0-31.0","3FE2ERCCZYUZ5PDEHLLJUUMZY22PO1","A2QX3YJXAAHHVV","3DZKABX2ZIR9F0FDMQGPG3LEN12CVN","","img/set1/S4.jpg","74","4","structured_normal","74","structured_normal,structured_load,random,structured_incentive","2,3,3,4,2,1","2,4,3,1","true","","",""
"null","","html-keyboard-response","32","90557","0.0-32.0","3FE2ERCCZYUZ5PDEHLLJUUMZY22PO1","A2QX3YJXAAHHVV","3DZKABX2ZIR9F0FDMQGPG3LEN12CVN","","<img src=""img/set1/S4.jpg"" width=""540"" height = ""360"" style=""border:16px solid orange"">","null","","","","","","","","","",""
"null","","html-keyboard-response","33","90759","0.0-33.0","3FE2ERCCZYUZ5PDEHLLJUUMZY22PO1","A2QX3YJXAAHHVV","3DZKABX2ZIR9F0FDMQGPG3LEN12CVN","","","null","","","","","","","","","",""
"745.0999999940395","","image-keyboard-response","34","91506","0.0-34.0","3FE2ERCCZYUZ5PDEHLLJUUMZY22PO1","A2QX3YJXAAHHVV","3DZKABX2ZIR9F0FDMQGPG3LEN12CVN","","img/set1/S2.jpg","68","2","structured_normal","68","structured_normal,structured_load,random,structured_incentive","2,3,3,4,2,1","2,4,3,1","true","","",""
"null","","html-keyboard-response","35","91860","0.0-35.0","3FE2ERCCZYUZ5PDEHLLJUUMZY22PO1","A2QX3YJXAAHHVV","3DZKABX2ZIR9F0FDMQGPG3LEN12CVN","","<img src=""img/set1/S2.jpg"" width=""540"" height = ""360"" style=""border:16px solid orange"">","null","","","","","","","","","",""
"null","","html-keyboard-response","36","92062","0.0-36.0","3FE2ERCCZYUZ5PDEHLLJUUMZY22PO1","A2QX3YJXAAHHVV","3DZKABX2ZIR9F0FDMQGPG3LEN12CVN","","","null","","","","","","","","","",""
"537.1000000089407","","image-keyboard-response","37","92601","0.0-37.0","3FE2ERCCZYUZ5PDEHLLJUUMZY22PO1","A2QX3YJXAAHHVV","3DZKABX2ZIR9F0FDMQGPG3LEN12CVN","","img/set1/S3.jpg","72","3","structured_normal","72","structured_normal,structured_load,random,structured_incentive","2,3,3,4,2,1","2,4,3,1","true","","",""
"null","","html-keyboard-response","38","92961","0.0-38.0","3FE2ERCCZYUZ5PDEHLLJUUMZY22PO1","A2QX3YJXAAHHVV","3DZKABX2ZIR9F0FDMQGPG3LEN12CVN","","<img src=""img/set1/S3.jpg"" width=""540"" height = ""360"" style=""border:16px solid orange"">","null","","","","","","","","","",""
"null","","html-keyboard-response","39","93176","0.0-39.0","3FE2ERCCZYUZ5PDEHLLJUUMZY22PO1","A2QX3YJXAAHHVV","3DZKABX2ZIR9F0FDMQGPG3LEN12CVN","","","null","","","","","","","","","",""
"650","","image-keyboard-response","40","93828","0.0-40.0","3FE2ERCCZYUZ5PDEHLLJUUMZY22PO1","A2QX3YJXAAHHVV","3DZKABX2ZIR9F0FDMQGPG3LEN12CVN","","img/set1/S1.jpg","83","1","structured_normal","83","structured_normal,structured_load,random,structured_incentive","2,3,3,4,2,1","2,4,3,1","true","","",""
"null","","html-keyboard-response","41","94186","0.0-41.0","3FE2ERCCZYUZ5PDEHLLJUUMZY22PO1","A2QX3YJXAAHHVV","3DZKABX2ZIR9F0FDMQGPG3LEN12CVN","","<img src=""img/set1/S1.jpg"" width=""540"" height = ""360"" style=""border:16px solid orange"">","null","","","","","","","","","",""
"null","","html-keyboard-response","42","94389","0.0-42.0","3FE2ERCCZYUZ5PDEHLLJUUMZY22PO1","A2QX3YJXAAHHVV","3DZKABX2ZIR9F0FDMQGPG3LEN12CVN","","","null","","","","","","","","","",""
"539.4000000059605","","image-keyboard-response","43","94930","0.0-43.0","3FE2ERCCZYUZ5PDEHLLJUUMZY22PO1","A2QX3YJXAAHHVV","3DZKABX2ZIR9F0FDMQGPG3LEN12CVN","","img/set1/S4.jpg","68","4","structured_normal","74","structured_normal,structured_load,random,structured_incentive","2,3,3,4,2,1","2,4,3,1","false","","",""
"null","","html-keyboard-response","44","95289","0.0-44.0","3FE2ERCCZYUZ5PDEHLLJUUMZY22PO1","A2QX3YJXAAHHVV","3DZKABX2ZIR9F0FDMQGPG3LEN12CVN","","<img src=""img/set1/S4.jpg"" width=""540"" height = ""360"">","null","","","","","","","","","",""
"null","","html-keyboard-response","45","95492","0.0-45.0","3FE2ERCCZYUZ5PDEHLLJUUMZY22PO1","A2QX3YJXAAHHVV","3DZKABX2ZIR9F0FDMQGPG3LEN12CVN","","","null","","","","","","","","","",""
"513.8999999910593","","image-keyboard-response","46","96008","0.0-46.0","3FE2ERCCZYUZ5PDEHLLJUUMZY22PO1","A2QX3YJXAAHHVV","3DZKABX2ZIR9F0FDMQGPG3LEN12CVN","","img/set1/S1.jpg","74","1","structured_normal","83","structured_normal,structured_load,random,structured_incentive","2,3,3,4,2,1","2,4,3,1","false","","",""
"null","","html-keyboard-response","47","96363","0.0-47.0","3FE2ERCCZYUZ5PDEHLLJUUMZY22PO1","A2QX3YJXAAHHVV","3DZKABX2ZIR9F0FDMQGPG3LEN12CVN","","<img src=""img/set1/S1.jpg"" width=""540"" height = ""360"">","null","","","","","","","","","",""
"null","","html-keyboard-response","48","96580","0.0-48.0","3FE2ERCCZYUZ5PDEHLLJUUMZY22PO1","A2QX3YJXAAHHVV","3DZKABX2ZIR9F0FDMQGPG3LEN12CVN","","","null","","","","","","","","","",""
"532","","image-keyboard-response","49","97113","0.0-49.0","3FE2ERCCZYUZ5PDEHLLJUUMZY22PO1","A2QX3YJXAAHHVV","3DZKABX2ZIR9F0FDMQGPG3LEN12CVN","","img/set1/S4.jpg","68","4","structured_normal","74","structured_normal,structured_load,random,structured_incentive","2,3,3,4,2,1","2,4,3,1","false","","",""
"null","","html-keyboard-response","50","97470","0.0-50.0","3FE2ERCCZYUZ5PDEHLLJUUMZY22PO1","A2QX3YJXAAHHVV","3DZKABX2ZIR9F0FDMQGPG3LEN12CVN","","<img src=""img/set1/S4.jpg"" width=""540"" height = ""360"">","null","","","","","","","","","",""
"null","","html-keyboard-response","51","97674","0.0-51.0","3FE2ERCCZYUZ5PDEHLLJUUMZY22PO1","A2QX3YJXAAHHVV","3DZKABX2ZIR9F0FDMQGPG3LEN12CVN","","","null","","","","","","","","","",""
"375.20000000298023","","image-keyboard-response","52","98050","0.0-52.0","3FE2ERCCZYUZ5PDEHLLJUUMZY22PO1","A2QX3YJXAAHHVV","3DZKABX2ZIR9F0FDMQGPG3LEN12CVN","","img/set1/S4.jpg","83","4","structured_normal","74","structured_normal,structured_load,random,structured_incentive","2,3,3,4,2,1","2,4,3,1","false","","",""
"null","","html-keyboard-response","53","98407","0.0-53.0","3FE2ERCCZYUZ5PDEHLLJUUMZY22PO1","A2QX3YJXAAHHVV","3DZKABX2ZIR9F0FDMQGPG3LEN12CVN","","<img src=""img/set1/S4.jpg"" width=""540"" height = ""360"">","null","","","","","","","","","",""
"null","","html-keyboard-response","54","98611","0.0-54.0","3FE2ERCCZYUZ5PDEHLLJUUMZY22PO1","A2QX3YJXAAHHVV","3DZKABX2ZIR9F0FDMQGPG3LEN12CVN","","","null","","","","","","","","","",""
"313.90000000596046","","image-keyboard-response","55","98926","0.0-55.0","3FE2ERCCZYUZ5PDEHLLJUUMZY22PO1","A2QX3YJXAAHHVV","3DZKABX2ZIR9F0FDMQGPG3LEN12CVN","","img/set1/S1.jpg","68","1","structured_normal","83","structured_normal,structured_load,random,structured_incentive","2,3,3,4,2,1","2,4,3,1","false","","",""
"null","","html-keyboard-response","56","99294","0.0-56.0","3FE2ERCCZYUZ5PDEHLLJUUMZY22PO1","A2QX3YJXAAHHVV","3DZKABX2ZIR9F0FDMQGPG3LEN12CVN","","<img src=""img/set1/S1.jpg"" width=""540"" height = ""360"">","null","","","","","","","","","",""
"null","","html-keyboard-response","57","99496","0.0-57.0","3FE2ERCCZYUZ5PDEHLLJUUMZY22PO1","A2QX3YJXAAHHVV","3DZKABX2ZIR9F0FDMQGPG3LEN12CVN","","","null","","","","","","","","","",""
"540","","image-keyboard-response","58","100037","0.0-58.0","3FE2ERCCZYUZ5PDEHLLJUUMZY22PO1","A2QX3YJXAAHHVV","3DZKABX2ZIR9F0FDMQGPG3LEN12CVN","","img/set1/S4.jpg","83","4","structured_normal","74","structured_normal,structured_load,random,structured_incentive","2,3,3,4,2,1","2,4,3,1","false","","",""
"null","","html-keyboard-response","59","100392","0.0-59.0","3FE2ERCCZYUZ5PDEHLLJUUMZY22PO1","A2QX3YJXAAHHVV","3DZKABX2ZIR9F0FDMQGPG3LEN12CVN","","<img src=""img/set1/S4.jpg"" width=""540"" height = ""360"">","null","","","","","","","","","",""
"null","","html-keyboard-response","60","100597","0.0-60.0","3FE2ERCCZYUZ5PDEHLLJUUMZY22PO1","A2QX3YJXAAHHVV","3DZKABX2ZIR9F0FDMQGPG3LEN12CVN","","","null","","","","","","","","","",""
"442.5","","image-keyboard-response","61","101041","0.0-61.0","3FE2ERCCZYUZ5PDEHLLJUUMZY22PO1","A2QX3YJXAAHHVV","3DZKABX2ZIR9F0FDMQGPG3LEN12CVN","","img/set1/S4.jpg","72","4","structured_normal","74","structured_normal,structured_load,random,structured_incentive","2,3,3,4,2,1","2,4,3,1","false","","",""
"null","","html-keyboard-response","62","101394","0.0-62.0","3FE2ERCCZYUZ5PDEHLLJUUMZY22PO1","A2QX3YJXAAHHVV","3DZKABX2ZIR9F0FDMQGPG3LEN12CVN","","<img src=""img/set1/S4.jpg"" width=""540"" height = ""360"">","null","","","","","","","","","",""
"null","","html-keyboard-response","63","101596","0.0-63.0","3FE2ERCCZYUZ5PDEHLLJUUMZY22PO1","A2QX3YJXAAHHVV","3DZKABX2ZIR9F0FDMQGPG3LEN12CVN","","","null","","","","","","","","","",""
"603.9000000059605","","image-keyboard-response","64","102202","0.0-64.0","3FE2ERCCZYUZ5PDEHLLJUUMZY22PO1","A2QX3YJXAAHHVV","3DZKABX2ZIR9F0FDMQGPG3LEN12CVN","","img/set1/S1.jpg","74","1","structured_normal","83","structured_normal,structured_load,random,structured_incentive","2,3,3,4,2,1","2,4,3,1","false","","",""
"null","","html-keyboard-response","65","102556","0.0-65.0","3FE2ERCCZYUZ5PDEHLLJUUMZY22PO1","A2QX3YJXAAHHVV","3DZKABX2ZIR9F0FDMQGPG3LEN12CVN","","<img src=""img/set1/S1.jpg"" width=""540"" height = ""360"">","null","","","","","","","","","",""
"null","","html-keyboard-response","66","102758","0.0-66.0","3FE2ERCCZYUZ5PDEHLLJUUMZY22PO1","A2QX3YJXAAHHVV","3DZKABX2ZIR9F0FDMQGPG3LEN12CVN","","","null","","","","","","","","","",""
"780","","image-keyboard-response","67","103539","0.0-67.0","3FE2ERCCZYUZ5PDEHLLJUUMZY22PO1","A2QX3YJXAAHHVV","3DZKABX2ZIR9F0FDMQGPG3LEN12CVN","","img/set1/S1.jpg","68","1","structured_normal","83","structured_normal,structured_load,random,structured_incentive","2,3,3,4,2,1","2,4,3,1","false","","",""
"null","","html-keyboard-response","68","103894","0.0-68.0","3FE2ERCCZYUZ5PDEHLLJUUMZY22PO1","A2QX3YJXAAHHVV","3DZKABX2ZIR9F0FDMQGPG3LEN12CVN","","<img src=""img/set1/S1.jpg"" width=""540"" height = ""360"">","null","","","","","","","","","",""
"null","","html-keyboard-response","69","104097","0.0-69.0","3FE2ERCCZYUZ5PDEHLLJUUMZY22PO1","A2QX3YJXAAHHVV","3DZKABX2ZIR9F0FDMQGPG3LEN12CVN","","","null","","","","","","","","","",""
"566.7000000029802","","image-keyboard-response","70","104666","0.0-70.0","3FE2ERCCZYUZ5PDEHLLJUUMZY22PO1","A2QX3YJXAAHHVV","3DZKABX2ZIR9F0FDMQGPG3LEN12CVN","","img/set1/S2.jpg","83","2","structured_normal","68","structured_normal,structured_load,random,structured_incentive","2,3,3,4,2,1","2,4,3,1","false","","",""
"null","","html-keyboard-response","71","105028","0.0-71.0","3FE2ERCCZYUZ5PDEHLLJUUMZY22PO1","A2QX3YJXAAHHVV","3DZKABX2ZIR9F0FDMQGPG3LEN12CVN","","<img src=""img/set1/S2.jpg"" width=""540"" height = ""360"">","null","","","","","","","","","",""
"null","","html-keyboard-response","72","105230","0.0-72.0","3FE2ERCCZYUZ5PDEHLLJUUMZY22PO1","A2QX3YJXAAHHVV","3DZKABX2ZIR9F0FDMQGPG3LEN12CVN","","","null","","","","","","","","","",""
"616.2000000029802","","image-keyboard-response","73","105847","0.0-73.0","3FE2ERCCZYUZ5PDEHLLJUUMZY22PO1","A2QX3YJXAAHHVV","3DZKABX2ZIR9F0FDMQGPG3LEN12CVN","","img/set1/S3.jpg","68","3","structured_normal","72","structured_normal,structured_load,random,structured_incentive","2,3,3,4,2,1","2,4,3,1","false","","",""
"null","","html-keyboard-response","74","106208","0.0-74.0","3FE2ERCCZYUZ5PDEHLLJUUMZY22PO1","A2QX3YJXAAHHVV","3DZKABX2ZIR9F0FDMQGPG3LEN12CVN","","<img src=""img/set1/S3.jpg"" width=""540"" height = ""360"">","null","","","","","","","","","",""
"null","","html-keyboard-response","75","106424","0.0-75.0","3FE2ERCCZYUZ5PDEHLLJUUMZY22PO1","A2QX3YJXAAHHVV","3DZKABX2ZIR9F0FDMQGPG3LEN12CVN","","","null","","","","","","","","","",""
"639.4000000059605","","image-keyboard-response","76","107065","0.0-76.0","3FE2ERCCZYUZ5PDEHLLJUUMZY22PO1","A2QX3YJXAAHHVV","3DZKABX2ZIR9F0FDMQGPG3LEN12CVN","","img/set1/S2.jpg","83","2","structured_normal","68","structured_normal,structured_load,random,structured_incentive","2,3,3,4,2,1","2,4,3,1","false","","",""
"null","","html-keyboard-response","77","107419","0.0-77.0","3FE2ERCCZYUZ5PDEHLLJUUMZY22PO1","A2QX3YJXAAHHVV","3DZKABX2ZIR9F0FDMQGPG3LEN12CVN","","<img src=""img/set1/S2.jpg"" width=""540"" height = ""360"">","null","","","","","","","","","",""
"null","","html-keyboard-response","78","107621","0.0-78.0","3FE2ERCCZYUZ5PDEHLLJUUMZY22PO1","A2QX3YJXAAHHVV","3DZKABX2ZIR9F0FDMQGPG3LEN12CVN","","","null","","","","","","","","","",""
"263.90000000596046","","image-keyboard-response","79","107886","0.0-79.0","3FE2ERCCZYUZ5PDEHLLJUUMZY22PO1","A2QX3YJXAAHHVV","3DZKABX2ZIR9F0FDMQGPG3LEN12CVN","","img/set1/S3.jpg","68","3","structured_normal","72","structured_normal,structured_load,random,structured_incentive","2,3,3,4,2,1","2,4,3,1","false","","",""
"null","","html-keyboard-response","80","108242","0.0-80.0","3FE2ERCCZYUZ5PDEHLLJUUMZY22PO1","A2QX3YJXAAHHVV","3DZKABX2ZIR9F0FDMQGPG3LEN12CVN","","<img src=""img/set1/S3.jpg"" width=""540"" height = ""360"">","null","","","","","","","","","",""
"null","","html-keyboard-response","81","108445","0.0-81.0","3FE2ERCCZYUZ5PDEHLLJUUMZY22PO1","A2QX3YJXAAHHVV","3DZKABX2ZIR9F0FDMQGPG3LEN12CVN","","","null","","","","","","","","","",""
"889.9000000059605","","image-keyboard-response","82","109336","0.0-82.0","3FE2ERCCZYUZ5PDEHLLJUUMZY22PO1","A2QX3YJXAAHHVV","3DZKABX2ZIR9F0FDMQGPG3LEN12CVN","","img/set1/S2.jpg","74","2","structured_normal","68","structured_normal,structured_load,random,structured_incentive","2,3,3,4,2,1","2,4,3,1","false","","",""
"null","","html-keyboard-response","83","109689","0.0-83.0","3FE2ERCCZYUZ5PDEHLLJUUMZY22PO1","A2QX3YJXAAHHVV","3DZKABX2ZIR9F0FDMQGPG3LEN12CVN","","<img src=""img/set1/S2.jpg"" width=""540"" height = ""360"">","null","","","","","","","","","",""
"null","","html-keyboard-response","84","109892","0.0-84.0","3FE2ERCCZYUZ5PDEHLLJUUMZY22PO1","A2QX3YJXAAHHVV","3DZKABX2ZIR9F0FDMQGPG3LEN12CVN","","","null","","","","","","","","","",""
"18.099999994039536","","image-keyboard-response","85","109912","0.0-85.0","3FE2ERCCZYUZ5PDEHLLJUUMZY22PO1","A2QX3YJXAAHHVV","3DZKABX2ZIR9F0FDMQGPG3LEN12CVN","","img/set1/S3.jpg","72","3","structured_normal","72","structured_normal,structured_load,random,structured_incentive","2,3,3,4,2,1","2,4,3,1","true","","",""
"null","","html-keyboard-response","86","110265","0.0-86.0","3FE2ERCCZYUZ5PDEHLLJUUMZY22PO1","A2QX3YJXAAHHVV","3DZKABX2ZIR9F0FDMQGPG3LEN12CVN","","<img src=""img/set1/S3.jpg"" width=""540"" height = ""360"" style=""border:16px solid orange"">","null","","","","","","","","","",""
"null","","html-keyboard-response","87","110467","0.0-87.0","3FE2ERCCZYUZ5PDEHLLJUUMZY22PO1","A2QX3YJXAAHHVV","3DZKABX2ZIR9F0FDMQGPG3LEN12CVN","","","null","","","","","","","","","",""
"909.5","","image-keyboard-response","88","111378","0.0-88.0","3FE2ERCCZYUZ5PDEHLLJUUMZY22PO1","A2QX3YJXAAHHVV","3DZKABX2ZIR9F0FDMQGPG3LEN12CVN","","img/set1/S2.jpg","72","2","structured_normal","68","structured_normal,structured_load,random,structured_incentive","2,3,3,4,2,1","2,4,3,1","false","","",""
"null","","html-keyboard-response","89","111738","0.0-89.0","3FE2ERCCZYUZ5PDEHLLJUUMZY22PO1","A2QX3YJXAAHHVV","3DZKABX2ZIR9F0FDMQGPG3LEN12CVN","","<img src=""img/set1/S2.jpg"" width=""540"" height = ""360"">","null","","","","","","","","","",""
"null","","html-keyboard-response","90","111940","0.0-90.0","3FE2ERCCZYUZ5PDEHLLJUUMZY22PO1","A2QX3YJXAAHHVV","3DZKABX2ZIR9F0FDMQGPG3LEN12CVN","","","null","","","","","","","","","",""
"684.9000000059605","","image-keyboard-response","91","112627","0.0-91.0","3FE2ERCCZYUZ5PDEHLLJUUMZY22PO1","A2QX3YJXAAHHVV","3DZKABX2ZIR9F0FDMQGPG3LEN12CVN","","img/set1/S3.jpg","72","3","structured_normal","72","structured_normal,structured_load,random,structured_incentive","2,3,3,4,2,1","2,4,3,1","true","","",""
"null","","html-keyboard-response","92","112981","0.0-92.0","3FE2ERCCZYUZ5PDEHLLJUUMZY22PO1","A2QX3YJXAAHHVV","3DZKABX2ZIR9F0FDMQGPG3LEN12CVN","","<img src=""img/set1/S3.jpg"" width=""540"" height = ""360"" style=""border:16px solid orange"">","null","","","","","","","","","",""
"null","","html-keyboard-response","93","113184","0.0-93.0","3FE2ERCCZYUZ5PDEHLLJUUMZY22PO1","A2QX3YJXAAHHVV","3DZKABX2ZIR9F0FDMQGPG3LEN12CVN","","","null","","","","","","","","","",""
"521","","image-keyboard-response","94","113706","0.0-94.0","3FE2ERCCZYUZ5PDEHLLJUUMZY22PO1","A2QX3YJXAAHHVV","3DZKABX2ZIR9F0FDMQGPG3LEN12CVN","","img/set1/S1.jpg","74","1","structured_normal","83","structured_normal,structured_load,random,structured_incentive","2,3,3,4,2,1","2,4,3,1","false","","",""
"null","","html-keyboard-response","95","114070","0.0-95.0","3FE2ERCCZYUZ5PDEHLLJUUMZY22PO1","A2QX3YJXAAHHVV","3DZKABX2ZIR9F0FDMQGPG3LEN12CVN","","<img src=""img/set1/S1.jpg"" width=""540"" height = ""360"">","null","","","","","","","","","",""
"null","","html-keyboard-response","96","114273","0.0-96.0","3FE2ERCCZYUZ5PDEHLLJUUMZY22PO1","A2QX3YJXAAHHVV","3DZKABX2ZIR9F0FDMQGPG3LEN12CVN","","","null","","","","","","","","","",""
"1200.2999999970198","","image-keyboard-response","97","115474","0.0-97.0","3FE2ERCCZYUZ5PDEHLLJUUMZY22PO1","A2QX3YJXAAHHVV","3DZKABX2ZIR9F0FDMQGPG3LEN12CVN","","img/set1/S4.jpg","74","4","structured_normal","74","structured_normal,structured_load,random,structured_incentive","2,3,3,4,2,1","2,4,3,1","true","","",""
"null","","html-keyboard-response","98","115829","0.0-98.0","3FE2ERCCZYUZ5PDEHLLJUUMZY22PO1","A2QX3YJXAAHHVV","3DZKABX2ZIR9F0FDMQGPG3LEN12CVN","","<img src=""img/set1/S4.jpg"" width=""540"" height = ""360"" style=""border:16px solid orange"">","null","","","","","","","","","",""
"null","","html-keyboard-response","99","116031","0.0-99.0","3FE2ERCCZYUZ5PDEHLLJUUMZY22PO1","A2QX3YJXAAHHVV","3DZKABX2ZIR9F0FDMQGPG3LEN12CVN","","","null","","","","","","","","","",""
"960.1000000089407","","image-keyboard-response","100","116992","0.0-100.0","3FE2ERCCZYUZ5PDEHLLJUUMZY22PO1","A2QX3YJXAAHHVV","3DZKABX2ZIR9F0FDMQGPG3LEN12CVN","","img/set1/S1.jpg","68","1","structured_normal","83","structured_normal,structured_load,random,structured_incentive","2,3,3,4,2,1","2,4,3,1","false","","",""
"null","","html-keyboard-response","101","117353","0.0-101.0","3FE2ERCCZYUZ5PDEHLLJUUMZY22PO1","A2QX3YJXAAHHVV","3DZKABX2ZIR9F0FDMQGPG3LEN12CVN","","<img src=""img/set1/S1.jpg"" width=""540"" height = ""360"">","null","","","","","","","","","",""
"null","","html-keyboard-response","102","117556","0.0-102.0","3FE2ERCCZYUZ5PDEHLLJUUMZY22PO1","A2QX3YJXAAHHVV","3DZKABX2ZIR9F0FDMQGPG3LEN12CVN","","","null","","","","","","","","","",""
"978","","image-keyboard-response","103","118536","0.0-103.0","3FE2ERCCZYUZ5PDEHLLJUUMZY22PO1","A2QX3YJXAAHHVV","3DZKABX2ZIR9F0FDMQGPG3LEN12CVN","","img/set1/S2.jpg","68","2","structured_normal","68","structured_normal,structured_load,random,structured_incentive","2,3,3,4,2,1","2,4,3,1","true","","",""
"null","","html-keyboard-response","104","118895","0.0-104.0","3FE2ERCCZYUZ5PDEHLLJUUMZY22PO1","A2QX3YJXAAHHVV","3DZKABX2ZIR9F0FDMQGPG3LEN12CVN","","<img src=""img/set1/S2.jpg"" width=""540"" height = ""360"" style=""border:16px solid orange"">","null","","","","","","","","","",""
"null","","html-keyboard-response","105","119098","0.0-105.0","3FE2ERCCZYUZ5PDEHLLJUUMZY22PO1","A2QX3YJXAAHHVV","3DZKABX2ZIR9F0FDMQGPG3LEN12CVN","","","null","","","","","","","","","",""
"633.4000000059605","","image-keyboard-response","106","119733","0.0-106.0","3FE2ERCCZYUZ5PDEHLLJUUMZY22PO1","A2QX3YJXAAHHVV","3DZKABX2ZIR9F0FDMQGPG3LEN12CVN","","img/set1/S3.jpg","72","3","structured_normal","72","structured_normal,structured_load,random,structured_incentive","2,3,3,4,2,1","2,4,3,1","true","","",""
"null","","html-keyboard-response","107","120090","0.0-107.0","3FE2ERCCZYUZ5PDEHLLJUUMZY22PO1","A2QX3YJXAAHHVV","3DZKABX2ZIR9F0FDMQGPG3LEN12CVN","","<img src=""img/set1/S3.jpg"" width=""540"" height = ""360"" style=""border:16px solid orange"">","null","","","","","","","","","",""
"null","","html-keyboard-response","108","120305","0.0-108.0","3FE2ERCCZYUZ5PDEHLLJUUMZY22PO1","A2QX3YJXAAHHVV","3DZKABX2ZIR9F0FDMQGPG3LEN12CVN","","","null","","","","","","","","","",""
"792","","image-keyboard-response","109","121098","0.0-109.0","3FE2ERCCZYUZ5PDEHLLJUUMZY22PO1","A2QX3YJXAAHHVV","3DZKABX2ZIR9F0FDMQGPG3LEN12CVN","","img/set1/S4.jpg","83","4","structured_normal","74","structured_normal,structured_load,random,structured_incentive","2,3,3,4,2,1","2,4,3,1","false","","",""
"null","","html-keyboard-response","110","121453","0.0-110.0","3FE2ERCCZYUZ5PDEHLLJUUMZY22PO1","A2QX3YJXAAHHVV","3DZKABX2ZIR9F0FDMQGPG3LEN12CVN","","<img src=""img/set1/S4.jpg"" width=""540"" height = ""360"">","null","","","","","","","","","",""
"null","","html-keyboard-response","111","121656","0.0-111.0","3FE2ERCCZYUZ5PDEHLLJUUMZY22PO1","A2QX3YJXAAHHVV","3DZKABX2ZIR9F0FDMQGPG3LEN12CVN","","","null","","","","","","","","","",""
"616.4000000059605","","image-keyboard-response","112","122274","0.0-112.0","3FE2ERCCZYUZ5PDEHLLJUUMZY22PO1","A2QX3YJXAAHHVV","3DZKABX2ZIR9F0FDMQGPG3LEN12CVN","","img/set1/S4.jpg","68","4","structured_normal","74","structured_normal,structured_load,random,structured_incentive","2,3,3,4,2,1","2,4,3,1","false","","",""
"null","","html-keyboard-response","113","122635","0.0-113.0","3FE2ERCCZYUZ5PDEHLLJUUMZY22PO1","A2QX3YJXAAHHVV","3DZKABX2ZIR9F0FDMQGPG3LEN12CVN","","<img src=""img/set1/S4.jpg"" width=""540"" height = ""360"">","null","","","","","","","","","",""
"null","","html-keyboard-response","114","122839","0.0-114.0","3FE2ERCCZYUZ5PDEHLLJUUMZY22PO1","A2QX3YJXAAHHVV","3DZKABX2ZIR9F0FDMQGPG3LEN12CVN","","","null","","","","","","","","","",""
"788.1999999880791","","image-keyboard-response","115","123629","0.0-115.0","3FE2ERCCZYUZ5PDEHLLJUUMZY22PO1","A2QX3YJXAAHHVV","3DZKABX2ZIR9F0FDMQGPG3LEN12CVN","","img/set1/S2.jpg","72","2","structured_normal","68","structured_normal,structured_load,random,structured_incentive","2,3,3,4,2,1","2,4,3,1","false","","",""
"null","","html-keyboard-response","116","123989","0.0-116.0","3FE2ERCCZYUZ5PDEHLLJUUMZY22PO1","A2QX3YJXAAHHVV","3DZKABX2ZIR9F0FDMQGPG3LEN12CVN","","<img src=""img/set1/S2.jpg"" width=""540"" height = ""360"">","null","","","","","","","","","",""
"null","","html-keyboard-response","117","124190","0.0-117.0","3FE2ERCCZYUZ5PDEHLLJUUMZY22PO1","A2QX3YJXAAHHVV","3DZKABX2ZIR9F0FDMQGPG3LEN12CVN","","","null","","","","","","","","","",""
"609.7000000029802","","image-keyboard-response","118","124801","0.0-118.0","3FE2ERCCZYUZ5PDEHLLJUUMZY22PO1","A2QX3YJXAAHHVV","3DZKABX2ZIR9F0FDMQGPG3LEN12CVN","","img/set1/S3.jpg","72","3","structured_normal","72","structured_normal,structured_load,random,structured_incentive","2,3,3,4,2,1","2,4,3,1","true","","",""
"null","","html-keyboard-response","119","125167","0.0-119.0","3FE2ERCCZYUZ5PDEHLLJUUMZY22PO1","A2QX3YJXAAHHVV","3DZKABX2ZIR9F0FDMQGPG3LEN12CVN","","<img src=""img/set1/S3.jpg"" width=""540"" height = ""360"" style=""border:16px solid orange"">","null","","","","","","","","","",""
"null","","html-keyboard-response","120","125384","0.0-120.0","3FE2ERCCZYUZ5PDEHLLJUUMZY22PO1","A2QX3YJXAAHHVV","3DZKABX2ZIR9F0FDMQGPG3LEN12CVN","","","null","","","","","","","","","",""
"470.29999999701977","","image-keyboard-response","121","125855","0.0-121.0","3FE2ERCCZYUZ5PDEHLLJUUMZY22PO1","A2QX3YJXAAHHVV","3DZKABX2ZIR9F0FDMQGPG3LEN12CVN","","img/set1/S2.jpg","74","2","structured_normal","68","structured_normal,structured_load,random,structured_incentive","2,3,3,4,2,1","2,4,3,1","false","","",""
"null","","html-keyboard-response","122","126208","0.0-122.0","3FE2ERCCZYUZ5PDEHLLJUUMZY22PO1","A2QX3YJXAAHHVV","3DZKABX2ZIR9F0FDMQGPG3LEN12CVN","","<img src=""img/set1/S2.jpg"" width=""540"" height = ""360"">","null","","","","","","","","","",""
"null","","html-keyboard-response","123","126412","0.0-123.0","3FE2ERCCZYUZ5PDEHLLJUUMZY22PO1","A2QX3YJXAAHHVV","3DZKABX2ZIR9F0FDMQGPG3LEN12CVN","","","null","","","","","","","","","",""
"748.9000000059605","","image-keyboard-response","124","127162","0.0-124.0","3FE2ERCCZYUZ5PDEHLLJUUMZY22PO1","A2QX3YJXAAHHVV","3DZKABX2ZIR9F0FDMQGPG3LEN12CVN","","img/set1/S3.jpg","72","3","structured_normal","72","structured_normal,structured_load,random,structured_incentive","2,3,3,4,2,1","2,4,3,1","true","","",""
"null","","html-keyboard-response","125","127518","0.0-125.0","3FE2ERCCZYUZ5PDEHLLJUUMZY22PO1","A2QX3YJXAAHHVV","3DZKABX2ZIR9F0FDMQGPG3LEN12CVN","","<img src=""img/set1/S3.jpg"" width=""540"" height = ""360"" style=""border:16px solid orange"">","null","","","","","","","","","",""
"null","","html-keyboard-response","126","127733","0.0-126.0","3FE2ERCCZYUZ5PDEHLLJUUMZY22PO1","A2QX3YJXAAHHVV","3DZKABX2ZIR9F0FDMQGPG3LEN12CVN","","","null","","","","","","","","","",""
"1200.0999999940395","","image-keyboard-response","127","128935","0.0-127.0","3FE2ERCCZYUZ5PDEHLLJUUMZY22PO1","A2QX3YJXAAHHVV","3DZKABX2ZIR9F0FDMQGPG3LEN12CVN","","img/set1/S1.jpg","72","1","structured_normal","83","structured_normal,structured_load,random,structured_incentive","2,3,3,4,2,1","2,4,3,1","false","","",""
"null","","html-keyboard-response","128","129287","0.0-128.0","3FE2ERCCZYUZ5PDEHLLJUUMZY22PO1","A2QX3YJXAAHHVV","3DZKABX2ZIR9F0FDMQGPG3LEN12CVN","","<img src=""img/set1/S1.jpg"" width=""540"" height = ""360"">","null","","","","","","","","","",""
"null","","html-keyboard-response","129","129502","0.0-129.0","3FE2ERCCZYUZ5PDEHLLJUUMZY22PO1","A2QX3YJXAAHHVV","3DZKABX2ZIR9F0FDMQGPG3LEN12CVN","","","null","","","","","","","","","",""
"722.7999999970198","","image-keyboard-response","130","130226","0.0-130.0","3FE2ERCCZYUZ5PDEHLLJUUMZY22PO1","A2QX3YJXAAHHVV","3DZKABX2ZIR9F0FDMQGPG3LEN12CVN","","img/set1/S1.jpg","74","1","structured_normal","83","structured_normal,structured_load,random,structured_incentive","2,3,3,4,2,1","2,4,3,1","false","","",""
"null","","html-keyboard-response","131","130579","0.0-131.0","3FE2ERCCZYUZ5PDEHLLJUUMZY22PO1","A2QX3YJXAAHHVV","3DZKABX2ZIR9F0FDMQGPG3LEN12CVN","","<img src=""img/set1/S1.jpg"" width=""540"" height = ""360"">","null","","","","","","","","","",""
"null","","html-keyboard-response","132","130781","0.0-132.0","3FE2ERCCZYUZ5PDEHLLJUUMZY22PO1","A2QX3YJXAAHHVV","3DZKABX2ZIR9F0FDMQGPG3LEN12CVN","","","null","","","","","","","","","",""
"1005.7000000029802","","image-keyboard-response","133","131788","0.0-133.0","3FE2ERCCZYUZ5PDEHLLJUUMZY22PO1","A2QX3YJXAAHHVV","3DZKABX2ZIR9F0FDMQGPG3LEN12CVN","","img/set1/S2.jpg","74","2","structured_normal","68","structured_normal,structured_load,random,structured_incentive","2,3,3,4,2,1","2,4,3,1","false","","",""
"null","","html-keyboard-response","134","132149","0.0-134.0","3FE2ERCCZYUZ5PDEHLLJUUMZY22PO1","A2QX3YJXAAHHVV","3DZKABX2ZIR9F0FDMQGPG3LEN12CVN","","<img src=""img/set1/S2.jpg"" width=""540"" height = ""360"">","null","","","","","","","","","",""
"null","","html-keyboard-response","135","132351","0.0-135.0","3FE2ERCCZYUZ5PDEHLLJUUMZY22PO1","A2QX3YJXAAHHVV","3DZKABX2ZIR9F0FDMQGPG3LEN12CVN","","","null","","","","","","","","","",""
"518.7000000029802","","image-keyboard-response","136","132871","0.0-136.0","3FE2ERCCZYUZ5PDEHLLJUUMZY22PO1","A2QX3YJXAAHHVV","3DZKABX2ZIR9F0FDMQGPG3LEN12CVN","","img/set1/S3.jpg","72","3","structured_normal","72","structured_normal,structured_load,random,structured_incentive","2,3,3,4,2,1","2,4,3,1","true","","",""
"null","","html-keyboard-response","137","133233","0.0-137.0","3FE2ERCCZYUZ5PDEHLLJUUMZY22PO1","A2QX3YJXAAHHVV","3DZKABX2ZIR9F0FDMQGPG3LEN12CVN","","<img src=""img/set1/S3.jpg"" width=""540"" height = ""360"" style=""border:16px solid orange"">","null","","","","","","","","","",""
"null","","html-keyboard-response","138","133438","0.0-138.0","3FE2ERCCZYUZ5PDEHLLJUUMZY22PO1","A2QX3YJXAAHHVV","3DZKABX2ZIR9F0FDMQGPG3LEN12CVN","","","null","","","","","","","","","",""
"394","","image-keyboard-response","139","133833","0.0-139.0","3FE2ERCCZYUZ5PDEHLLJUUMZY22PO1","A2QX3YJXAAHHVV","3DZKABX2ZIR9F0FDMQGPG3LEN12CVN","","img/set1/S2.jpg","72","2","structured_normal","68","structured_normal,structured_load,random,structured_incentive","2,3,3,4,2,1","2,4,3,1","false","","",""
"null","","html-keyboard-response","140","134199","0.0-140.0","3FE2ERCCZYUZ5PDEHLLJUUMZY22PO1","A2QX3YJXAAHHVV","3DZKABX2ZIR9F0FDMQGPG3LEN12CVN","","<img src=""img/set1/S2.jpg"" width=""540"" height = ""360"">","null","","","","","","","","","",""
"null","","html-keyboard-response","141","134401","0.0-141.0","3FE2ERCCZYUZ5PDEHLLJUUMZY22PO1","A2QX3YJXAAHHVV","3DZKABX2ZIR9F0FDMQGPG3LEN12CVN","","","null","","","","","","","","","",""
"474.69999998807907","","image-keyboard-response","142","134877","0.0-142.0","3FE2ERCCZYUZ5PDEHLLJUUMZY22PO1","A2QX3YJXAAHHVV","3DZKABX2ZIR9F0FDMQGPG3LEN12CVN","","img/set1/S3.jpg","68","3","structured_normal","72","structured_normal,structured_load,random,structured_incentive","2,3,3,4,2,1","2,4,3,1","false","","",""
"null","","html-keyboard-response","143","135238","0.0-143.0","3FE2ERCCZYUZ5PDEHLLJUUMZY22PO1","A2QX3YJXAAHHVV","3DZKABX2ZIR9F0FDMQGPG3LEN12CVN","","<img src=""img/set1/S3.jpg"" width=""540"" height = ""360"">","null","","","","","","","","","",""
"null","","html-keyboard-response","144","135441","0.0-144.0","3FE2ERCCZYUZ5PDEHLLJUUMZY22PO1","A2QX3YJXAAHHVV","3DZKABX2ZIR9F0FDMQGPG3LEN12CVN","","","null","","","","","","","","","",""
"274.20000000298023","","image-keyboard-response","145","135717","0.0-145.0","3FE2ERCCZYUZ5PDEHLLJUUMZY22PO1","A2QX3YJXAAHHVV","3DZKABX2ZIR9F0FDMQGPG3LEN12CVN","","img/set1/S4.jpg","83","4","structured_normal","74","structured_normal,structured_load,random,structured_incentive","2,3,3,4,2,1","2,4,3,1","false","","",""
"null","","html-keyboard-response","146","136078","0.0-146.0","3FE2ERCCZYUZ5PDEHLLJUUMZY22PO1","A2QX3YJXAAHHVV","3DZKABX2ZIR9F0FDMQGPG3LEN12CVN","","<img src=""img/set1/S4.jpg"" width=""540"" height = ""360"">","null","","","","","","","","","",""
"null","","html-keyboard-response","147","136293","0.0-147.0","3FE2ERCCZYUZ5PDEHLLJUUMZY22PO1","A2QX3YJXAAHHVV","3DZKABX2ZIR9F0FDMQGPG3LEN12CVN","","","null","","","","","","","","","",""
"415.6000000089407","","image-keyboard-response","148","136710","0.0-148.0","3FE2ERCCZYUZ5PDEHLLJUUMZY22PO1","A2QX3YJXAAHHVV","3DZKABX2ZIR9F0FDMQGPG3LEN12CVN","","img/set1/S1.jpg","68","1","structured_normal","83","structured_normal,structured_load,random,structured_incentive","2,3,3,4,2,1","2,4,3,1","false","","",""
"null","","html-keyboard-response","149","137073","0.0-149.0","3FE2ERCCZYUZ5PDEHLLJUUMZY22PO1","A2QX3YJXAAHHVV","3DZKABX2ZIR9F0FDMQGPG3LEN12CVN","","<img src=""img/set1/S1.jpg"" width=""540"" height = ""360"">","null","","","","","","","","","",""
"null","","html-keyboard-response","150","137287","0.0-150.0","3FE2ERCCZYUZ5PDEHLLJUUMZY22PO1","A2QX3YJXAAHHVV","3DZKABX2ZIR9F0FDMQGPG3LEN12CVN","","","null","","","","","","","","","",""
"974.5999999940395","","image-keyboard-response","151","138263","0.0-151.0","3FE2ERCCZYUZ5PDEHLLJUUMZY22PO1","A2QX3YJXAAHHVV","3DZKABX2ZIR9F0FDMQGPG3LEN12CVN","","img/set1/S4.jpg","83","4","structured_normal","74","structured_normal,structured_load,random,structured_incentive","2,3,3,4,2,1","2,4,3,1","false","","",""
"null","","html-keyboard-response","152","138624","0.0-152.0","3FE2ERCCZYUZ5PDEHLLJUUMZY22PO1","A2QX3YJXAAHHVV","3DZKABX2ZIR9F0FDMQGPG3LEN12CVN","","<img src=""img/set1/S4.jpg"" width=""540"" height = ""360"">","null","","","","","","","","","",""
"null","","html-keyboard-response","153","138838","0.0-153.0","3FE2ERCCZYUZ5PDEHLLJUUMZY22PO1","A2QX3YJXAAHHVV","3DZKABX2ZIR9F0FDMQGPG3LEN12CVN","","","null","","","","","","","","","",""
"672.1999999880791","","image-keyboard-response","154","139511","0.0-154.0","3FE2ERCCZYUZ5PDEHLLJUUMZY22PO1","A2QX3YJXAAHHVV","3DZKABX2ZIR9F0FDMQGPG3LEN12CVN","","img/set1/S4.jpg","68","4","structured_normal","74","structured_normal,structured_load,random,structured_incentive","2,3,3,4,2,1","2,4,3,1","false","","",""
"null","","html-keyboard-response","155","139867","0.0-155.0","3FE2ERCCZYUZ5PDEHLLJUUMZY22PO1","A2QX3YJXAAHHVV","3DZKABX2ZIR9F0FDMQGPG3LEN12CVN","","<img src=""img/set1/S4.jpg"" width=""540"" height = ""360"">","null","","","","","","","","","",""
"null","","html-keyboard-response","156","140070","0.0-156.0","3FE2ERCCZYUZ5PDEHLLJUUMZY22PO1","A2QX3YJXAAHHVV","3DZKABX2ZIR9F0FDMQGPG3LEN12CVN","","","null","","","","","","","","","",""
"994.1999999880791","","image-keyboard-response","157","141066","0.0-157.0","3FE2ERCCZYUZ5PDEHLLJUUMZY22PO1","A2QX3YJXAAHHVV","3DZKABX2ZIR9F0FDMQGPG3LEN12CVN","","img/set1/S2.jpg","68","2","structured_normal","68","structured_normal,structured_load,random,structured_incentive","2,3,3,4,2,1","2,4,3,1","true","","",""
"null","","html-keyboard-response","158","141422","0.0-158.0","3FE2ERCCZYUZ5PDEHLLJUUMZY22PO1","A2QX3YJXAAHHVV","3DZKABX2ZIR9F0FDMQGPG3LEN12CVN","","<img src=""img/set1/S2.jpg"" width=""540"" height = ""360"" style=""border:16px solid orange"">","null","","","","","","","","","",""
"null","","html-keyboard-response","159","141623","0.0-159.0","3FE2ERCCZYUZ5PDEHLLJUUMZY22PO1","A2QX3YJXAAHHVV","3DZKABX2ZIR9F0FDMQGPG3LEN12CVN","","","null","","","","","","","","","",""
"718.2000000029802","","image-keyboard-response","160","142343","0.0-160.0","3FE2ERCCZYUZ5PDEHLLJUUMZY22PO1","A2QX3YJXAAHHVV","3DZKABX2ZIR9F0FDMQGPG3LEN12CVN","","img/set1/S3.jpg","72","3","structured_normal","72","structured_normal,structured_load,random,structured_incentive","2,3,3,4,2,1","2,4,3,1","true","","",""
"null","","html-keyboard-response","161","142697","0.0-161.0","3FE2ERCCZYUZ5PDEHLLJUUMZY22PO1","A2QX3YJXAAHHVV","3DZKABX2ZIR9F0FDMQGPG3LEN12CVN","","<img src=""img/set1/S3.jpg"" width=""540"" height = ""360"" style=""border:16px solid orange"">","null","","","","","","","","","",""
"null","","html-keyboard-response","162","142898","0.0-162.0","3FE2ERCCZYUZ5PDEHLLJUUMZY22PO1","A2QX3YJXAAHHVV","3DZKABX2ZIR9F0FDMQGPG3LEN12CVN","","","null","","","","","","","","","",""
"513","","image-keyboard-response","163","143412","0.0-163.0","3FE2ERCCZYUZ5PDEHLLJUUMZY22PO1","A2QX3YJXAAHHVV","3DZKABX2ZIR9F0FDMQGPG3LEN12CVN","","img/set1/S2.jpg","68","2","structured_normal","68","structured_normal,structured_load,random,structured_incentive","2,3,3,4,2,1","2,4,3,1","true","","",""
"null","","html-keyboard-response","164","143770","0.0-164.0","3FE2ERCCZYUZ5PDEHLLJUUMZY22PO1","A2QX3YJXAAHHVV","3DZKABX2ZIR9F0FDMQGPG3LEN12CVN","","<img src=""img/set1/S2.jpg"" width=""540"" height = ""360"" style=""border:16px solid orange"">","null","","","","","","","","","",""
"null","","html-keyboard-response","165","143972","0.0-165.0","3FE2ERCCZYUZ5PDEHLLJUUMZY22PO1","A2QX3YJXAAHHVV","3DZKABX2ZIR9F0FDMQGPG3LEN12CVN","","","null","","","","","","","","","",""
"653.5","","image-keyboard-response","166","144627","0.0-166.0","3FE2ERCCZYUZ5PDEHLLJUUMZY22PO1","A2QX3YJXAAHHVV","3DZKABX2ZIR9F0FDMQGPG3LEN12CVN","","img/set1/S3.jpg","72","3","structured_normal","72","structured_normal,structured_load,random,structured_incentive","2,3,3,4,2,1","2,4,3,1","true","","",""
"null","","html-keyboard-response","167","144983","0.0-167.0","3FE2ERCCZYUZ5PDEHLLJUUMZY22PO1","A2QX3YJXAAHHVV","3DZKABX2ZIR9F0FDMQGPG3LEN12CVN","","<img src=""img/set1/S3.jpg"" width=""540"" height = ""360"" style=""border:16px solid orange"">","null","","","","","","","","","",""
"null","","html-keyboard-response","168","145186","0.0-168.0","3FE2ERCCZYUZ5PDEHLLJUUMZY22PO1","A2QX3YJXAAHHVV","3DZKABX2ZIR9F0FDMQGPG3LEN12CVN","","","null","","","","","","","","","",""
"395.5","","image-keyboard-response","169","145582","0.0-169.0","3FE2ERCCZYUZ5PDEHLLJUUMZY22PO1","A2QX3YJXAAHHVV","3DZKABX2ZIR9F0FDMQGPG3LEN12CVN","","img/set1/S2.jpg","68","2","structured_normal","68","structured_normal,structured_load,random,structured_incentive","2,3,3,4,2,1","2,4,3,1","true","","",""
"null","","html-keyboard-response","170","145944","0.0-170.0","3FE2ERCCZYUZ5PDEHLLJUUMZY22PO1","A2QX3YJXAAHHVV","3DZKABX2ZIR9F0FDMQGPG3LEN12CVN","","<img src=""img/set1/S2.jpg"" width=""540"" height = ""360"" style=""border:16px solid orange"">","null","","","","","","","","","",""
"null","","html-keyboard-response","171","146146","0.0-171.0","3FE2ERCCZYUZ5PDEHLLJUUMZY22PO1","A2QX3YJXAAHHVV","3DZKABX2ZIR9F0FDMQGPG3LEN12CVN","","","null","","","","","","","","","",""
"369.70000000298023","","image-keyboard-response","172","146517","0.0-172.0","3FE2ERCCZYUZ5PDEHLLJUUMZY22PO1","A2QX3YJXAAHHVV","3DZKABX2ZIR9F0FDMQGPG3LEN12CVN","","img/set1/S3.jpg","72","3","structured_normal","72","structured_normal,structured_load,random,structured_incentive","2,3,3,4,2,1","2,4,3,1","true","","",""
"null","","html-keyboard-response","173","146881","0.0-173.0","3FE2ERCCZYUZ5PDEHLLJUUMZY22PO1","A2QX3YJXAAHHVV","3DZKABX2ZIR9F0FDMQGPG3LEN12CVN","","<img src=""img/set1/S3.jpg"" width=""540"" height = ""360"" style=""border:16px solid orange"">","null","","","","","","","","","",""
"null","","html-keyboard-response","174","147085","0.0-174.0","3FE2ERCCZYUZ5PDEHLLJUUMZY22PO1","A2QX3YJXAAHHVV","3DZKABX2ZIR9F0FDMQGPG3LEN12CVN","","","null","","","","","","","","","",""
"336.69999998807907","","image-keyboard-response","175","147422","0.0-175.0","3FE2ERCCZYUZ5PDEHLLJUUMZY22PO1","A2QX3YJXAAHHVV","3DZKABX2ZIR9F0FDMQGPG3LEN12CVN","","img/set1/S2.jpg","68","2","structured_normal","68","structured_normal,structured_load,random,structured_incentive","2,3,3,4,2,1","2,4,3,1","true","","",""
"null","","html-keyboard-response","176","147783","0.0-176.0","3FE2ERCCZYUZ5PDEHLLJUUMZY22PO1","A2QX3YJXAAHHVV","3DZKABX2ZIR9F0FDMQGPG3LEN12CVN","","<img src=""img/set1/S2.jpg"" width=""540"" height = ""360"" style=""border:16px solid orange"">","null","","","","","","","","","",""
"null","","html-keyboard-response","177","147999","0.0-177.0","3FE2ERCCZYUZ5PDEHLLJUUMZY22PO1","A2QX3YJXAAHHVV","3DZKABX2ZIR9F0FDMQGPG3LEN12CVN","","","null","","","","","","","","","",""
"358.70000000298023","","image-keyboard-response","178","148359","0.0-178.0","3FE2ERCCZYUZ5PDEHLLJUUMZY22PO1","A2QX3YJXAAHHVV","3DZKABX2ZIR9F0FDMQGPG3LEN12CVN","","img/set1/S3.jpg","72","3","structured_normal","72","structured_normal,structured_load,random,structured_incentive","2,3,3,4,2,1","2,4,3,1","true","","",""
"null","","html-keyboard-response","179","148713","0.0-179.0","3FE2ERCCZYUZ5PDEHLLJUUMZY22PO1","A2QX3YJXAAHHVV","3DZKABX2ZIR9F0FDMQGPG3LEN12CVN","","<img src=""img/set1/S3.jpg"" width=""540"" height = ""360"" style=""border:16px solid orange"">","null","","","","","","","","","",""
"null","","html-keyboard-response","180","148916","0.0-180.0","3FE2ERCCZYUZ5PDEHLLJUUMZY22PO1","A2QX3YJXAAHHVV","3DZKABX2ZIR9F0FDMQGPG3LEN12CVN","","","null","","","","","","","","","",""
"330.5","","image-keyboard-response","181","149248","0.0-181.0","3FE2ERCCZYUZ5PDEHLLJUUMZY22PO1","A2QX3YJXAAHHVV","3DZKABX2ZIR9F0FDMQGPG3LEN12CVN","","img/set1/S2.jpg","68","2","structured_normal","68","structured_normal,structured_load,random,structured_incentive","2,3,3,4,2,1","2,4,3,1","true","","",""
"null","","html-keyboard-response","182","149613","0.0-182.0","3FE2ERCCZYUZ5PDEHLLJUUMZY22PO1","A2QX3YJXAAHHVV","3DZKABX2ZIR9F0FDMQGPG3LEN12CVN","","<img src=""img/set1/S2.jpg"" width=""540"" height = ""360"" style=""border:16px solid orange"">","null","","","","","","","","","",""
"null","","html-keyboard-response","183","149815","0.0-183.0","3FE2ERCCZYUZ5PDEHLLJUUMZY22PO1","A2QX3YJXAAHHVV","3DZKABX2ZIR9F0FDMQGPG3LEN12CVN","","","null","","","","","","","","","",""
"316","","image-keyboard-response","184","150133","0.0-184.0","3FE2ERCCZYUZ5PDEHLLJUUMZY22PO1","A2QX3YJXAAHHVV","3DZKABX2ZIR9F0FDMQGPG3LEN12CVN","","img/set1/S3.jpg","72","3","structured_normal","72","structured_normal,structured_load,random,structured_incentive","2,3,3,4,2,1","2,4,3,1","true","","",""
"null","","html-keyboard-response","185","150499","0.0-185.0","3FE2ERCCZYUZ5PDEHLLJUUMZY22PO1","A2QX3YJXAAHHVV","3DZKABX2ZIR9F0FDMQGPG3LEN12CVN","","<img src=""img/set1/S3.jpg"" width=""540"" height = ""360"" style=""border:16px solid orange"">","null","","","","","","","","","",""
"null","","html-keyboard-response","186","150701","0.0-186.0","3FE2ERCCZYUZ5PDEHLLJUUMZY22PO1","A2QX3YJXAAHHVV","3DZKABX2ZIR9F0FDMQGPG3LEN12CVN","","","null","","","","","","","","","",""
"317.59999999403954","","image-keyboard-response","187","151020","0.0-187.0","3FE2ERCCZYUZ5PDEHLLJUUMZY22PO1","A2QX3YJXAAHHVV","3DZKABX2ZIR9F0FDMQGPG3LEN12CVN","","img/set1/S4.jpg","68","4","structured_normal","74","structured_normal,structured_load,random,structured_incentive","2,3,3,4,2,1","2,4,3,1","false","","",""
"null","","html-keyboard-response","188","151386","0.0-188.0","3FE2ERCCZYUZ5PDEHLLJUUMZY22PO1","A2QX3YJXAAHHVV","3DZKABX2ZIR9F0FDMQGPG3LEN12CVN","","<img src=""img/set1/S4.jpg"" width=""540"" height = ""360"">","null","","","","","","","","","",""
"null","","html-keyboard-response","189","151588","0.0-189.0","3FE2ERCCZYUZ5PDEHLLJUUMZY22PO1","A2QX3YJXAAHHVV","3DZKABX2ZIR9F0FDMQGPG3LEN12CVN","","","null","","","","","","","","","",""
"724.5","","image-keyboard-response","190","152314","0.0-190.0","3FE2ERCCZYUZ5PDEHLLJUUMZY22PO1","A2QX3YJXAAHHVV","3DZKABX2ZIR9F0FDMQGPG3LEN12CVN","","img/set1/S2.jpg","68","2","structured_normal","68","structured_normal,structured_load,random,structured_incentive","2,3,3,4,2,1","2,4,3,1","true","","",""
"null","","html-keyboard-response","191","152675","0.0-191.0","3FE2ERCCZYUZ5PDEHLLJUUMZY22PO1","A2QX3YJXAAHHVV","3DZKABX2ZIR9F0FDMQGPG3LEN12CVN","","<img src=""img/set1/S2.jpg"" width=""540"" height = ""360"" style=""border:16px solid orange"">","null","","","","","","","","","",""
"null","","html-keyboard-response","192","152891","0.0-192.0","3FE2ERCCZYUZ5PDEHLLJUUMZY22PO1","A2QX3YJXAAHHVV","3DZKABX2ZIR9F0FDMQGPG3LEN12CVN","","","null","","","","","","","","","",""
"428.90000000596046","","image-keyboard-response","193","153322","0.0-193.0","3FE2ERCCZYUZ5PDEHLLJUUMZY22PO1","A2QX3YJXAAHHVV","3DZKABX2ZIR9F0FDMQGPG3LEN12CVN","","img/set1/S3.jpg","72","3","structured_normal","72","structured_normal,structured_load,random,structured_incentive","2,3,3,4,2,1","2,4,3,1","true","","",""
"null","","html-keyboard-response","194","153685","0.0-194.0","3FE2ERCCZYUZ5PDEHLLJUUMZY22PO1","A2QX3YJXAAHHVV","3DZKABX2ZIR9F0FDMQGPG3LEN12CVN","","<img src=""img/set1/S3.jpg"" width=""540"" height = ""360"" style=""border:16px solid orange"">","null","","","","","","","","","",""
"null","","html-keyboard-response","195","153888","0.0-195.0","3FE2ERCCZYUZ5PDEHLLJUUMZY22PO1","A2QX3YJXAAHHVV","3DZKABX2ZIR9F0FDMQGPG3LEN12CVN","","","null","","","","","","","","","",""
"798.2000000029802","","image-keyboard-response","196","154688","0.0-196.0","3FE2ERCCZYUZ5PDEHLLJUUMZY22PO1","A2QX3YJXAAHHVV","3DZKABX2ZIR9F0FDMQGPG3LEN12CVN","","img/set1/S2.jpg","68","2","structured_normal","68","structured_normal,structured_load,random,structured_incentive","2,3,3,4,2,1","2,4,3,1","true","","",""
"null","","html-keyboard-response","197","155053","0.0-197.0","3FE2ERCCZYUZ5PDEHLLJUUMZY22PO1","A2QX3YJXAAHHVV","3DZKABX2ZIR9F0FDMQGPG3LEN12CVN","","<img src=""img/set1/S2.jpg"" width=""540"" height = ""360"" style=""border:16px solid orange"">","null","","","","","","","","","",""
"null","","html-keyboard-response","198","155255","0.0-198.0","3FE2ERCCZYUZ5PDEHLLJUUMZY22PO1","A2QX3YJXAAHHVV","3DZKABX2ZIR9F0FDMQGPG3LEN12CVN","","","null","","","","","","","","","",""
"465.1000000089407","","image-keyboard-response","199","155721","0.0-199.0","3FE2ERCCZYUZ5PDEHLLJUUMZY22PO1","A2QX3YJXAAHHVV","3DZKABX2ZIR9F0FDMQGPG3LEN12CVN","","img/set1/S3.jpg","72","3","structured_normal","72","structured_normal,structured_load,random,structured_incentive","2,3,3,4,2,1","2,4,3,1","true","","",""
"null","","html-keyboard-response","200","156078","0.0-200.0","3FE2ERCCZYUZ5PDEHLLJUUMZY22PO1","A2QX3YJXAAHHVV","3DZKABX2ZIR9F0FDMQGPG3LEN12CVN","","<img src=""img/set1/S3.jpg"" width=""540"" height = ""360"" style=""border:16px solid orange"">","null","","","","","","","","","",""
"null","","html-keyboard-response","201","156280","0.0-201.0","3FE2ERCCZYUZ5PDEHLLJUUMZY22PO1","A2QX3YJXAAHHVV","3DZKABX2ZIR9F0FDMQGPG3LEN12CVN","","","null","","","","","","","","","",""
"872.7999999970198","","image-keyboard-response","202","157154","0.0-202.0","3FE2ERCCZYUZ5PDEHLLJUUMZY22PO1","A2QX3YJXAAHHVV","3DZKABX2ZIR9F0FDMQGPG3LEN12CVN","","img/set1/S1.jpg","74","1","structured_normal","83","structured_normal,structured_load,random,structured_incentive","2,3,3,4,2,1","2,4,3,1","false","","",""
"null","","html-keyboard-response","203","157510","0.0-203.0","3FE2ERCCZYUZ5PDEHLLJUUMZY22PO1","A2QX3YJXAAHHVV","3DZKABX2ZIR9F0FDMQGPG3LEN12CVN","","<img src=""img/set1/S1.jpg"" width=""540"" height = ""360"">","null","","","","","","","","","",""
"null","","html-keyboard-response","204","157723","0.0-204.0","3FE2ERCCZYUZ5PDEHLLJUUMZY22PO1","A2QX3YJXAAHHVV","3DZKABX2ZIR9F0FDMQGPG3LEN12CVN","","","null","","","","","","","","","",""
"846.1000000089407","","image-keyboard-response","205","158571","0.0-205.0","3FE2ERCCZYUZ5PDEHLLJUUMZY22PO1","A2QX3YJXAAHHVV","3DZKABX2ZIR9F0FDMQGPG3LEN12CVN","","img/set1/S4.jpg","68","4","structured_normal","74","structured_normal,structured_load,random,structured_incentive","2,3,3,4,2,1","2,4,3,1","false","","",""
"null","","html-keyboard-response","206","158924","0.0-206.0","3FE2ERCCZYUZ5PDEHLLJUUMZY22PO1","A2QX3YJXAAHHVV","3DZKABX2ZIR9F0FDMQGPG3LEN12CVN","","<img src=""img/set1/S4.jpg"" width=""540"" height = ""360"">","null","","","","","","","","","",""
"null","","html-keyboard-response","207","159125","0.0-207.0","3FE2ERCCZYUZ5PDEHLLJUUMZY22PO1","A2QX3YJXAAHHVV","3DZKABX2ZIR9F0FDMQGPG3LEN12CVN","","","null","","","","","","","","","",""
"575.2000000029802","","image-keyboard-response","208","159702","0.0-208.0","3FE2ERCCZYUZ5PDEHLLJUUMZY22PO1","A2QX3YJXAAHHVV","3DZKABX2ZIR9F0FDMQGPG3LEN12CVN","","img/set1/S4.jpg","72","4","structured_normal","74","structured_normal,structured_load,random,structured_incentive","2,3,3,4,2,1","2,4,3,1","false","","",""
"null","","html-keyboard-response","209","160064","0.0-209.0","3FE2ERCCZYUZ5PDEHLLJUUMZY22PO1","A2QX3YJXAAHHVV","3DZKABX2ZIR9F0FDMQGPG3LEN12CVN","","<img src=""img/set1/S4.jpg"" width=""540"" height = ""360"">","null","","","","","","","","","",""
"null","","html-keyboard-response","210","160267","0.0-210.0","3FE2ERCCZYUZ5PDEHLLJUUMZY22PO1","A2QX3YJXAAHHVV","3DZKABX2ZIR9F0FDMQGPG3LEN12CVN","","","null","","","","","","","","","",""
"833.7999999970198","","image-keyboard-response","211","161102","0.0-211.0","3FE2ERCCZYUZ5PDEHLLJUUMZY22PO1","A2QX3YJXAAHHVV","3DZKABX2ZIR9F0FDMQGPG3LEN12CVN","","img/set1/S2.jpg","68","2","structured_normal","68","structured_normal,structured_load,random,structured_incentive","2,3,3,4,2,1","2,4,3,1","true","","",""
"null","","html-keyboard-response","212","161461","0.0-212.0","3FE2ERCCZYUZ5PDEHLLJUUMZY22PO1","A2QX3YJXAAHHVV","3DZKABX2ZIR9F0FDMQGPG3LEN12CVN","","<img src=""img/set1/S2.jpg"" width=""540"" height = ""360"" style=""border:16px solid orange"">","null","","","","","","","","","",""
"null","","html-keyboard-response","213","161663","0.0-213.0","3FE2ERCCZYUZ5PDEHLLJUUMZY22PO1","A2QX3YJXAAHHVV","3DZKABX2ZIR9F0FDMQGPG3LEN12CVN","","","null","","","","","","","","","",""
"380.79999999701977","","image-keyboard-response","214","162045","0.0-214.0","3FE2ERCCZYUZ5PDEHLLJUUMZY22PO1","A2QX3YJXAAHHVV","3DZKABX2ZIR9F0FDMQGPG3LEN12CVN","","img/set1/S3.jpg","72","3","structured_normal","72","structured_normal,structured_load,random,structured_incentive","2,3,3,4,2,1","2,4,3,1","true","","",""
"null","","html-keyboard-response","215","162410","0.0-215.0","3FE2ERCCZYUZ5PDEHLLJUUMZY22PO1","A2QX3YJXAAHHVV","3DZKABX2ZIR9F0FDMQGPG3LEN12CVN","","<img src=""img/set1/S3.jpg"" width=""540"" height = ""360"" style=""border:16px solid orange"">","null","","","","","","","","","",""
"null","","html-keyboard-response","216","162611","0.0-216.0","3FE2ERCCZYUZ5PDEHLLJUUMZY22PO1","A2QX3YJXAAHHVV","3DZKABX2ZIR9F0FDMQGPG3LEN12CVN","","","null","","","","","","","","","",""
"1061.7000000029802","","image-keyboard-response","217","163674","0.0-217.0","3FE2ERCCZYUZ5PDEHLLJUUMZY22PO1","A2QX3YJXAAHHVV","3DZKABX2ZIR9F0FDMQGPG3LEN12CVN","","img/set1/S1.jpg","68","1","structured_normal","83","structured_normal,structured_load,random,structured_incentive","2,3,3,4,2,1","2,4,3,1","false","","",""
"null","","html-keyboard-response","218","164030","0.0-218.0","3FE2ERCCZYUZ5PDEHLLJUUMZY22PO1","A2QX3YJXAAHHVV","3DZKABX2ZIR9F0FDMQGPG3LEN12CVN","","<img src=""img/set1/S1.jpg"" width=""540"" height = ""360"">","null","","","","","","","","","",""
"null","","html-keyboard-response","219","164232","0.0-219.0","3FE2ERCCZYUZ5PDEHLLJUUMZY22PO1","A2QX3YJXAAHHVV","3DZKABX2ZIR9F0FDMQGPG3LEN12CVN","","","null","","","","","","","","","",""
"630.2999999970198","","image-keyboard-response","220","164863","0.0-220.0","3FE2ERCCZYUZ5PDEHLLJUUMZY22PO1","A2QX3YJXAAHHVV","3DZKABX2ZIR9F0FDMQGPG3LEN12CVN","","img/set1/S1.jpg","83","1","structured_normal","83","structured_normal,structured_load,random,structured_incentive","2,3,3,4,2,1","2,4,3,1","true","","",""
"null","","html-keyboard-response","221","165225","0.0-221.0","3FE2ERCCZYUZ5PDEHLLJUUMZY22PO1","A2QX3YJXAAHHVV","3DZKABX2ZIR9F0FDMQGPG3LEN12CVN","","<img src=""img/set1/S1.jpg"" width=""540"" height = ""360"" style=""border:16px solid orange"">","null","","","","","","","","","",""
"null","","html-keyboard-response","222","165428","0.0-222.0","3FE2ERCCZYUZ5PDEHLLJUUMZY22PO1","A2QX3YJXAAHHVV","3DZKABX2ZIR9F0FDMQGPG3LEN12CVN","","","null","","","","","","","","","",""
"761.6999999880791","","image-keyboard-response","223","166191","0.0-223.0","3FE2ERCCZYUZ5PDEHLLJUUMZY22PO1","A2QX3YJXAAHHVV","3DZKABX2ZIR9F0FDMQGPG3LEN12CVN","","img/set1/S4.jpg","74","4","structured_normal","74","structured_normal,structured_load,random,structured_incentive","2,3,3,4,2,1","2,4,3,1","true","","",""
"null","","html-keyboard-response","224","166549","0.0-224.0","3FE2ERCCZYUZ5PDEHLLJUUMZY22PO1","A2QX3YJXAAHHVV","3DZKABX2ZIR9F0FDMQGPG3LEN12CVN","","<img src=""img/set1/S4.jpg"" width=""540"" height = ""360"" style=""border:16px solid orange"">","null","","","","","","","","","",""
"null","","html-keyboard-response","225","166750","0.0-225.0","3FE2ERCCZYUZ5PDEHLLJUUMZY22PO1","A2QX3YJXAAHHVV","3DZKABX2ZIR9F0FDMQGPG3LEN12CVN","","","null","","","","","","","","","",""
"883.5","","image-keyboard-response","226","167635","0.0-226.0","3FE2ERCCZYUZ5PDEHLLJUUMZY22PO1","A2QX3YJXAAHHVV","3DZKABX2ZIR9F0FDMQGPG3LEN12CVN","","img/set1/S1.jpg","83","1","structured_normal","83","structured_normal,structured_load,random,structured_incentive","2,3,3,4,2,1","2,4,3,1","true","","",""
"null","","html-keyboard-response","227","167995","0.0-227.0","3FE2ERCCZYUZ5PDEHLLJUUMZY22PO1","A2QX3YJXAAHHVV","3DZKABX2ZIR9F0FDMQGPG3LEN12CVN","","<img src=""img/set1/S1.jpg"" width=""540"" height = ""360"" style=""border:16px solid orange"">","null","","","","","","","","","",""
"null","","html-keyboard-response","228","168198","0.0-228.0","3FE2ERCCZYUZ5PDEHLLJUUMZY22PO1","A2QX3YJXAAHHVV","3DZKABX2ZIR9F0FDMQGPG3LEN12CVN","","","null","","","","","","","","","",""
"451.5","","image-keyboard-response","229","168651","0.0-229.0","3FE2ERCCZYUZ5PDEHLLJUUMZY22PO1","A2QX3YJXAAHHVV","3DZKABX2ZIR9F0FDMQGPG3LEN12CVN","","img/set1/S4.jpg","74","4","structured_normal","74","structured_normal,structured_load,random,structured_incentive","2,3,3,4,2,1","2,4,3,1","true","","",""
"null","","html-keyboard-response","230","169010","0.0-230.0","3FE2ERCCZYUZ5PDEHLLJUUMZY22PO1","A2QX3YJXAAHHVV","3DZKABX2ZIR9F0FDMQGPG3LEN12CVN","","<img src=""img/set1/S4.jpg"" width=""540"" height = ""360"" style=""border:16px solid orange"">","null","","","","","","","","","",""
"null","","html-keyboard-response","231","169225","0.0-231.0","3FE2ERCCZYUZ5PDEHLLJUUMZY22PO1","A2QX3YJXAAHHVV","3DZKABX2ZIR9F0FDMQGPG3LEN12CVN","","","null","","","","","","","","","",""
"583.0999999940395","","image-keyboard-response","232","169810","0.0-232.0","3FE2ERCCZYUZ5PDEHLLJUUMZY22PO1","A2QX3YJXAAHHVV","3DZKABX2ZIR9F0FDMQGPG3LEN12CVN","","img/set1/S4.jpg","83","4","structured_normal","74","structured_normal,structured_load,random,structured_incentive","2,3,3,4,2,1","2,4,3,1","false","","",""
"null","","html-keyboard-response","233","170170","0.0-233.0","3FE2ERCCZYUZ5PDEHLLJUUMZY22PO1","A2QX3YJXAAHHVV","3DZKABX2ZIR9F0FDMQGPG3LEN12CVN","","<img src=""img/set1/S4.jpg"" width=""540"" height = ""360"">","null","","","","","","","","","",""
"null","","html-keyboard-response","234","170376","0.0-234.0","3FE2ERCCZYUZ5PDEHLLJUUMZY22PO1","A2QX3YJXAAHHVV","3DZKABX2ZIR9F0FDMQGPG3LEN12CVN","","","null","","","","","","","","","",""
"739.2000000029802","","image-keyboard-response","235","171116","0.0-235.0","3FE2ERCCZYUZ5PDEHLLJUUMZY22PO1","A2QX3YJXAAHHVV","3DZKABX2ZIR9F0FDMQGPG3LEN12CVN","","img/set1/S2.jpg","68","2","structured_normal","68","structured_normal,structured_load,random,structured_incentive","2,3,3,4,2,1","2,4,3,1","true","","",""
"null","","html-keyboard-response","236","171477","0.0-236.0","3FE2ERCCZYUZ5PDEHLLJUUMZY22PO1","A2QX3YJXAAHHVV","3DZKABX2ZIR9F0FDMQGPG3LEN12CVN","","<img src=""img/set1/S2.jpg"" width=""540"" height = ""360"" style=""border:16px solid orange"">","null","","","","","","","","","",""
"null","","html-keyboard-response","237","171678","0.0-237.0","3FE2ERCCZYUZ5PDEHLLJUUMZY22PO1","A2QX3YJXAAHHVV","3DZKABX2ZIR9F0FDMQGPG3LEN12CVN","","","null","","","","","","","","","",""
"544.2999999970198","","image-keyboard-response","238","172225","0.0-238.0","3FE2ERCCZYUZ5PDEHLLJUUMZY22PO1","A2QX3YJXAAHHVV","3DZKABX2ZIR9F0FDMQGPG3LEN12CVN","","img/set1/S3.jpg","72","3","structured_normal","72","structured_normal,structured_load,random,structured_incentive","2,3,3,4,2,1","2,4,3,1","true","","",""
"null","","html-keyboard-response","239","172580","0.0-239.0","3FE2ERCCZYUZ5PDEHLLJUUMZY22PO1","A2QX3YJXAAHHVV","3DZKABX2ZIR9F0FDMQGPG3LEN12CVN","","<img src=""img/set1/S3.jpg"" width=""540"" height = ""360"" style=""border:16px solid orange"">","null","","","","","","","","","",""
"null","","html-keyboard-response","240","172784","0.0-240.0","3FE2ERCCZYUZ5PDEHLLJUUMZY22PO1","A2QX3YJXAAHHVV","3DZKABX2ZIR9F0FDMQGPG3LEN12CVN","","","null","","","","","","","","","",""
"473.79999999701977","","image-keyboard-response","241","173259","0.0-241.0","3FE2ERCCZYUZ5PDEHLLJUUMZY22PO1","A2QX3YJXAAHHVV","3DZKABX2ZIR9F0FDMQGPG3LEN12CVN","","img/set1/S1.jpg","74","1","structured_normal","83","structured_normal,structured_load,random,structured_incentive","2,3,3,4,2,1","2,4,3,1","false","","",""
"null","","html-keyboard-response","242","173621","0.0-242.0","3FE2ERCCZYUZ5PDEHLLJUUMZY22PO1","A2QX3YJXAAHHVV","3DZKABX2ZIR9F0FDMQGPG3LEN12CVN","","<img src=""img/set1/S1.jpg"" width=""540"" height = ""360"">","null","","","","","","","","","",""
"null","","html-keyboard-response","243","173823","0.0-243.0","3FE2ERCCZYUZ5PDEHLLJUUMZY22PO1","A2QX3YJXAAHHVV","3DZKABX2ZIR9F0FDMQGPG3LEN12CVN","","","null","","","","","","","","","",""
"747.2000000029802","","image-keyboard-response","244","174572","0.0-244.0","3FE2ERCCZYUZ5PDEHLLJUUMZY22PO1","A2QX3YJXAAHHVV","3DZKABX2ZIR9F0FDMQGPG3LEN12CVN","","img/set1/S4.jpg","74","4","structured_normal","74","structured_normal,structured_load,random,structured_incentive","2,3,3,4,2,1","2,4,3,1","true","","",""
"null","","html-keyboard-response","245","174928","0.0-245.0","3FE2ERCCZYUZ5PDEHLLJUUMZY22PO1","A2QX3YJXAAHHVV","3DZKABX2ZIR9F0FDMQGPG3LEN12CVN","","<img src=""img/set1/S4.jpg"" width=""540"" height = ""360"" style=""border:16px solid orange"">","null","","","","","","","","","",""
"null","","html-keyboard-response","246","175131","0.0-246.0","3FE2ERCCZYUZ5PDEHLLJUUMZY22PO1","A2QX3YJXAAHHVV","3DZKABX2ZIR9F0FDMQGPG3LEN12CVN","","","null","","","","","","","","","",""
"722.3999999910593","","image-keyboard-response","247","175855","0.0-247.0","3FE2ERCCZYUZ5PDEHLLJUUMZY22PO1","A2QX3YJXAAHHVV","3DZKABX2ZIR9F0FDMQGPG3LEN12CVN","","img/set1/S4.jpg","83","4","structured_normal","74","structured_normal,structured_load,random,structured_incentive","2,3,3,4,2,1","2,4,3,1","false","","",""
"null","","html-keyboard-response","248","176220","0.0-248.0","3FE2ERCCZYUZ5PDEHLLJUUMZY22PO1","A2QX3YJXAAHHVV","3DZKABX2ZIR9F0FDMQGPG3LEN12CVN","","<img src=""img/set1/S4.jpg"" width=""540"" height = ""360"">","null","","","","","","","","","",""
"null","","html-keyboard-response","249","176423","0.0-249.0","3FE2ERCCZYUZ5PDEHLLJUUMZY22PO1","A2QX3YJXAAHHVV","3DZKABX2ZIR9F0FDMQGPG3LEN12CVN","","","null","","","","","","","","","",""
"549.5","","image-keyboard-response","250","176974","0.0-250.0","3FE2ERCCZYUZ5PDEHLLJUUMZY22PO1","A2QX3YJXAAHHVV","3DZKABX2ZIR9F0FDMQGPG3LEN12CVN","","img/set1/S4.jpg","74","4","structured_normal","74","structured_normal,structured_load,random,structured_incentive","2,3,3,4,2,1","2,4,3,1","true","","",""
"null","","html-keyboard-response","251","177339","0.0-251.0","3FE2ERCCZYUZ5PDEHLLJUUMZY22PO1","A2QX3YJXAAHHVV","3DZKABX2ZIR9F0FDMQGPG3LEN12CVN","","<img src=""img/set1/S4.jpg"" width=""540"" height = ""360"" style=""border:16px solid orange"">","null","","","","","","","","","",""
"null","","html-keyboard-response","252","177556","0.0-252.0","3FE2ERCCZYUZ5PDEHLLJUUMZY22PO1","A2QX3YJXAAHHVV","3DZKABX2ZIR9F0FDMQGPG3LEN12CVN","","","null","","","","","","","","","",""
"928.5","","image-keyboard-response","253","178486","0.0-253.0","3FE2ERCCZYUZ5PDEHLLJUUMZY22PO1","A2QX3YJXAAHHVV","3DZKABX2ZIR9F0FDMQGPG3LEN12CVN","","img/set1/S2.jpg","68","2","structured_normal","68","structured_normal,structured_load,random,structured_incentive","2,3,3,4,2,1","2,4,3,1","true","","",""
"null","","html-keyboard-response","254","178847","0.0-254.0","3FE2ERCCZYUZ5PDEHLLJUUMZY22PO1","A2QX3YJXAAHHVV","3DZKABX2ZIR9F0FDMQGPG3LEN12CVN","","<img src=""img/set1/S2.jpg"" width=""540"" height = ""360"" style=""border:16px solid orange"">","null","","","","","","","","","",""
"null","","html-keyboard-response","255","179062","0.0-255.0","3FE2ERCCZYUZ5PDEHLLJUUMZY22PO1","A2QX3YJXAAHHVV","3DZKABX2ZIR9F0FDMQGPG3LEN12CVN","","","null","","","","","","","","","",""
"595.2999999970198","","image-keyboard-response","256","179660","0.0-256.0","3FE2ERCCZYUZ5PDEHLLJUUMZY22PO1","A2QX3YJXAAHHVV","3DZKABX2ZIR9F0FDMQGPG3LEN12CVN","","img/set1/S3.jpg","72","3","structured_normal","72","structured_normal,structured_load,random,structured_incentive","2,3,3,4,2,1","2,4,3,1","true","","",""
"null","","html-keyboard-response","257","180024","0.0-257.0","3FE2ERCCZYUZ5PDEHLLJUUMZY22PO1","A2QX3YJXAAHHVV","3DZKABX2ZIR9F0FDMQGPG3LEN12CVN","","<img src=""img/set1/S3.jpg"" width=""540"" height = ""360"" style=""border:16px solid orange"">","null","","","","","","","","","",""
"null","","html-keyboard-response","258","180225","0.0-258.0","3FE2ERCCZYUZ5PDEHLLJUUMZY22PO1","A2QX3YJXAAHHVV","3DZKABX2ZIR9F0FDMQGPG3LEN12CVN","","","null","","","","","","","","","",""
"842","","image-keyboard-response","259","181069","0.0-259.0","3FE2ERCCZYUZ5PDEHLLJUUMZY22PO1","A2QX3YJXAAHHVV","3DZKABX2ZIR9F0FDMQGPG3LEN12CVN","","img/set1/S1.jpg","83","1","structured_normal","83","structured_normal,structured_load,random,structured_incentive","2,3,3,4,2,1","2,4,3,1","true","","",""
"null","","html-keyboard-response","260","181426","0.0-260.0","3FE2ERCCZYUZ5PDEHLLJUUMZY22PO1","A2QX3YJXAAHHVV","3DZKABX2ZIR9F0FDMQGPG3LEN12CVN","","<img src=""img/set1/S1.jpg"" width=""540"" height = ""360"" style=""border:16px solid orange"">","null","","","","","","","","","",""
"null","","html-keyboard-response","261","181627","0.0-261.0","3FE2ERCCZYUZ5PDEHLLJUUMZY22PO1","A2QX3YJXAAHHVV","3DZKABX2ZIR9F0FDMQGPG3LEN12CVN","","","null","","","","","","","","","",""
"717.5","","image-keyboard-response","262","182346","0.0-262.0","3FE2ERCCZYUZ5PDEHLLJUUMZY22PO1","A2QX3YJXAAHHVV","3DZKABX2ZIR9F0FDMQGPG3LEN12CVN","","img/set1/S4.jpg","74","4","structured_normal","74","structured_normal,structured_load,random,structured_incentive","2,3,3,4,2,1","2,4,3,1","true","","",""
"null","","html-keyboard-response","263","182699","0.0-263.0","3FE2ERCCZYUZ5PDEHLLJUUMZY22PO1","A2QX3YJXAAHHVV","3DZKABX2ZIR9F0FDMQGPG3LEN12CVN","","<img src=""img/set1/S4.jpg"" width=""540"" height = ""360"" style=""border:16px solid orange"">","null","","","","","","","","","",""
"null","","html-keyboard-response","264","182916","0.0-264.0","3FE2ERCCZYUZ5PDEHLLJUUMZY22PO1","A2QX3YJXAAHHVV","3DZKABX2ZIR9F0FDMQGPG3LEN12CVN","","","null","","","","","","","","","",""
"509.5","","image-keyboard-response","265","183427","0.0-265.0","3FE2ERCCZYUZ5PDEHLLJUUMZY22PO1","A2QX3YJXAAHHVV","3DZKABX2ZIR9F0FDMQGPG3LEN12CVN","","img/set1/S4.jpg","74","4","structured_normal","74","structured_normal,structured_load,random,structured_incentive","2,3,3,4,2,1","2,4,3,1","true","","",""
"null","","html-keyboard-response","266","183789","0.0-266.0","3FE2ERCCZYUZ5PDEHLLJUUMZY22PO1","A2QX3YJXAAHHVV","3DZKABX2ZIR9F0FDMQGPG3LEN12CVN","","<img src=""img/set1/S4.jpg"" width=""540"" height = ""360"" style=""border:16px solid orange"">","null","","","","","","","","","",""
"null","","html-keyboard-response","267","184006","0.0-267.0","3FE2ERCCZYUZ5PDEHLLJUUMZY22PO1","A2QX3YJXAAHHVV","3DZKABX2ZIR9F0FDMQGPG3LEN12CVN","","","null","","","","","","","","","",""
"760.2000000029802","","image-keyboard-response","268","184767","0.0-268.0","3FE2ERCCZYUZ5PDEHLLJUUMZY22PO1","A2QX3YJXAAHHVV","3DZKABX2ZIR9F0FDMQGPG3LEN12CVN","","img/set1/S1.jpg","83","1","structured_normal","83","structured_normal,structured_load,random,structured_incentive","2,3,3,4,2,1","2,4,3,1","true","","",""
"null","","html-keyboard-response","269","185124","0.0-269.0","3FE2ERCCZYUZ5PDEHLLJUUMZY22PO1","A2QX3YJXAAHHVV","3DZKABX2ZIR9F0FDMQGPG3LEN12CVN","","<img src=""img/set1/S1.jpg"" width=""540"" height = ""360"" style=""border:16px solid orange"">","null","","","","","","","","","",""
"null","","html-keyboard-response","270","185327","0.0-270.0","3FE2ERCCZYUZ5PDEHLLJUUMZY22PO1","A2QX3YJXAAHHVV","3DZKABX2ZIR9F0FDMQGPG3LEN12CVN","","","null","","","","","","","","","",""
"536","","image-keyboard-response","271","185865","0.0-271.0","3FE2ERCCZYUZ5PDEHLLJUUMZY22PO1","A2QX3YJXAAHHVV","3DZKABX2ZIR9F0FDMQGPG3LEN12CVN","","img/set1/S4.jpg","74","4","structured_normal","74","structured_normal,structured_load,random,structured_incentive","2,3,3,4,2,1","2,4,3,1","true","","",""
"null","","html-keyboard-response","272","186227","0.0-272.0","3FE2ERCCZYUZ5PDEHLLJUUMZY22PO1","A2QX3YJXAAHHVV","3DZKABX2ZIR9F0FDMQGPG3LEN12CVN","","<img src=""img/set1/S4.jpg"" width=""540"" height = ""360"" style=""border:16px solid orange"">","null","","","","","","","","","",""
"null","","html-keyboard-response","273","186429","0.0-273.0","3FE2ERCCZYUZ5PDEHLLJUUMZY22PO1","A2QX3YJXAAHHVV","3DZKABX2ZIR9F0FDMQGPG3LEN12CVN","","","null","","","","","","","","","",""
"685.3000000119209","","image-keyboard-response","274","187116","0.0-274.0","3FE2ERCCZYUZ5PDEHLLJUUMZY22PO1","A2QX3YJXAAHHVV","3DZKABX2ZIR9F0FDMQGPG3LEN12CVN","","img/set1/S2.jpg","68","2","structured_normal","68","structured_normal,structured_load,random,structured_incentive","2,3,3,4,2,1","2,4,3,1","true","","",""
"null","","html-keyboard-response","275","187470","0.0-275.0","3FE2ERCCZYUZ5PDEHLLJUUMZY22PO1","A2QX3YJXAAHHVV","3DZKABX2ZIR9F0FDMQGPG3LEN12CVN","","<img src=""img/set1/S2.jpg"" width=""540"" height = ""360"" style=""border:16px solid orange"">","null","","","","","","","","","",""
"null","","html-keyboard-response","276","187672","0.0-276.0","3FE2ERCCZYUZ5PDEHLLJUUMZY22PO1","A2QX3YJXAAHHVV","3DZKABX2ZIR9F0FDMQGPG3LEN12CVN","","","null","","","","","","","","","",""
"473.40000000596046","","image-keyboard-response","277","188147","0.0-277.0","3FE2ERCCZYUZ5PDEHLLJUUMZY22PO1","A2QX3YJXAAHHVV","3DZKABX2ZIR9F0FDMQGPG3LEN12CVN","","img/set1/S3.jpg","72","3","structured_normal","72","structured_normal,structured_load,random,structured_incentive","2,3,3,4,2,1","2,4,3,1","true","","",""
"null","","html-keyboard-response","278","188512","0.0-278.0","3FE2ERCCZYUZ5PDEHLLJUUMZY22PO1","A2QX3YJXAAHHVV","3DZKABX2ZIR9F0FDMQGPG3LEN12CVN","","<img src=""img/set1/S3.jpg"" width=""540"" height = ""360"" style=""border:16px solid orange"">","null","","","","","","","","","",""
"null","","html-keyboard-response","279","188728","0.0-279.0","3FE2ERCCZYUZ5PDEHLLJUUMZY22PO1","A2QX3YJXAAHHVV","3DZKABX2ZIR9F0FDMQGPG3LEN12CVN","","","null","","","","","","","","","",""
"540.8999999910593","","image-keyboard-response","280","189271","0.0-280.0","3FE2ERCCZYUZ5PDEHLLJUUMZY22PO1","A2QX3YJXAAHHVV","3DZKABX2ZIR9F0FDMQGPG3LEN12CVN","","img/set1/S2.jpg","68","2","structured_normal","68","structured_normal,structured_load,random,structured_incentive","2,3,3,4,2,1","2,4,3,1","true","","",""
"null","","html-keyboard-response","281","189632","0.0-281.0","3FE2ERCCZYUZ5PDEHLLJUUMZY22PO1","A2QX3YJXAAHHVV","3DZKABX2ZIR9F0FDMQGPG3LEN12CVN","","<img src=""img/set1/S2.jpg"" width=""540"" height = ""360"" style=""border:16px solid orange"">","null","","","","","","","","","",""
"null","","html-keyboard-response","282","189835","0.0-282.0","3FE2ERCCZYUZ5PDEHLLJUUMZY22PO1","A2QX3YJXAAHHVV","3DZKABX2ZIR9F0FDMQGPG3LEN12CVN","","","null","","","","","","","","","",""
"460.3999999910593","","image-keyboard-response","283","190297","0.0-283.0","3FE2ERCCZYUZ5PDEHLLJUUMZY22PO1","A2QX3YJXAAHHVV","3DZKABX2ZIR9F0FDMQGPG3LEN12CVN","","img/set1/S3.jpg","72","3","structured_normal","72","structured_normal,structured_load,random,structured_incentive","2,3,3,4,2,1","2,4,3,1","true","","",""
"null","","html-keyboard-response","284","190658","0.0-284.0","3FE2ERCCZYUZ5PDEHLLJUUMZY22PO1","A2QX3YJXAAHHVV","3DZKABX2ZIR9F0FDMQGPG3LEN12CVN","","<img src=""img/set1/S3.jpg"" width=""540"" height = ""360"" style=""border:16px solid orange"">","null","","","","","","","","","",""
"null","","html-keyboard-response","285","190875","0.0-285.0","3FE2ERCCZYUZ5PDEHLLJUUMZY22PO1","A2QX3YJXAAHHVV","3DZKABX2ZIR9F0FDMQGPG3LEN12CVN","","","null","","","","","","","","","",""
"495.70000000298023","","image-keyboard-response","286","191372","0.0-286.0","3FE2ERCCZYUZ5PDEHLLJUUMZY22PO1","A2QX3YJXAAHHVV","3DZKABX2ZIR9F0FDMQGPG3LEN12CVN","","img/set1/S4.jpg","68","4","structured_normal","74","structured_normal,structured_load,random,structured_incentive","2,3,3,4,2,1","2,4,3,1","false","","",""
"null","","html-keyboard-response","287","191726","0.0-287.0","3FE2ERCCZYUZ5PDEHLLJUUMZY22PO1","A2QX3YJXAAHHVV","3DZKABX2ZIR9F0FDMQGPG3LEN12CVN","","<img src=""img/set1/S4.jpg"" width=""540"" height = ""360"">","null","","","","","","","","","",""
"null","","html-keyboard-response","288","191942","0.0-288.0","3FE2ERCCZYUZ5PDEHLLJUUMZY22PO1","A2QX3YJXAAHHVV","3DZKABX2ZIR9F0FDMQGPG3LEN12CVN","","","null","","","","","","","","","",""
"460.19999998807907","","image-keyboard-response","289","192403","0.0-289.0","3FE2ERCCZYUZ5PDEHLLJUUMZY22PO1","A2QX3YJXAAHHVV","3DZKABX2ZIR9F0FDMQGPG3LEN12CVN","","img/set1/S4.jpg","74","4","structured_normal","74","structured_normal,structured_load,random,structured_incentive","2,3,3,4,2,1","2,4,3,1","true","","",""
"null","","html-keyboard-response","290","192768","0.0-290.0","3FE2ERCCZYUZ5PDEHLLJUUMZY22PO1","A2QX3YJXAAHHVV","3DZKABX2ZIR9F0FDMQGPG3LEN12CVN","","<img src=""img/set1/S4.jpg"" width=""540"" height = ""360"" style=""border:16px solid orange"">","null","","","","","","","","","",""
"null","","html-keyboard-response","291","192969","0.0-291.0","3FE2ERCCZYUZ5PDEHLLJUUMZY22PO1","A2QX3YJXAAHHVV","3DZKABX2ZIR9F0FDMQGPG3LEN12CVN","","","null","","","","","","","","","",""
"378.90000000596046","","image-keyboard-response","292","193350","0.0-292.0","3FE2ERCCZYUZ5PDEHLLJUUMZY22PO1","A2QX3YJXAAHHVV","3DZKABX2ZIR9F0FDMQGPG3LEN12CVN","","img/set1/S4.jpg","74","4","structured_normal","74","structured_normal,structured_load,random,structured_incentive","2,3,3,4,2,1","2,4,3,1","true","","",""
"null","","html-keyboard-response","293","193704","0.0-293.0","3FE2ERCCZYUZ5PDEHLLJUUMZY22PO1","A2QX3YJXAAHHVV","3DZKABX2ZIR9F0FDMQGPG3LEN12CVN","","<img src=""img/set1/S4.jpg"" width=""540"" height = ""360"" style=""border:16px solid orange"">","null","","","","","","","","","",""
"null","","html-keyboard-response","294","193919","0.0-294.0","3FE2ERCCZYUZ5PDEHLLJUUMZY22PO1","A2QX3YJXAAHHVV","3DZKABX2ZIR9F0FDMQGPG3LEN12CVN","","","null","","","","","","","","","",""
"696.2999999970198","","image-keyboard-response","295","194617","0.0-295.0","3FE2ERCCZYUZ5PDEHLLJUUMZY22PO1","A2QX3YJXAAHHVV","3DZKABX2ZIR9F0FDMQGPG3LEN12CVN","","img/set1/S1.jpg","83","1","structured_normal","83","structured_normal,structured_load,random,structured_incentive","2,3,3,4,2,1","2,4,3,1","true","","",""
"null","","html-keyboard-response","296","194974","0.0-296.0","3FE2ERCCZYUZ5PDEHLLJUUMZY22PO1","A2QX3YJXAAHHVV","3DZKABX2ZIR9F0FDMQGPG3LEN12CVN","","<img src=""img/set1/S1.jpg"" width=""540"" height = ""360"" style=""border:16px solid orange"">","null","","","","","","","","","",""
"null","","html-keyboard-response","297","195176","0.0-297.0","3FE2ERCCZYUZ5PDEHLLJUUMZY22PO1","A2QX3YJXAAHHVV","3DZKABX2ZIR9F0FDMQGPG3LEN12CVN","","","null","","","","","","","","","",""
"543.9000000059605","","image-keyboard-response","298","195722","0.0-298.0","3FE2ERCCZYUZ5PDEHLLJUUMZY22PO1","A2QX3YJXAAHHVV","3DZKABX2ZIR9F0FDMQGPG3LEN12CVN","","img/set1/S2.jpg","68","2","structured_normal","68","structured_normal,structured_load,random,structured_incentive","2,3,3,4,2,1","2,4,3,1","true","","",""
"null","","html-keyboard-response","299","196079","0.0-299.0","3FE2ERCCZYUZ5PDEHLLJUUMZY22PO1","A2QX3YJXAAHHVV","3DZKABX2ZIR9F0FDMQGPG3LEN12CVN","","<img src=""img/set1/S2.jpg"" width=""540"" height = ""360"" style=""border:16px solid orange"">","null","","","","","","","","","",""
"null","","html-keyboard-response","300","196296","0.0-300.0","3FE2ERCCZYUZ5PDEHLLJUUMZY22PO1","A2QX3YJXAAHHVV","3DZKABX2ZIR9F0FDMQGPG3LEN12CVN","","","null","","","","","","","","","",""
"491.29999999701977","","image-keyboard-response","301","196788","0.0-301.0","3FE2ERCCZYUZ5PDEHLLJUUMZY22PO1","A2QX3YJXAAHHVV","3DZKABX2ZIR9F0FDMQGPG3LEN12CVN","","img/set1/S3.jpg","72","3","structured_normal","72","structured_normal,structured_load,random,structured_incentive","2,3,3,4,2,1","2,4,3,1","true","","",""
"null","","html-keyboard-response","302","197151","0.0-302.0","3FE2ERCCZYUZ5PDEHLLJUUMZY22PO1","A2QX3YJXAAHHVV","3DZKABX2ZIR9F0FDMQGPG3LEN12CVN","","<img src=""img/set1/S3.jpg"" width=""540"" height = ""360"" style=""border:16px solid orange"">","null","","","","","","","","","",""
"null","","html-keyboard-response","303","197354","0.0-303.0","3FE2ERCCZYUZ5PDEHLLJUUMZY22PO1","A2QX3YJXAAHHVV","3DZKABX2ZIR9F0FDMQGPG3LEN12CVN","","","null","","","","","","","","","",""
"543","","image-keyboard-response","304","197898","0.0-304.0","3FE2ERCCZYUZ5PDEHLLJUUMZY22PO1","A2QX3YJXAAHHVV","3DZKABX2ZIR9F0FDMQGPG3LEN12CVN","","img/set1/S4.jpg","74","4","structured_normal","74","structured_normal,structured_load,random,structured_incentive","2,3,3,4,2,1","2,4,3,1","true","","",""
"null","","html-keyboard-response","305","198255","0.0-305.0","3FE2ERCCZYUZ5PDEHLLJUUMZY22PO1","A2QX3YJXAAHHVV","3DZKABX2ZIR9F0FDMQGPG3LEN12CVN","","<img src=""img/set1/S4.jpg"" width=""540"" height = ""360"" style=""border:16px solid orange"">","null","","","","","","","","","",""
"null","","html-keyboard-response","306","198457","0.0-306.0","3FE2ERCCZYUZ5PDEHLLJUUMZY22PO1","A2QX3YJXAAHHVV","3DZKABX2ZIR9F0FDMQGPG3LEN12CVN","","","null","","","","","","","","","",""
"671.9000000059605","","image-keyboard-response","307","199130","0.0-307.0","3FE2ERCCZYUZ5PDEHLLJUUMZY22PO1","A2QX3YJXAAHHVV","3DZKABX2ZIR9F0FDMQGPG3LEN12CVN","","img/set1/S1.jpg","83","1","structured_normal","83","structured_normal,structured_load,random,structured_incentive","2,3,3,4,2,1","2,4,3,1","true","","",""
"null","","html-keyboard-response","308","199485","0.0-308.0","3FE2ERCCZYUZ5PDEHLLJUUMZY22PO1","A2QX3YJXAAHHVV","3DZKABX2ZIR9F0FDMQGPG3LEN12CVN","","<img src=""img/set1/S1.jpg"" width=""540"" height = ""360"" style=""border:16px solid orange"">","null","","","","","","","","","",""
"null","","html-keyboard-response","309","199688","0.0-309.0","3FE2ERCCZYUZ5PDEHLLJUUMZY22PO1","A2QX3YJXAAHHVV","3DZKABX2ZIR9F0FDMQGPG3LEN12CVN","","","null","","","","","","","","","",""
"653.7999999970198","","image-keyboard-response","310","200343","0.0-310.0","3FE2ERCCZYUZ5PDEHLLJUUMZY22PO1","A2QX3YJXAAHHVV","3DZKABX2ZIR9F0FDMQGPG3LEN12CVN","","img/set1/S2.jpg","68","2","structured_normal","68","structured_normal,structured_load,random,structured_incentive","2,3,3,4,2,1","2,4,3,1","true","","",""
"null","","html-keyboard-response","311","200698","0.0-311.0","3FE2ERCCZYUZ5PDEHLLJUUMZY22PO1","A2QX3YJXAAHHVV","3DZKABX2ZIR9F0FDMQGPG3LEN12CVN","","<img src=""img/set1/S2.jpg"" width=""540"" height = ""360"" style=""border:16px solid orange"">","null","","","","","","","","","",""
"null","","html-keyboard-response","312","200900","0.0-312.0","3FE2ERCCZYUZ5PDEHLLJUUMZY22PO1","A2QX3YJXAAHHVV","3DZKABX2ZIR9F0FDMQGPG3LEN12CVN","","","null","","","","","","","","","",""
"353.70000000298023","","image-keyboard-response","313","201255","0.0-313.0","3FE2ERCCZYUZ5PDEHLLJUUMZY22PO1","A2QX3YJXAAHHVV","3DZKABX2ZIR9F0FDMQGPG3LEN12CVN","","img/set1/S3.jpg","72","3","structured_normal","72","structured_normal,structured_load,random,structured_incentive","2,3,3,4,2,1","2,4,3,1","true","","",""
"null","","html-keyboard-response","314","201616","0.0-314.0","3FE2ERCCZYUZ5PDEHLLJUUMZY22PO1","A2QX3YJXAAHHVV","3DZKABX2ZIR9F0FDMQGPG3LEN12CVN","","<img src=""img/set1/S3.jpg"" width=""540"" height = ""360"" style=""border:16px solid orange"">","null","","","","","","","","","",""
"null","","html-keyboard-response","315","201818","0.0-315.0","3FE2ERCCZYUZ5PDEHLLJUUMZY22PO1","A2QX3YJXAAHHVV","3DZKABX2ZIR9F0FDMQGPG3LEN12CVN","","","null","","","","","","","","","",""
"741.2000000029802","","image-keyboard-response","316","202561","0.0-316.0","3FE2ERCCZYUZ5PDEHLLJUUMZY22PO1","A2QX3YJXAAHHVV","3DZKABX2ZIR9F0FDMQGPG3LEN12CVN","","img/set1/S1.jpg","83","1","structured_normal","83","structured_normal,structured_load,random,structured_incentive","2,3,3,4,2,1","2,4,3,1","true","","",""
"null","","html-keyboard-response","317","202925","0.0-317.0","3FE2ERCCZYUZ5PDEHLLJUUMZY22PO1","A2QX3YJXAAHHVV","3DZKABX2ZIR9F0FDMQGPG3LEN12CVN","","<img src=""img/set1/S1.jpg"" width=""540"" height = ""360"" style=""border:16px solid orange"">","null","","","","","","","","","",""
"null","","html-keyboard-response","318","203127","0.0-318.0","3FE2ERCCZYUZ5PDEHLLJUUMZY22PO1","A2QX3YJXAAHHVV","3DZKABX2ZIR9F0FDMQGPG3LEN12CVN","","","null","","","","","","","","","",""
"452.59999999403954","","image-keyboard-response","319","203580","0.0-319.0","3FE2ERCCZYUZ5PDEHLLJUUMZY22PO1","A2QX3YJXAAHHVV","3DZKABX2ZIR9F0FDMQGPG3LEN12CVN","","img/set1/S1.jpg","83","1","structured_normal","83","structured_normal,structured_load,random,structured_incentive","2,3,3,4,2,1","2,4,3,1","true","","",""
"null","","html-keyboard-response","320","203937","0.0-320.0","3FE2ERCCZYUZ5PDEHLLJUUMZY22PO1","A2QX3YJXAAHHVV","3DZKABX2ZIR9F0FDMQGPG3LEN12CVN","","<img src=""img/set1/S1.jpg"" width=""540"" height = ""360"" style=""border:16px solid orange"">","null","","","","","","","","","",""
"null","","html-keyboard-response","321","204138","0.0-321.0","3FE2ERCCZYUZ5PDEHLLJUUMZY22PO1","A2QX3YJXAAHHVV","3DZKABX2ZIR9F0FDMQGPG3LEN12CVN","","","null","","","","","","","","","",""
"426.59999999403954","","image-keyboard-response","322","204566","0.0-322.0","3FE2ERCCZYUZ5PDEHLLJUUMZY22PO1","A2QX3YJXAAHHVV","3DZKABX2ZIR9F0FDMQGPG3LEN12CVN","","img/set1/S1.jpg","83","1","structured_normal","83","structured_normal,structured_load,random,structured_incentive","2,3,3,4,2,1","2,4,3,1","true","","",""
"null","","html-keyboard-response","323","204932","0.0-323.0","3FE2ERCCZYUZ5PDEHLLJUUMZY22PO1","A2QX3YJXAAHHVV","3DZKABX2ZIR9F0FDMQGPG3LEN12CVN","","<img src=""img/set1/S1.jpg"" width=""540"" height = ""360"" style=""border:16px solid orange"">","null","","","","","","","","","",""
"null","","html-keyboard-response","324","205133","0.0-324.0","3FE2ERCCZYUZ5PDEHLLJUUMZY22PO1","A2QX3YJXAAHHVV","3DZKABX2ZIR9F0FDMQGPG3LEN12CVN","","","null","","","","","","","","","",""
"574.7000000029802","","image-keyboard-response","325","205709","0.0-325.0","3FE2ERCCZYUZ5PDEHLLJUUMZY22PO1","A2QX3YJXAAHHVV","3DZKABX2ZIR9F0FDMQGPG3LEN12CVN","","img/set1/S2.jpg","68","2","structured_normal","68","structured_normal,structured_load,random,structured_incentive","2,3,3,4,2,1","2,4,3,1","true","","",""
"null","","html-keyboard-response","326","206066","0.0-326.0","3FE2ERCCZYUZ5PDEHLLJUUMZY22PO1","A2QX3YJXAAHHVV","3DZKABX2ZIR9F0FDMQGPG3LEN12CVN","","<img src=""img/set1/S2.jpg"" width=""540"" height = ""360"" style=""border:16px solid orange"">","null","","","","","","","","","",""
"null","","html-keyboard-response","327","206282","0.0-327.0","3FE2ERCCZYUZ5PDEHLLJUUMZY22PO1","A2QX3YJXAAHHVV","3DZKABX2ZIR9F0FDMQGPG3LEN12CVN","","","null","","","","","","","","","",""
"578.5","","image-keyboard-response","328","206862","0.0-328.0","3FE2ERCCZYUZ5PDEHLLJUUMZY22PO1","A2QX3YJXAAHHVV","3DZKABX2ZIR9F0FDMQGPG3LEN12CVN","","img/set1/S3.jpg","72","3","structured_normal","72","structured_normal,structured_load,random,structured_incentive","2,3,3,4,2,1","2,4,3,1","true","","",""
"null","","html-keyboard-response","329","207216","0.0-329.0","3FE2ERCCZYUZ5PDEHLLJUUMZY22PO1","A2QX3YJXAAHHVV","3DZKABX2ZIR9F0FDMQGPG3LEN12CVN","","<img src=""img/set1/S3.jpg"" width=""540"" height = ""360"" style=""border:16px solid orange"">","null","","","","","","","","","",""
"null","","html-keyboard-response","330","207432","0.0-330.0","3FE2ERCCZYUZ5PDEHLLJUUMZY22PO1","A2QX3YJXAAHHVV","3DZKABX2ZIR9F0FDMQGPG3LEN12CVN","","","null","","","","","","","","","",""
"724.7000000029802","","image-keyboard-response","331","208158","0.0-331.0","3FE2ERCCZYUZ5PDEHLLJUUMZY22PO1","A2QX3YJXAAHHVV","3DZKABX2ZIR9F0FDMQGPG3LEN12CVN","","img/set1/S1.jpg","83","1","structured_normal","83","structured_normal,structured_load,random,structured_incentive","2,3,3,4,2,1","2,4,3,1","true","","",""
"null","","html-keyboard-response","332","208521","0.0-332.0","3FE2ERCCZYUZ5PDEHLLJUUMZY22PO1","A2QX3YJXAAHHVV","3DZKABX2ZIR9F0FDMQGPG3LEN12CVN","","<img src=""img/set1/S1.jpg"" width=""540"" height = ""360"" style=""border:16px solid orange"">","null","","","","","","","","","",""
"null","","html-keyboard-response","333","208723","0.0-333.0","3FE2ERCCZYUZ5PDEHLLJUUMZY22PO1","A2QX3YJXAAHHVV","3DZKABX2ZIR9F0FDMQGPG3LEN12CVN","","","null","","","","","","","","","",""
"694.1000000089407","","image-keyboard-response","334","209418","0.0-334.0","3FE2ERCCZYUZ5PDEHLLJUUMZY22PO1","A2QX3YJXAAHHVV","3DZKABX2ZIR9F0FDMQGPG3LEN12CVN","","img/set1/S4.jpg","74","4","structured_normal","74","structured_normal,structured_load,random,structured_incentive","2,3,3,4,2,1","2,4,3,1","true","","",""
"null","","html-keyboard-response","335","209781","0.0-335.0","3FE2ERCCZYUZ5PDEHLLJUUMZY22PO1","A2QX3YJXAAHHVV","3DZKABX2ZIR9F0FDMQGPG3LEN12CVN","","<img src=""img/set1/S4.jpg"" width=""540"" height = ""360"" style=""border:16px solid orange"">","null","","","","","","","","","",""
"null","","html-keyboard-response","336","209984","0.0-336.0","3FE2ERCCZYUZ5PDEHLLJUUMZY22PO1","A2QX3YJXAAHHVV","3DZKABX2ZIR9F0FDMQGPG3LEN12CVN","","","null","","","","","","","","","",""
"623.2999999970198","","image-keyboard-response","337","210608","0.0-337.0","3FE2ERCCZYUZ5PDEHLLJUUMZY22PO1","A2QX3YJXAAHHVV","3DZKABX2ZIR9F0FDMQGPG3LEN12CVN","","img/set1/S2.jpg","68","2","structured_normal","68","structured_normal,structured_load,random,structured_incentive","2,3,3,4,2,1","2,4,3,1","true","","",""
"null","","html-keyboard-response","338","210965","0.0-338.0","3FE2ERCCZYUZ5PDEHLLJUUMZY22PO1","A2QX3YJXAAHHVV","3DZKABX2ZIR9F0FDMQGPG3LEN12CVN","","<img src=""img/set1/S2.jpg"" width=""540"" height = ""360"" style=""border:16px solid orange"">","null","","","","","","","","","",""
"null","","html-keyboard-response","339","211167","0.0-339.0","3FE2ERCCZYUZ5PDEHLLJUUMZY22PO1","A2QX3YJXAAHHVV","3DZKABX2ZIR9F0FDMQGPG3LEN12CVN","","","null","","","","","","","","","",""
"606.9000000059605","","image-keyboard-response","340","211775","0.0-340.0","3FE2ERCCZYUZ5PDEHLLJUUMZY22PO1","A2QX3YJXAAHHVV","3DZKABX2ZIR9F0FDMQGPG3LEN12CVN","","img/set1/S3.jpg","72","3","structured_normal","72","structured_normal,structured_load,random,structured_incentive","2,3,3,4,2,1","2,4,3,1","true","","",""
"null","","html-keyboard-response","341","212129","0.0-341.0","3FE2ERCCZYUZ5PDEHLLJUUMZY22PO1","A2QX3YJXAAHHVV","3DZKABX2ZIR9F0FDMQGPG3LEN12CVN","","<img src=""img/set1/S3.jpg"" width=""540"" height = ""360"" style=""border:16px solid orange"">","null","","","","","","","","","",""
"null","","html-keyboard-response","342","212331","0.0-342.0","3FE2ERCCZYUZ5PDEHLLJUUMZY22PO1","A2QX3YJXAAHHVV","3DZKABX2ZIR9F0FDMQGPG3LEN12CVN","","","null","","","","","","","","","",""
"722.2999999970198","","image-keyboard-response","343","213055","0.0-343.0","3FE2ERCCZYUZ5PDEHLLJUUMZY22PO1","A2QX3YJXAAHHVV","3DZKABX2ZIR9F0FDMQGPG3LEN12CVN","","img/set1/S4.jpg","74","4","structured_normal","74","structured_normal,structured_load,random,structured_incentive","2,3,3,4,2,1","2,4,3,1","true","","",""
"null","","html-keyboard-response","344","213407","0.0-344.0","3FE2ERCCZYUZ5PDEHLLJUUMZY22PO1","A2QX3YJXAAHHVV","3DZKABX2ZIR9F0FDMQGPG3LEN12CVN","","<img src=""img/set1/S4.jpg"" width=""540"" height = ""360"" style=""border:16px solid orange"">","null","","","","","","","","","",""
"null","","html-keyboard-response","345","213609","0.0-345.0","3FE2ERCCZYUZ5PDEHLLJUUMZY22PO1","A2QX3YJXAAHHVV","3DZKABX2ZIR9F0FDMQGPG3LEN12CVN","","","null","","","","","","","","","",""
"597.5","","image-keyboard-response","346","214208","0.0-346.0","3FE2ERCCZYUZ5PDEHLLJUUMZY22PO1","A2QX3YJXAAHHVV","3DZKABX2ZIR9F0FDMQGPG3LEN12CVN","","img/set1/S4.jpg","74","4","structured_normal","74","structured_normal,structured_load,random,structured_incentive","2,3,3,4,2,1","2,4,3,1","true","","",""
"null","","html-keyboard-response","347","214574","0.0-347.0","3FE2ERCCZYUZ5PDEHLLJUUMZY22PO1","A2QX3YJXAAHHVV","3DZKABX2ZIR9F0FDMQGPG3LEN12CVN","","<img src=""img/set1/S4.jpg"" width=""540"" height = ""360"" style=""border:16px solid orange"">","null","","","","","","","","","",""
"null","","html-keyboard-response","348","214788","0.0-348.0","3FE2ERCCZYUZ5PDEHLLJUUMZY22PO1","A2QX3YJXAAHHVV","3DZKABX2ZIR9F0FDMQGPG3LEN12CVN","","","null","","","","","","","","","",""
"362.29999999701977","","image-keyboard-response","349","215152","0.0-349.0","3FE2ERCCZYUZ5PDEHLLJUUMZY22PO1","A2QX3YJXAAHHVV","3DZKABX2ZIR9F0FDMQGPG3LEN12CVN","","img/set1/S4.jpg","74","4","structured_normal","74","structured_normal,structured_load,random,structured_incentive","2,3,3,4,2,1","2,4,3,1","true","","",""
"null","","html-keyboard-response","350","215517","0.0-350.0","3FE2ERCCZYUZ5PDEHLLJUUMZY22PO1","A2QX3YJXAAHHVV","3DZKABX2ZIR9F0FDMQGPG3LEN12CVN","","<img src=""img/set1/S4.jpg"" width=""540"" height = ""360"" style=""border:16px solid orange"">","null","","","","","","","","","",""
"null","","html-keyboard-response","351","215734","0.0-351.0","3FE2ERCCZYUZ5PDEHLLJUUMZY22PO1","A2QX3YJXAAHHVV","3DZKABX2ZIR9F0FDMQGPG3LEN12CVN","","","null","","","","","","","","","",""
"626.8999999910593","","image-keyboard-response","352","216362","0.0-352.0","3FE2ERCCZYUZ5PDEHLLJUUMZY22PO1","A2QX3YJXAAHHVV","3DZKABX2ZIR9F0FDMQGPG3LEN12CVN","","img/set1/S1.jpg","83","1","structured_normal","83","structured_normal,structured_load,random,structured_incentive","2,3,3,4,2,1","2,4,3,1","true","","",""
"null","","html-keyboard-response","353","216727","0.0-353.0","3FE2ERCCZYUZ5PDEHLLJUUMZY22PO1","A2QX3YJXAAHHVV","3DZKABX2ZIR9F0FDMQGPG3LEN12CVN","","<img src=""img/set1/S1.jpg"" width=""540"" height = ""360"" style=""border:16px solid orange"">","null","","","","","","","","","",""
"null","","html-keyboard-response","354","216929","0.0-354.0","3FE2ERCCZYUZ5PDEHLLJUUMZY22PO1","A2QX3YJXAAHHVV","3DZKABX2ZIR9F0FDMQGPG3LEN12CVN","","","null","","","","","","","","","",""
"407.30000001192093","","image-keyboard-response","355","217337","0.0-355.0","3FE2ERCCZYUZ5PDEHLLJUUMZY22PO1","A2QX3YJXAAHHVV","3DZKABX2ZIR9F0FDMQGPG3LEN12CVN","","img/set1/S1.jpg","83","1","structured_normal","83","structured_normal,structured_load,random,structured_incentive","2,3,3,4,2,1","2,4,3,1","true","","",""
"null","","html-keyboard-response","356","217692","0.0-356.0","3FE2ERCCZYUZ5PDEHLLJUUMZY22PO1","A2QX3YJXAAHHVV","3DZKABX2ZIR9F0FDMQGPG3LEN12CVN","","<img src=""img/set1/S1.jpg"" width=""540"" height = ""360"" style=""border:16px solid orange"">","null","","","","","","","","","",""
"null","","html-keyboard-response","357","217906","0.0-357.0","3FE2ERCCZYUZ5PDEHLLJUUMZY22PO1","A2QX3YJXAAHHVV","3DZKABX2ZIR9F0FDMQGPG3LEN12CVN","","","null","","","","","","","","","",""
"599.4000000059605","","image-keyboard-response","358","218507","0.0-358.0","3FE2ERCCZYUZ5PDEHLLJUUMZY22PO1","A2QX3YJXAAHHVV","3DZKABX2ZIR9F0FDMQGPG3LEN12CVN","","img/set1/S2.jpg","68","2","structured_normal","68","structured_normal,structured_load,random,structured_incentive","2,3,3,4,2,1","2,4,3,1","true","","",""
"null","","html-keyboard-response","359","218873","0.0-359.0","3FE2ERCCZYUZ5PDEHLLJUUMZY22PO1","A2QX3YJXAAHHVV","3DZKABX2ZIR9F0FDMQGPG3LEN12CVN","","<img src=""img/set1/S2.jpg"" width=""540"" height = ""360"" style=""border:16px solid orange"">","null","","","","","","","","","",""
"null","","html-keyboard-response","360","219074","0.0-360.0","3FE2ERCCZYUZ5PDEHLLJUUMZY22PO1","A2QX3YJXAAHHVV","3DZKABX2ZIR9F0FDMQGPG3LEN12CVN","","","null","","","","","","","","","",""
"642.4000000059605","","image-keyboard-response","361","219718","0.0-361.0","3FE2ERCCZYUZ5PDEHLLJUUMZY22PO1","A2QX3YJXAAHHVV","3DZKABX2ZIR9F0FDMQGPG3LEN12CVN","","img/set1/S3.jpg","72","3","structured_normal","72","structured_normal,structured_load,random,structured_incentive","2,3,3,4,2,1","2,4,3,1","true","","",""
"null","","html-keyboard-response","362","220084","0.0-362.0","3FE2ERCCZYUZ5PDEHLLJUUMZY22PO1","A2QX3YJXAAHHVV","3DZKABX2ZIR9F0FDMQGPG3LEN12CVN","","<img src=""img/set1/S3.jpg"" width=""540"" height = ""360"" style=""border:16px solid orange"">","null","","","","","","","","","",""
"null","","html-keyboard-response","363","220301","0.0-363.0","3FE2ERCCZYUZ5PDEHLLJUUMZY22PO1","A2QX3YJXAAHHVV","3DZKABX2ZIR9F0FDMQGPG3LEN12CVN","","","null","","","","","","","","","",""
"6500.5999999940395","","html-keyboard-response","364","226803","0.0-364.0","3FE2ERCCZYUZ5PDEHLLJUUMZY22PO1","A2QX3YJXAAHHVV","3DZKABX2ZIR9F0FDMQGPG3LEN12CVN","","<p class=""center-content"">You have completed a block! </p><p class=""center-content"">Press any key on the keyboard to continue, </p><p class=""center-content"">or wait for the automatic progression to the next block after one minute.</p>","32","","","","","","","","","",""
"4443.4000000059605","","instructions","365","231247","0.0-365.0","3FE2ERCCZYUZ5PDEHLLJUUMZY22PO1","A2QX3YJXAAHHVV","3DZKABX2ZIR9F0FDMQGPG3LEN12CVN","[{""page_index"":0,""viewing_time"":4442.800000011921}]","","","","","","","","","","","",""
"27578.30000001192","","instructions","366","258826","0.0-366.0","3FE2ERCCZYUZ5PDEHLLJUUMZY22PO1","A2QX3YJXAAHHVV","3DZKABX2ZIR9F0FDMQGPG3LEN12CVN","[{""page_index"":0,""viewing_time"":22950},{""page_index"":1,""viewing_time"":4627.70000000298}]","","","","","","","","","","","",""
"489","","image-keyboard-response","367","259317","0.0-367.0","3FE2ERCCZYUZ5PDEHLLJUUMZY22PO1","A2QX3YJXAAHHVV","3DZKABX2ZIR9F0FDMQGPG3LEN12CVN","","img/set2/S1.jpg","83","1","structured_load","83","structured_normal,structured_load,random,structured_incentive","2,3,3,4,2,1","2,4,3,1","true","","",""
"null","","html-keyboard-response","368","259676","0.0-368.0","3FE2ERCCZYUZ5PDEHLLJUUMZY22PO1","A2QX3YJXAAHHVV","3DZKABX2ZIR9F0FDMQGPG3LEN12CVN","","<img src=""img/set2/S1.jpg"" width=""540"" height = ""360"" style=""border:16px solid orange"">","null","","","","","","","","","",""
"null","","html-keyboard-response","369","259892","0.0-369.0","3FE2ERCCZYUZ5PDEHLLJUUMZY22PO1","A2QX3YJXAAHHVV","3DZKABX2ZIR9F0FDMQGPG3LEN12CVN","","","null","","","","","","","","","",""
"736","","image-keyboard-response","370","260629","0.0-370.0","3FE2ERCCZYUZ5PDEHLLJUUMZY22PO1","A2QX3YJXAAHHVV","3DZKABX2ZIR9F0FDMQGPG3LEN12CVN","","img/set2/S2.jpg","68","2","structured_load","68","structured_normal,structured_load,random,structured_incentive","2,3,3,4,2,1","2,4,3,1","true","","",""
"null","","html-keyboard-response","371","260996","0.0-371.0","3FE2ERCCZYUZ5PDEHLLJUUMZY22PO1","A2QX3YJXAAHHVV","3DZKABX2ZIR9F0FDMQGPG3LEN12CVN","","<img src=""img/set2/S2.jpg"" width=""540"" height = ""360"" style=""border:16px solid orange"">","null","","","","","","","","","",""
"null","","html-keyboard-response","372","261198","0.0-372.0","3FE2ERCCZYUZ5PDEHLLJUUMZY22PO1","A2QX3YJXAAHHVV","3DZKABX2ZIR9F0FDMQGPG3LEN12CVN","","","null","","","","","","","","","",""
"641.5999999940395","","image-keyboard-response","373","261841","0.0-373.0","3FE2ERCCZYUZ5PDEHLLJUUMZY22PO1","A2QX3YJXAAHHVV","3DZKABX2ZIR9F0FDMQGPG3LEN12CVN","","img/set2/S2.jpg","68","2","structured_load","68","structured_normal,structured_load,random,structured_incentive","2,3,3,4,2,1","2,4,3,1","true","","",""
"null","","html-keyboard-response","374","262208","0.0-374.0","3FE2ERCCZYUZ5PDEHLLJUUMZY22PO1","A2QX3YJXAAHHVV","3DZKABX2ZIR9F0FDMQGPG3LEN12CVN","","<img src=""img/set2/S2.jpg"" width=""540"" height = ""360"" style=""border:16px solid orange"">","null","","","","","","","","","",""
"null","","html-keyboard-response","375","262409","0.0-375.0","3FE2ERCCZYUZ5PDEHLLJUUMZY22PO1","A2QX3YJXAAHHVV","3DZKABX2ZIR9F0FDMQGPG3LEN12CVN","","","null","","","","","","","","","",""
"922.4000000059605","","image-keyboard-response","376","263333","0.0-376.0","3FE2ERCCZYUZ5PDEHLLJUUMZY22PO1","A2QX3YJXAAHHVV","3DZKABX2ZIR9F0FDMQGPG3LEN12CVN","","img/set2/S1.jpg","83","1","structured_load","83","structured_normal,structured_load,random,structured_incentive","2,3,3,4,2,1","2,4,3,1","true","","",""
"null","","html-keyboard-response","377","263687","0.0-377.0","3FE2ERCCZYUZ5PDEHLLJUUMZY22PO1","A2QX3YJXAAHHVV","3DZKABX2ZIR9F0FDMQGPG3LEN12CVN","","<img src=""img/set2/S1.jpg"" width=""540"" height = ""360"" style=""border:16px solid orange"">","null","","","","","","","","","",""
"null","","html-keyboard-response","378","263891","0.0-378.0","3FE2ERCCZYUZ5PDEHLLJUUMZY22PO1","A2QX3YJXAAHHVV","3DZKABX2ZIR9F0FDMQGPG3LEN12CVN","","","null","","","","","","","","","",""
"464.70000000298023","","image-keyboard-response","379","264357","0.0-379.0","3FE2ERCCZYUZ5PDEHLLJUUMZY22PO1","A2QX3YJXAAHHVV","3DZKABX2ZIR9F0FDMQGPG3LEN12CVN","","img/set2/S2.jpg","68","2","structured_load","68","structured_normal,structured_load,random,structured_incentive","2,3,3,4,2,1","2,4,3,1","true","","",""
"null","","html-keyboard-response","380","264715","0.0-380.0","3FE2ERCCZYUZ5PDEHLLJUUMZY22PO1","A2QX3YJXAAHHVV","3DZKABX2ZIR9F0FDMQGPG3LEN12CVN","","<img src=""img/set2/S2.jpg"" width=""540"" height = ""360"" style=""border:16px solid orange"">","null","","","","","","","","","",""
"null","","html-keyboard-response","381","264918","0.0-381.0","3FE2ERCCZYUZ5PDEHLLJUUMZY22PO1","A2QX3YJXAAHHVV","3DZKABX2ZIR9F0FDMQGPG3LEN12CVN","","","null","","","","","","","","","",""
"660.8999999910593","","image-keyboard-response","382","265580","0.0-382.0","3FE2ERCCZYUZ5PDEHLLJUUMZY22PO1","A2QX3YJXAAHHVV","3DZKABX2ZIR9F0FDMQGPG3LEN12CVN","","img/set2/S3.jpg","72","3","structured_load","72","structured_normal,structured_load,random,structured_incentive","2,3,3,4,2,1","2,4,3,1","true","","",""
"null","","html-keyboard-response","383","265940","0.0-383.0","3FE2ERCCZYUZ5PDEHLLJUUMZY22PO1","A2QX3YJXAAHHVV","3DZKABX2ZIR9F0FDMQGPG3LEN12CVN","","<img src=""img/set2/S3.jpg"" width=""540"" height = ""360"" style=""border:16px solid orange"">","null","","","","","","","","","",""
