"rt","url","trial_type","trial_index","time_elapsed","internal_node_id","view_history","stimulus","key_press","state","test_part","correct_response","order_block","order_chunk","correct","responses","bonus"
"43370.10000002384","consent.html","external-html","0","43494","0.0-0.0","","","","","","","","","","",""
"147682.09999996424","","instructions","1","191173","0.0-1.0","[{""page_index"":0,""viewing_time"":9521.399999976158},{""page_index"":1,""viewing_time"":9800.399999976158},{""page_index"":2,""viewing_time"":13982.800000011921},{""page_index"":3,""viewing_time"":16678.600000023842},{""page_index"":4,""viewing_time"":14768},{""page_index"":5,""viewing_time"":65930.09999996424},{""page_index"":6,""viewing_time"":16999.900000035763}]","","","","","","","","","",""
"69633.09999996424","","instructions","2","260805","0.0-2.0","[{""page_index"":0,""viewing_time"":69632.80000001192}]","","","","","","","","","",""
"20827","","instructions","3","281632","0.0-3.0","[{""page_index"":0,""viewing_time"":20826.80000001192}]","","","","","","","","","",""
"null","","image-keyboard-response","4","284136","0.0-4.0","","img/set1/S1.jpg","null","1","random","83","random,structured_normal,structured_load,structured_incentive","3,4,2,3,2,1","false","",""
"null","","html-keyboard-response","5","284494","0.0-5.0","","<img src=""img/set1/S1.jpg"" width=""540"" height = ""360"">","null","","","","","","","",""
"null","","html-keyboard-response","6","284696","0.0-6.0","","","null","","","","","","","",""
"635.5","","image-keyboard-response","7","285333","0.0-7.0","","img/set1/S1.jpg","72","1","random","83","random,structured_normal,structured_load,structured_incentive","3,4,2,3,2,1","false","",""
"null","","html-keyboard-response","8","285685","0.0-8.0","","<img src=""img/set1/S1.jpg"" width=""540"" height = ""360"">","null","","","","","","","",""
"null","","html-keyboard-response","9","285889","0.0-9.0","","","null","","","","","","","",""
"1015.0999999642372","","image-keyboard-response","10","286906","0.0-10.0","","img/set1/S3.jpg","83","3","random","72","random,structured_normal,structured_load,structured_incentive","3,4,2,3,2,1","false","",""
"null","","html-keyboard-response","11","287261","0.0-11.0","","<img src=""img/set1/S3.jpg"" width=""540"" height = ""360"">","null","","","","","","","",""
"null","","html-keyboard-response","12","287467","0.0-12.0","","","null","","","","","","","",""
"1222.699999988079","","image-keyboard-response","13","288691","0.0-13.0","","img/set1/S2.jpg","83","2","random","68","random,structured_normal,structured_load,structured_incentive","3,4,2,3,2,1","false","",""
"null","","html-keyboard-response","14","289043","0.0-14.0","","<img src=""img/set1/S2.jpg"" width=""540"" height = ""360"">","null","","","","","","","",""
"null","","html-keyboard-response","15","289244","0.0-15.0","","","null","","","","","","","",""
"1133.800000011921","","image-keyboard-response","16","290379","0.0-16.0","","img/set1/S4.jpg","83","4","random","74","random,structured_normal,structured_load,structured_incentive","3,4,2,3,2,1","false","",""
"null","","html-keyboard-response","17","290733","0.0-17.0","","<img src=""img/set1/S4.jpg"" width=""540"" height = ""360"">","null","","","","","","","",""
"null","","html-keyboard-response","18","290939","0.0-18.0","","","null","","","","","","","",""
"1238.2999999523163","","image-keyboard-response","19","292179","0.0-19.0","","img/set1/S1.jpg","83","1","random","83","random,structured_normal,structured_load,structured_incentive","3,4,2,3,2,1","true","",""
"null","","html-keyboard-response","20","292535","0.0-20.0","","<img src=""img/set1/S1.jpg"" width=""540"" height = ""360"" style=""border:16px solid orange"">","null","","","","","","","",""
"null","","html-keyboard-response","21","292737","0.0-21.0","","","null","","","","","","","",""
"null","","image-keyboard-response","22","295243","0.0-22.0","","img/set1/S2.jpg","null","2","random","68","random,structured_normal,structured_load,structured_incentive","3,4,2,3,2,1","false","",""
"null","","html-keyboard-response","23","295599","0.0-23.0","","<img src=""img/set1/S2.jpg"" width=""540"" height = ""360"">","null","","","","","","","",""
"null","","html-keyboard-response","24","295805","0.0-24.0","","","null","","","","","","","",""
"877.5999999642372","","image-keyboard-response","25","296683","0.0-25.0","","img/set1/S3.jpg","83","3","random","72","random,structured_normal,structured_load,structured_incentive","3,4,2,3,2,1","false","",""
"null","","html-keyboard-response","26","297038","0.0-26.0","","<img src=""img/set1/S3.jpg"" width=""540"" height = ""360"">","null","","","","","","","",""
"null","","html-keyboard-response","27","297239","0.0-27.0","","","null","","","","","","","",""
"1138.6000000238419","","image-keyboard-response","28","298378","0.0-28.0","","img/set1/S1.jpg","83","1","random","83","random,structured_normal,structured_load,structured_incentive","3,4,2,3,2,1","true","",""
"null","","html-keyboard-response","29","298734","0.0-29.0","","<img src=""img/set1/S1.jpg"" width=""540"" height = ""360"" style=""border:16px solid orange"">","null","","","","","","","",""
"null","","html-keyboard-response","30","298940","0.0-30.0","","","null","","","","","","","",""
"null","","image-keyboard-response","31","301443","0.0-31.0","","img/set1/S3.jpg","null","3","random","72","random,structured_normal,structured_load,structured_incentive","3,4,2,3,2,1","false","",""
"null","","html-keyboard-response","32","301796","0.0-32.0","","<img src=""img/set1/S3.jpg"" width=""540"" height = ""360"">","null","","","","","","","",""
"null","","html-keyboard-response","33","302001","0.0-33.0","","","null","","","","","","","",""
"null","","image-keyboard-response","34","304508","0.0-34.0","","img/set1/S1.jpg","null","1","random","83","random,structured_normal,structured_load,structured_incentive","3,4,2,3,2,1","false","",""
"null","","html-keyboard-response","35","304862","0.0-35.0","","<img src=""img/set1/S1.jpg"" width=""540"" height = ""360"">","null","","","","","","","",""
"null","","html-keyboard-response","36","305065","0.0-36.0","","","null","","","","","","","",""
"2281.399999976158","","image-keyboard-response","37","307347","0.0-37.0","","img/set1/S4.jpg","74","4","random","74","random,structured_normal,structured_load,structured_incentive","3,4,2,3,2,1","true","",""
"null","","html-keyboard-response","38","307698","0.0-38.0","","<img src=""img/set1/S4.jpg"" width=""540"" height = ""360"" style=""border:16px solid orange"">","null","","","","","","","",""
"null","","html-keyboard-response","39","307901","0.0-39.0","","","null","","","","","","","",""
"1067.5","","image-keyboard-response","40","308970","0.0-40.0","","img/set1/S4.jpg","74","4","random","74","random,structured_normal,structured_load,structured_incentive","3,4,2,3,2,1","true","",""
"null","","html-keyboard-response","41","309324","0.0-41.0","","<img src=""img/set1/S4.jpg"" width=""540"" height = ""360"" style=""border:16px solid orange"">","null","","","","","","","",""
"null","","html-keyboard-response","42","309530","0.0-42.0","","","null","","","","","","","",""
"1334.7999999523163","","image-keyboard-response","43","310866","0.0-43.0","","img/set1/S3.jpg","72","3","random","72","random,structured_normal,structured_load,structured_incentive","3,4,2,3,2,1","true","",""
"null","","html-keyboard-response","44","311220","0.0-44.0","","<img src=""img/set1/S3.jpg"" width=""540"" height = ""360"" style=""border:16px solid orange"">","null","","","","","","","",""
"null","","html-keyboard-response","45","311426","0.0-45.0","","","null","","","","","","","",""
"1454.199999988079","","image-keyboard-response","46","312881","0.0-46.0","","img/set1/S1.jpg","83","1","random","83","random,structured_normal,structured_load,structured_incentive","3,4,2,3,2,1","true","",""
"null","","html-keyboard-response","47","313233","0.0-47.0","","<img src=""img/set1/S1.jpg"" width=""540"" height = ""360"" style=""border:16px solid orange"">","null","","","","","","","",""
"null","","html-keyboard-response","48","313439","0.0-48.0","","","null","","","","","","","",""
"1290.1000000238419","","image-keyboard-response","49","314730","0.0-49.0","","img/set1/S3.jpg","72","3","random","72","random,structured_normal,structured_load,structured_incentive","3,4,2,3,2,1","true","",""
"null","","html-keyboard-response","50","315082","0.0-50.0","","<img src=""img/set1/S3.jpg"" width=""540"" height = ""360"" style=""border:16px solid orange"">","null","","","","","","","",""
"null","","html-keyboard-response","51","315285","0.0-51.0","","","null","","","","","","","",""
"1003.6000000238419","","image-keyboard-response","52","316290","0.0-52.0","","img/set1/S2.jpg","83","2","random","68","random,structured_normal,structured_load,structured_incentive","3,4,2,3,2,1","false","",""
"null","","html-keyboard-response","53","316643","0.0-53.0","","<img src=""img/set1/S2.jpg"" width=""540"" height = ""360"">","null","","","","","","","",""
"null","","html-keyboard-response","54","316849","0.0-54.0","","","null","","","","","","","",""
"631.8000000119209","","image-keyboard-response","55","317482","0.0-55.0","","img/set1/S2.jpg","68","2","random","68","random,structured_normal,structured_load,structured_incentive","3,4,2,3,2,1","true","",""
"null","","html-keyboard-response","56","317836","0.0-56.0","","<img src=""img/set1/S2.jpg"" width=""540"" height = ""360"" style=""border:16px solid orange"">","null","","","","","","","",""
"null","","html-keyboard-response","57","318039","0.0-57.0","","","null","","","","","","","",""
"585.8999999761581","","image-keyboard-response","58","318626","0.0-58.0","","img/set1/S2.jpg","68","2","random","68","random,structured_normal,structured_load,structured_incentive","3,4,2,3,2,1","true","",""
"null","","html-keyboard-response","59","318982","0.0-59.0","","<img src=""img/set1/S2.jpg"" width=""540"" height = ""360"" style=""border:16px solid orange"">","null","","","","","","","",""
"null","","html-keyboard-response","60","319185","0.0-60.0","","","null","","","","","","","",""
"831.5","","image-keyboard-response","61","320018","0.0-61.0","","img/set1/S1.jpg","83","1","random","83","random,structured_normal,structured_load,structured_incentive","3,4,2,3,2,1","true","",""
"null","","html-keyboard-response","62","320374","0.0-62.0","","<img src=""img/set1/S1.jpg"" width=""540"" height = ""360"" style=""border:16px solid orange"">","null","","","","","","","",""
"null","","html-keyboard-response","63","320580","0.0-63.0","","","null","","","","","","","",""
"1028.3999999761581","","image-keyboard-response","64","321610","0.0-64.0","","img/set1/S4.jpg","74","4","random","74","random,structured_normal,structured_load,structured_incentive","3,4,2,3,2,1","true","",""
"null","","html-keyboard-response","65","321962","0.0-65.0","","<img src=""img/set1/S4.jpg"" width=""540"" height = ""360"" style=""border:16px solid orange"">","null","","","","","","","",""
"null","","html-keyboard-response","66","322168","0.0-66.0","","","null","","","","","","","",""
"784.3000000119209","","image-keyboard-response","67","322954","0.0-67.0","","img/set1/S1.jpg","83","1","random","83","random,structured_normal,structured_load,structured_incentive","3,4,2,3,2,1","true","",""
"null","","html-keyboard-response","68","323307","0.0-68.0","","<img src=""img/set1/S1.jpg"" width=""540"" height = ""360"" style=""border:16px solid orange"">","null","","","","","","","",""
"null","","html-keyboard-response","69","323509","0.0-69.0","","","null","","","","","","","",""
"761.5","","image-keyboard-response","70","324273","0.0-70.0","","img/set1/S4.jpg","74","4","random","74","random,structured_normal,structured_load,structured_incentive","3,4,2,3,2,1","true","",""
"null","","html-keyboard-response","71","324624","0.0-71.0","","<img src=""img/set1/S4.jpg"" width=""540"" height = ""360"" style=""border:16px solid orange"">","null","","","","","","","",""
"null","","html-keyboard-response","72","324827","0.0-72.0","","","null","","","","","","","",""
"812.8000000119209","","image-keyboard-response","73","325641","0.0-73.0","","img/set1/S1.jpg","83","1","random","83","random,structured_normal,structured_load,structured_incentive","3,4,2,3,2,1","true","",""
"null","","html-keyboard-response","74","325996","0.0-74.0","","<img src=""img/set1/S1.jpg"" width=""540"" height = ""360"" style=""border:16px solid orange"">","null","","","","","","","",""
"null","","html-keyboard-response","75","326202","0.0-75.0","","","null","","","","","","","",""
"1126.0999999642372","","image-keyboard-response","76","327329","0.0-76.0","","img/set1/S3.jpg","72","3","random","72","random,structured_normal,structured_load,structured_incentive","3,4,2,3,2,1","true","",""
"null","","html-keyboard-response","77","327681","0.0-77.0","","<img src=""img/set1/S3.jpg"" width=""540"" height = ""360"" style=""border:16px solid orange"">","null","","","","","","","",""
"null","","html-keyboard-response","78","327887","0.0-78.0","","","null","","","","","","","",""
"1034.2999999523163","","image-keyboard-response","79","328922","0.0-79.0","","img/set1/S4.jpg","68","4","random","74","random,structured_normal,structured_load,structured_incentive","3,4,2,3,2,1","false","",""
"null","","html-keyboard-response","80","329275","0.0-80.0","","<img src=""img/set1/S4.jpg"" width=""540"" height = ""360"">","null","","","","","","","",""
"null","","html-keyboard-response","81","329479","0.0-81.0","","","null","","","","","","","",""
"760.8000000119209","","image-keyboard-response","82","330240","0.0-82.0","","img/set1/S3.jpg","83","3","random","72","random,structured_normal,structured_load,structured_incentive","3,4,2,3,2,1","false","",""
"null","","html-keyboard-response","83","330591","0.0-83.0","","<img src=""img/set1/S3.jpg"" width=""540"" height = ""360"">","null","","","","","","","",""
"null","","html-keyboard-response","84","330797","0.0-84.0","","","null","","","","","","","",""
"538.6999999880791","","image-keyboard-response","85","331337","0.0-85.0","","img/set1/S1.jpg","74","1","random","83","random,structured_normal,structured_load,structured_incentive","3,4,2,3,2,1","false","",""
"null","","html-keyboard-response","86","331690","0.0-86.0","","<img src=""img/set1/S1.jpg"" width=""540"" height = ""360"">","null","","","","","","","",""
"null","","html-keyboard-response","87","331892","0.0-87.0","","","null","","","","","","","",""
"699.7999999523163","","image-keyboard-response","88","332593","0.0-88.0","","img/set1/S2.jpg","83","2","random","68","random,structured_normal,structured_load,structured_incentive","3,4,2,3,2,1","false","",""
"null","","html-keyboard-response","89","332945","0.0-89.0","","<img src=""img/set1/S2.jpg"" width=""540"" height = ""360"">","null","","","","","","","",""
"null","","html-keyboard-response","90","333151","0.0-90.0","","","null","","","","","","","",""
"625.0999999642372","","image-keyboard-response","91","333777","0.0-91.0","","img/set1/S2.jpg","68","2","random","68","random,structured_normal,structured_load,structured_incentive","3,4,2,3,2,1","true","",""
"null","","html-keyboard-response","92","334131","0.0-92.0","","<img src=""img/set1/S2.jpg"" width=""540"" height = ""360"" style=""border:16px solid orange"">","null","","","","","","","",""
"null","","html-keyboard-response","93","334337","0.0-93.0","","","null","","","","","","","",""
"1567.0999999642372","","image-keyboard-response","94","335905","0.0-94.0","","img/set1/S3.jpg","72","3","random","72","random,structured_normal,structured_load,structured_incentive","3,4,2,3,2,1","true","",""
"null","","html-keyboard-response","95","336258","0.0-95.0","","<img src=""img/set1/S3.jpg"" width=""540"" height = ""360"" style=""border:16px solid orange"">","null","","","","","","","",""
"null","","html-keyboard-response","96","336462","0.0-96.0","","","null","","","","","","","",""
"528.5999999642372","","image-keyboard-response","97","336991","0.0-97.0","","img/set1/S3.jpg","72","3","random","72","random,structured_normal,structured_load,structured_incentive","3,4,2,3,2,1","true","",""
"null","","html-keyboard-response","98","337345","0.0-98.0","","<img src=""img/set1/S3.jpg"" width=""540"" height = ""360"" style=""border:16px solid orange"">","null","","","","","","","",""
"null","","html-keyboard-response","99","337546","0.0-99.0","","","null","","","","","","","",""
"854.2999999523163","","image-keyboard-response","100","338401","0.0-100.0","","img/set1/S1.jpg","68","1","random","83","random,structured_normal,structured_load,structured_incentive","3,4,2,3,2,1","false","",""
"null","","html-keyboard-response","101","338755","0.0-101.0","","<img src=""img/set1/S1.jpg"" width=""540"" height = ""360"">","null","","","","","","","",""
"null","","html-keyboard-response","102","338960","0.0-102.0","","","null","","","","","","","",""
"664.5","","image-keyboard-response","103","339626","0.0-103.0","","img/set1/S2.jpg","68","2","random","68","random,structured_normal,structured_load,structured_incentive","3,4,2,3,2,1","true","",""
"null","","html-keyboard-response","104","339978","0.0-104.0","","<img src=""img/set1/S2.jpg"" width=""540"" height = ""360"" style=""border:16px solid orange"">","null","","","","","","","",""
"null","","html-keyboard-response","105","340183","0.0-105.0","","","null","","","","","","","",""
"601.3999999761581","","image-keyboard-response","106","340785","0.0-106.0","","img/set1/S3.jpg","83","3","random","72","random,structured_normal,structured_load,structured_incentive","3,4,2,3,2,1","false","",""
"null","","html-keyboard-response","107","341138","0.0-107.0","","<img src=""img/set1/S3.jpg"" width=""540"" height = ""360"">","null","","","","","","","",""
"null","","html-keyboard-response","108","341344","0.0-108.0","","","null","","","","","","","",""
"454.30000001192093","","image-keyboard-response","109","341799","0.0-109.0","","img/set1/S3.jpg","74","3","random","72","random,structured_normal,structured_load,structured_incentive","3,4,2,3,2,1","false","",""
"null","","html-keyboard-response","110","342155","0.0-110.0","","<img src=""img/set1/S3.jpg"" width=""540"" height = ""360"">","null","","","","","","","",""
"null","","html-keyboard-response","111","342356","0.0-111.0","","","null","","","","","","","",""
"931.7999999523163","","image-keyboard-response","112","343289","0.0-112.0","","img/set1/S1.jpg","72","1","random","83","random,structured_normal,structured_load,structured_incentive","3,4,2,3,2,1","false","",""
"null","","html-keyboard-response","113","343643","0.0-113.0","","<img src=""img/set1/S1.jpg"" width=""540"" height = ""360"">","null","","","","","","","",""
"null","","html-keyboard-response","114","343848","0.0-114.0","","","null","","","","","","","",""
"840.5999999642372","","image-keyboard-response","115","344689","0.0-115.0","","img/set1/S2.jpg","68","2","random","68","random,structured_normal,structured_load,structured_incentive","3,4,2,3,2,1","true","",""
"null","","html-keyboard-response","116","345046","0.0-116.0","","<img src=""img/set1/S2.jpg"" width=""540"" height = ""360"" style=""border:16px solid orange"">","null","","","","","","","",""
"null","","html-keyboard-response","117","345252","0.0-117.0","","","null","","","","","","","",""
"1004.3000000119209","","image-keyboard-response","118","346257","0.0-118.0","","img/set1/S4.jpg","72","4","random","74","random,structured_normal,structured_load,structured_incentive","3,4,2,3,2,1","false","",""
"null","","html-keyboard-response","119","346609","0.0-119.0","","<img src=""img/set1/S4.jpg"" width=""540"" height = ""360"">","null","","","","","","","",""
"null","","html-keyboard-response","120","346815","0.0-120.0","","","null","","","","","","","",""
"768.6000000238419","","image-keyboard-response","121","347585","0.0-121.0","","img/set1/S2.jpg","83","2","random","68","random,structured_normal,structured_load,structured_incentive","3,4,2,3,2,1","false","",""
"null","","html-keyboard-response","122","347937","0.0-122.0","","<img src=""img/set1/S2.jpg"" width=""540"" height = ""360"">","null","","","","","","","",""
"null","","html-keyboard-response","123","348140","0.0-123.0","","","null","","","","","","","",""
"922.3000000119209","","image-keyboard-response","124","349063","0.0-124.0","","img/set1/S4.jpg","83","4","random","74","random,structured_normal,structured_load,structured_incentive","3,4,2,3,2,1","false","",""
"null","","html-keyboard-response","125","349416","0.0-125.0","","<img src=""img/set1/S4.jpg"" width=""540"" height = ""360"">","null","","","","","","","",""
"null","","html-keyboard-response","126","349621","0.0-126.0","","","null","","","","","","","",""
"715.3000000119209","","image-keyboard-response","127","350337","0.0-127.0","","img/set1/S4.jpg","72","4","random","74","random,structured_normal,structured_load,structured_incentive","3,4,2,3,2,1","false","",""
"null","","html-keyboard-response","128","350691","0.0-128.0","","<img src=""img/set1/S4.jpg"" width=""540"" height = ""360"">","null","","","","","","","",""
"null","","html-keyboard-response","129","350897","0.0-129.0","","","null","","","","","","","",""
"534.1999999880791","","image-keyboard-response","130","351433","0.0-130.0","","img/set1/S4.jpg","74","4","random","74","random,structured_normal,structured_load,structured_incentive","3,4,2,3,2,1","true","",""
"null","","html-keyboard-response","131","351788","0.0-131.0","","<img src=""img/set1/S4.jpg"" width=""540"" height = ""360"" style=""border:16px solid orange"">","null","","","","","","","",""
"null","","html-keyboard-response","132","351992","0.0-132.0","","","null","","","","","","","",""
"1054.8999999761581","","image-keyboard-response","133","353048","0.0-133.0","","img/set1/S3.jpg","68","3","random","72","random,structured_normal,structured_load,structured_incentive","3,4,2,3,2,1","false","",""
"null","","html-keyboard-response","134","353401","0.0-134.0","","<img src=""img/set1/S3.jpg"" width=""540"" height = ""360"">","null","","","","","","","",""
"null","","html-keyboard-response","135","353607","0.0-135.0","","","null","","","","","","","",""
"23.80000001192093","","image-keyboard-response","136","353632","0.0-136.0","","img/set1/S4.jpg","72","4","random","74","random,structured_normal,structured_load,structured_incentive","3,4,2,3,2,1","false","",""
"null","","html-keyboard-response","137","353986","0.0-137.0","","<img src=""img/set1/S4.jpg"" width=""540"" height = ""360"">","null","","","","","","","",""
"null","","html-keyboard-response","138","354188","0.0-138.0","","","null","","","","","","","",""
"83.10000002384186","","image-keyboard-response","139","354272","0.0-139.0","","img/set1/S4.jpg","74","4","random","74","random,structured_normal,structured_load,structured_incentive","3,4,2,3,2,1","true","",""
"null","","html-keyboard-response","140","354629","0.0-140.0","","<img src=""img/set1/S4.jpg"" width=""540"" height = ""360"" style=""border:16px solid orange"">","null","","","","","","","",""
"null","","html-keyboard-response","141","354830","0.0-141.0","","","null","","","","","","","",""
"857.1000000238419","","image-keyboard-response","142","355689","0.0-142.0","","img/set1/S3.jpg","72","3","random","72","random,structured_normal,structured_load,structured_incentive","3,4,2,3,2,1","true","",""
"null","","html-keyboard-response","143","356040","0.0-143.0","","<img src=""img/set1/S3.jpg"" width=""540"" height = ""360"" style=""border:16px solid orange"">","null","","","","","","","",""
"null","","html-keyboard-response","144","356246","0.0-144.0","","","null","","","","","","","",""
"1081.2000000476837","","image-keyboard-response","145","357329","0.0-145.0","","img/set1/S1.jpg","83","1","random","83","random,structured_normal,structured_load,structured_incentive","3,4,2,3,2,1","true","",""
"null","","html-keyboard-response","146","357685","0.0-146.0","","<img src=""img/set1/S1.jpg"" width=""540"" height = ""360"" style=""border:16px solid orange"">","null","","","","","","","",""
"null","","html-keyboard-response","147","357887","0.0-147.0","","","null","","","","","","","",""
"887.6999999880791","","image-keyboard-response","148","358776","0.0-148.0","","img/set1/S1.jpg","83","1","random","83","random,structured_normal,structured_load,structured_incentive","3,4,2,3,2,1","true","",""
"null","","html-keyboard-response","149","359132","0.0-149.0","","<img src=""img/set1/S1.jpg"" width=""540"" height = ""360"" style=""border:16px solid orange"">","null","","","","","","","",""
"null","","html-keyboard-response","150","359337","0.0-150.0","","","null","","","","","","","",""
"805.8999999761581","","image-keyboard-response","151","360144","0.0-151.0","","img/set1/S1.jpg","83","1","random","83","random,structured_normal,structured_load,structured_incentive","3,4,2,3,2,1","true","",""
"null","","html-keyboard-response","152","360500","0.0-152.0","","<img src=""img/set1/S1.jpg"" width=""540"" height = ""360"" style=""border:16px solid orange"">","null","","","","","","","",""
"null","","html-keyboard-response","153","360701","0.0-153.0","","","null","","","","","","","",""
"795.0999999642372","","image-keyboard-response","154","361497","0.0-154.0","","img/set1/S4.jpg","74","4","random","74","random,structured_normal,structured_load,structured_incentive","3,4,2,3,2,1","true","",""
"null","","html-keyboard-response","155","361853","0.0-155.0","","<img src=""img/set1/S4.jpg"" width=""540"" height = ""360"" style=""border:16px solid orange"">","null","","","","","","","",""
"null","","html-keyboard-response","156","362060","0.0-156.0","","","null","","","","","","","",""
"690.9000000357628","","image-keyboard-response","157","362752","0.0-157.0","","img/set1/S3.jpg","72","3","random","72","random,structured_normal,structured_load,structured_incentive","3,4,2,3,2,1","true","",""
"null","","html-keyboard-response","158","363109","0.0-158.0","","<img src=""img/set1/S3.jpg"" width=""540"" height = ""360"" style=""border:16px solid orange"">","null","","","","","","","",""
"null","","html-keyboard-response","159","363313","0.0-159.0","","","null","","","","","","","",""
"862.5999999642372","","image-keyboard-response","160","364176","0.0-160.0","","img/set1/S1.jpg","83","1","random","83","random,structured_normal,structured_load,structured_incentive","3,4,2,3,2,1","true","",""
"null","","html-keyboard-response","161","364528","0.0-161.0","","<img src=""img/set1/S1.jpg"" width=""540"" height = ""360"" style=""border:16px solid orange"">","null","","","","","","","",""
"null","","html-keyboard-response","162","364729","0.0-162.0","","","null","","","","","","","",""
"934.7000000476837","","image-keyboard-response","163","365664","0.0-163.0","","img/set1/S4.jpg","72","4","random","74","random,structured_normal,structured_load,structured_incentive","3,4,2,3,2,1","false","",""
"null","","html-keyboard-response","164","366021","0.0-164.0","","<img src=""img/set1/S4.jpg"" width=""540"" height = ""360"">","null","","","","","","","",""
"null","","html-keyboard-response","165","366223","0.0-165.0","","","null","","","","","","","",""
"840.6000000238419","","image-keyboard-response","166","367064","0.0-166.0","","img/set1/S1.jpg","83","1","random","83","random,structured_normal,structured_load,structured_incentive","3,4,2,3,2,1","true","",""
"null","","html-keyboard-response","167","367420","0.0-167.0","","<img src=""img/set1/S1.jpg"" width=""540"" height = ""360"" style=""border:16px solid orange"">","null","","","","","","","",""
"null","","html-keyboard-response","168","367622","0.0-168.0","","","null","","","","","","","",""
"889.6000000238419","","image-keyboard-response","169","368512","0.0-169.0","","img/set1/S2.jpg","83","2","random","68","random,structured_normal,structured_load,structured_incentive","3,4,2,3,2,1","false","",""
"null","","html-keyboard-response","170","368869","0.0-170.0","","<img src=""img/set1/S2.jpg"" width=""540"" height = ""360"">","null","","","","","","","",""
"null","","html-keyboard-response","171","369075","0.0-171.0","","","null","","","","","","","",""
"916.3999999761581","","image-keyboard-response","172","369992","0.0-172.0","","img/set1/S4.jpg","74","4","random","74","random,structured_normal,structured_load,structured_incentive","3,4,2,3,2,1","true","",""
"null","","html-keyboard-response","173","370349","0.0-173.0","","<img src=""img/set1/S4.jpg"" width=""540"" height = ""360"" style=""border:16px solid orange"">","null","","","","","","","",""
"null","","html-keyboard-response","174","370552","0.0-174.0","","","null","","","","","","","",""
"856.8000000119209","","image-keyboard-response","175","371410","0.0-175.0","","img/set1/S2.jpg","83","2","random","68","random,structured_normal,structured_load,structured_incentive","3,4,2,3,2,1","false","",""
"null","","html-keyboard-response","176","371765","0.0-176.0","","<img src=""img/set1/S2.jpg"" width=""540"" height = ""360"">","null","","","","","","","",""
"null","","html-keyboard-response","177","371968","0.0-177.0","","","null","","","","","","","",""
"614.5","","image-keyboard-response","178","372584","0.0-178.0","","img/set1/S2.jpg","72","2","random","68","random,structured_normal,structured_load,structured_incentive","3,4,2,3,2,1","false","",""
"null","","html-keyboard-response","179","372938","0.0-179.0","","<img src=""img/set1/S2.jpg"" width=""540"" height = ""360"">","null","","","","","","","",""
"null","","html-keyboard-response","180","373144","0.0-180.0","","","null","","","","","","","",""
"575","","image-keyboard-response","181","373720","0.0-181.0","","img/set1/S1.jpg","83","1","random","83","random,structured_normal,structured_load,structured_incentive","3,4,2,3,2,1","true","",""
"null","","html-keyboard-response","182","374075","0.0-182.0","","<img src=""img/set1/S1.jpg"" width=""540"" height = ""360"" style=""border:16px solid orange"">","null","","","","","","","",""
"null","","html-keyboard-response","183","374281","0.0-183.0","","","null","","","","","","","",""
"717.6000000238419","","image-keyboard-response","184","375000","0.0-184.0","","img/set1/S2.jpg","68","2","random","68","random,structured_normal,structured_load,structured_incentive","3,4,2,3,2,1","true","",""
"null","","html-keyboard-response","185","375356","0.0-185.0","","<img src=""img/set1/S2.jpg"" width=""540"" height = ""360"" style=""border:16px solid orange"">","null","","","","","","","",""
"null","","html-keyboard-response","186","375559","0.0-186.0","","","null","","","","","","","",""
"646.9000000357628","","image-keyboard-response","187","376206","0.0-187.0","","img/set1/S3.jpg","83","3","random","72","random,structured_normal,structured_load,structured_incentive","3,4,2,3,2,1","false","",""
"null","","html-keyboard-response","188","376563","0.0-188.0","","<img src=""img/set1/S3.jpg"" width=""540"" height = ""360"">","null","","","","","","","",""
"null","","html-keyboard-response","189","376767","0.0-189.0","","","null","","","","","","","",""
"791.8999999761581","","image-keyboard-response","190","377559","0.0-190.0","","img/set1/S1.jpg","83","1","random","83","random,structured_normal,structured_load,structured_incentive","3,4,2,3,2,1","true","",""
"null","","html-keyboard-response","191","377916","0.0-191.0","","<img src=""img/set1/S1.jpg"" width=""540"" height = ""360"" style=""border:16px solid orange"">","null","","","","","","","",""
"null","","html-keyboard-response","192","378122","0.0-192.0","","","null","","","","","","","",""
"860.7999999523163","","image-keyboard-response","193","378984","0.0-193.0","","img/set1/S3.jpg","72","3","random","72","random,structured_normal,structured_load,structured_incentive","3,4,2,3,2,1","true","",""
"null","","html-keyboard-response","194","379340","0.0-194.0","","<img src=""img/set1/S3.jpg"" width=""540"" height = ""360"" style=""border:16px solid orange"">","null","","","","","","","",""
"null","","html-keyboard-response","195","379542","0.0-195.0","","","null","","","","","","","",""
"687.6000000238419","","image-keyboard-response","196","380230","0.0-196.0","","img/set1/S3.jpg","72","3","random","72","random,structured_normal,structured_load,structured_incentive","3,4,2,3,2,1","true","",""
"null","","html-keyboard-response","197","380584","0.0-197.0","","<img src=""img/set1/S3.jpg"" width=""540"" height = ""360"" style=""border:16px solid orange"">","null","","","","","","","",""
"null","","html-keyboard-response","198","380788","0.0-198.0","","","null","","","","","","","",""
"722.8000000119209","","image-keyboard-response","199","381511","0.0-199.0","","img/set1/S3.jpg","72","3","random","72","random,structured_normal,structured_load,structured_incentive","3,4,2,3,2,1","true","",""
"null","","html-keyboard-response","200","381864","0.0-200.0","","<img src=""img/set1/S3.jpg"" width=""540"" height = ""360"" style=""border:16px solid orange"">","null","","","","","","","",""
"null","","html-keyboard-response","201","382070","0.0-201.0","","","null","","","","","","","",""
"841.1999999880791","","image-keyboard-response","202","382912","0.0-202.0","","img/set1/S2.jpg","68","2","random","68","random,structured_normal,structured_load,structured_incentive","3,4,2,3,2,1","true","",""
"null","","html-keyboard-response","203","383268","0.0-203.0","","<img src=""img/set1/S2.jpg"" width=""540"" height = ""360"" style=""border:16px solid orange"">","null","","","","","","","",""
"null","","html-keyboard-response","204","383471","0.0-204.0","","","null","","","","","","","",""
"775.4000000357628","","image-keyboard-response","205","384248","0.0-205.0","","img/set1/S4.jpg","74","4","random","74","random,structured_normal,structured_load,structured_incentive","3,4,2,3,2,1","true","",""
"null","","html-keyboard-response","206","384604","0.0-206.0","","<img src=""img/set1/S4.jpg"" width=""540"" height = ""360"" style=""border:16px solid orange"">","null","","","","","","","",""
"null","","html-keyboard-response","207","384810","0.0-207.0","","","null","","","","","","","",""
"788.1000000238419","","image-keyboard-response","208","385600","0.0-208.0","","img/set1/S1.jpg","83","1","random","83","random,structured_normal,structured_load,structured_incentive","3,4,2,3,2,1","true","",""
"null","","html-keyboard-response","209","385954","0.0-209.0","","<img src=""img/set1/S1.jpg"" width=""540"" height = ""360"" style=""border:16px solid orange"">","null","","","","","","","",""
"null","","html-keyboard-response","210","386159","0.0-210.0","","","null","","","","","","","",""
"919.2000000476837","","image-keyboard-response","211","387079","0.0-211.0","","img/set1/S2.jpg","72","2","random","68","random,structured_normal,structured_load,structured_incentive","3,4,2,3,2,1","false","",""
"null","","html-keyboard-response","212","387435","0.0-212.0","","<img src=""img/set1/S2.jpg"" width=""540"" height = ""360"">","null","","","","","","","",""
"null","","html-keyboard-response","213","387641","0.0-213.0","","","null","","","","","","","",""
"765.3000000119209","","image-keyboard-response","214","388407","0.0-214.0","","img/set1/S3.jpg","72","3","random","72","random,structured_normal,structured_load,structured_incentive","3,4,2,3,2,1","true","",""
"null","","html-keyboard-response","215","388759","0.0-215.0","","<img src=""img/set1/S3.jpg"" width=""540"" height = ""360"" style=""border:16px solid orange"">","null","","","","","","","",""
"null","","html-keyboard-response","216","388963","0.0-216.0","","","null","","","","","","","",""
"698.8000000119209","","image-keyboard-response","217","389663","0.0-217.0","","img/set1/S4.jpg","74","4","random","74","random,structured_normal,structured_load,structured_incentive","3,4,2,3,2,1","true","",""
"null","","html-keyboard-response","218","390020","0.0-218.0","","<img src=""img/set1/S4.jpg"" width=""540"" height = ""360"" style=""border:16px solid orange"">","null","","","","","","","",""
"null","","html-keyboard-response","219","390225","0.0-219.0","","","null","","","","","","","",""
"684","","image-keyboard-response","220","390910","0.0-220.0","","img/set1/S4.jpg","74","4","random","74","random,structured_normal,structured_load,structured_incentive","3,4,2,3,2,1","true","",""
"null","","html-keyboard-response","221","391266","0.0-221.0","","<img src=""img/set1/S4.jpg"" width=""540"" height = ""360"" style=""border:16px solid orange"">","null","","","","","","","",""
"null","","html-keyboard-response","222","391473","0.0-222.0","","","null","","","","","","","",""
"701.5","","image-keyboard-response","223","392175","0.0-223.0","","img/set1/S1.jpg","83","1","random","83","random,structured_normal,structured_load,structured_incentive","3,4,2,3,2,1","true","",""
"null","","html-keyboard-response","224","392531","0.0-224.0","","<img src=""img/set1/S1.jpg"" width=""540"" height = ""360"" style=""border:16px solid orange"">","null","","","","","","","",""
"null","","html-keyboard-response","225","392733","0.0-225.0","","","null","","","","","","","",""
"737.3000000119209","","image-keyboard-response","226","393472","0.0-226.0","","img/set1/S3.jpg","72","3","random","72","random,structured_normal,structured_load,structured_incentive","3,4,2,3,2,1","true","",""
"null","","html-keyboard-response","227","393825","0.0-227.0","","<img src=""img/set1/S3.jpg"" width=""540"" height = ""360"" style=""border:16px solid orange"">","null","","","","","","","",""
"null","","html-keyboard-response","228","394026","0.0-228.0","","","null","","","","","","","",""
"651.7999999523163","","image-keyboard-response","229","394679","0.0-229.0","","img/set1/S4.jpg","74","4","random","74","random,structured_normal,structured_load,structured_incentive","3,4,2,3,2,1","true","",""
"null","","html-keyboard-response","230","395031","0.0-230.0","","<img src=""img/set1/S4.jpg"" width=""540"" height = ""360"" style=""border:16px solid orange"">","null","","","","","","","",""
"null","","html-keyboard-response","231","395233","0.0-231.0","","","null","","","","","","","",""
"725.3999999761581","","image-keyboard-response","232","395959","0.0-232.0","","img/set1/S2.jpg","68","2","random","68","random,structured_normal,structured_load,structured_incentive","3,4,2,3,2,1","true","",""
"null","","html-keyboard-response","233","396316","0.0-233.0","","<img src=""img/set1/S2.jpg"" width=""540"" height = ""360"" style=""border:16px solid orange"">","null","","","","","","","",""
"null","","html-keyboard-response","234","396522","0.0-234.0","","","null","","","","","","","",""
"932.2999999523163","","image-keyboard-response","235","397455","0.0-235.0","","img/set1/S4.jpg","74","4","random","74","random,structured_normal,structured_load,structured_incentive","3,4,2,3,2,1","true","",""
"null","","html-keyboard-response","236","397812","0.0-236.0","","<img src=""img/set1/S4.jpg"" width=""540"" height = ""360"" style=""border:16px solid orange"">","null","","","","","","","",""
"null","","html-keyboard-response","237","398018","0.0-237.0","","","null","","","","","","","",""
"748.3999999761581","","image-keyboard-response","238","398767","0.0-238.0","","img/set1/S2.jpg","83","2","random","68","random,structured_normal,structured_load,structured_incentive","3,4,2,3,2,1","false","",""
"null","","html-keyboard-response","239","399124","0.0-239.0","","<img src=""img/set1/S2.jpg"" width=""540"" height = ""360"">","null","","","","","","","",""
"null","","html-keyboard-response","240","399330","0.0-240.0","","","null","","","","","","","",""
"620.1999999880791","","image-keyboard-response","241","399951","0.0-241.0","","img/set1/S1.jpg","72","1","random","83","random,structured_normal,structured_load,structured_incentive","3,4,2,3,2,1","false","",""
"null","","html-keyboard-response","242","400302","0.0-242.0","","<img src=""img/set1/S1.jpg"" width=""540"" height = ""360"">","null","","","","","","","",""
"null","","html-keyboard-response","243","400505","0.0-243.0","","","null","","","","","","","",""
"697.3000000119209","","image-keyboard-response","244","401203","0.0-244.0","","img/set1/S2.jpg","72","2","random","68","random,structured_normal,structured_load,structured_incentive","3,4,2,3,2,1","false","",""
"null","","html-keyboard-response","245","401558","0.0-245.0","","<img src=""img/set1/S2.jpg"" width=""540"" height = ""360"">","null","","","","","","","",""
"null","","html-keyboard-response","246","401759","0.0-246.0","","","null","","","","","","","",""
"502.5999999642372","","image-keyboard-response","247","402263","0.0-247.0","","img/set1/S2.jpg","68","2","random","68","random,structured_normal,structured_load,structured_incentive","3,4,2,3,2,1","true","",""
"null","","html-keyboard-response","248","402619","0.0-248.0","","<img src=""img/set1/S2.jpg"" width=""540"" height = ""360"" style=""border:16px solid orange"">","null","","","","","","","",""
"null","","html-keyboard-response","249","402822","0.0-249.0","","","null","","","","","","","",""
"808.5999999642372","","image-keyboard-response","250","403631","0.0-250.0","","img/set1/S4.jpg","74","4","random","74","random,structured_normal,structured_load,structured_incentive","3,4,2,3,2,1","true","",""
"null","","html-keyboard-response","251","403985","0.0-251.0","","<img src=""img/set1/S4.jpg"" width=""540"" height = ""360"" style=""border:16px solid orange"">","null","","","","","","","",""
"null","","html-keyboard-response","252","404188","0.0-252.0","","","null","","","","","","","",""
"633.7999999523163","","image-keyboard-response","253","404823","0.0-253.0","","img/set1/S3.jpg","72","3","random","72","random,structured_normal,structured_load,structured_incentive","3,4,2,3,2,1","true","",""
"null","","html-keyboard-response","254","405179","0.0-254.0","","<img src=""img/set1/S3.jpg"" width=""540"" height = ""360"" style=""border:16px solid orange"">","null","","","","","","","",""
"null","","html-keyboard-response","255","405385","0.0-255.0","","","null","","","","","","","",""
"636.5","","image-keyboard-response","256","406023","0.0-256.0","","img/set1/S2.jpg","68","2","random","68","random,structured_normal,structured_load,structured_incentive","3,4,2,3,2,1","true","",""
"null","","html-keyboard-response","257","406379","0.0-257.0","","<img src=""img/set1/S2.jpg"" width=""540"" height = ""360"" style=""border:16px solid orange"">","null","","","","","","","",""
"null","","html-keyboard-response","258","406585","0.0-258.0","","","null","","","","","","","",""
"597.5","","image-keyboard-response","259","407184","0.0-259.0","","img/set1/S1.jpg","83","1","random","83","random,structured_normal,structured_load,structured_incentive","3,4,2,3,2,1","true","",""
"null","","html-keyboard-response","260","407535","0.0-260.0","","<img src=""img/set1/S1.jpg"" width=""540"" height = ""360"" style=""border:16px solid orange"">","null","","","","","","","",""
"null","","html-keyboard-response","261","407741","0.0-261.0","","","null","","","","","","","",""
"736.6000000238419","","image-keyboard-response","262","408479","0.0-262.0","","img/set1/S3.jpg","68","3","random","72","random,structured_normal,structured_load,structured_incentive","3,4,2,3,2,1","false","",""
"null","","html-keyboard-response","263","408832","0.0-263.0","","<img src=""img/set1/S3.jpg"" width=""540"" height = ""360"">","null","","","","","","","",""
"null","","html-keyboard-response","264","409038","0.0-264.0","","","null","","","","","","","",""
"487.30000001192093","","image-keyboard-response","265","409527","0.0-265.0","","img/set1/S3.jpg","72","3","random","72","random,structured_normal,structured_load,structured_incentive","3,4,2,3,2,1","true","",""
"null","","html-keyboard-response","266","409883","0.0-266.0","","<img src=""img/set1/S3.jpg"" width=""540"" height = ""360"" style=""border:16px solid orange"">","null","","","","","","","",""
"null","","html-keyboard-response","267","410088","0.0-267.0","","","null","","","","","","","",""
"893.5","","image-keyboard-response","268","410983","0.0-268.0","","img/set1/S2.jpg","83","2","random","68","random,structured_normal,structured_load,structured_incentive","3,4,2,3,2,1","false","",""
"null","","html-keyboard-response","269","411335","0.0-269.0","","<img src=""img/set1/S2.jpg"" width=""540"" height = ""360"">","null","","","","","","","",""
"null","","html-keyboard-response","270","411537","0.0-270.0","","","null","","","","","","","",""
"924","","image-keyboard-response","271","412462","0.0-271.0","","img/set1/S4.jpg","74","4","random","74","random,structured_normal,structured_load,structured_incentive","3,4,2,3,2,1","true","",""
"null","","html-keyboard-response","272","412818","0.0-272.0","","<img src=""img/set1/S4.jpg"" width=""540"" height = ""360"" style=""border:16px solid orange"">","null","","","","","","","",""
"null","","html-keyboard-response","273","413023","0.0-273.0","","","null","","","","","","","",""
"878.9000000357628","","image-keyboard-response","274","413903","0.0-274.0","","img/set1/S1.jpg","83","1","random","83","random,structured_normal,structured_load,structured_incentive","3,4,2,3,2,1","true","",""
"null","","html-keyboard-response","275","414260","0.0-275.0","","<img src=""img/set1/S1.jpg"" width=""540"" height = ""360"" style=""border:16px solid orange"">","null","","","","","","","",""
"null","","html-keyboard-response","276","414463","0.0-276.0","","","null","","","","","","","",""
"615","","image-keyboard-response","277","415078","0.0-277.0","","img/set1/S1.jpg","83","1","random","83","random,structured_normal,structured_load,structured_incentive","3,4,2,3,2,1","true","",""
"null","","html-keyboard-response","278","415432","0.0-278.0","","<img src=""img/set1/S1.jpg"" width=""540"" height = ""360"" style=""border:16px solid orange"">","null","","","","","","","",""
"null","","html-keyboard-response","279","415638","0.0-279.0","","","null","","","","","","","",""
"767.5999999642372","","image-keyboard-response","280","416406","0.0-280.0","","img/set1/S3.jpg","72","3","random","72","random,structured_normal,structured_load,structured_incentive","3,4,2,3,2,1","true","",""
"null","","html-keyboard-response","281","416760","0.0-281.0","","<img src=""img/set1/S3.jpg"" width=""540"" height = ""360"" style=""border:16px solid orange"">","null","","","","","","","",""
"null","","html-keyboard-response","282","416962","0.0-282.0","","","null","","","","","","","",""
"786.8999999761581","","image-keyboard-response","283","417750","0.0-283.0","","img/set1/S4.jpg","74","4","random","74","random,structured_normal,structured_load,structured_incentive","3,4,2,3,2,1","true","",""
"null","","html-keyboard-response","284","418103","0.0-284.0","","<img src=""img/set1/S4.jpg"" width=""540"" height = ""360"" style=""border:16px solid orange"">","null","","","","","","","",""
"null","","html-keyboard-response","285","418309","0.0-285.0","","","null","","","","","","","",""
"736.1999999880791","","image-keyboard-response","286","419046","0.0-286.0","","img/set1/S1.jpg","83","1","random","83","random,structured_normal,structured_load,structured_incentive","3,4,2,3,2,1","true","",""
"null","","html-keyboard-response","287","419403","0.0-287.0","","<img src=""img/set1/S1.jpg"" width=""540"" height = ""360"" style=""border:16px solid orange"">","null","","","","","","","",""
"null","","html-keyboard-response","288","419609","0.0-288.0","","","null","","","","","","","",""
"692.1000000238419","","image-keyboard-response","289","420302","0.0-289.0","","img/set1/S1.jpg","83","1","random","83","random,structured_normal,structured_load,structured_incentive","3,4,2,3,2,1","true","",""
"null","","html-keyboard-response","290","420655","0.0-290.0","","<img src=""img/set1/S1.jpg"" width=""540"" height = ""360"" style=""border:16px solid orange"">","null","","","","","","","",""
"null","","html-keyboard-response","291","420859","0.0-291.0","","","null","","","","","","","",""
"1186.1000000238419","","image-keyboard-response","292","422046","0.0-292.0","","img/set1/S3.jpg","68","3","random","72","random,structured_normal,structured_load,structured_incentive","3,4,2,3,2,1","false","",""
"null","","html-keyboard-response","293","422403","0.0-293.0","","<img src=""img/set1/S3.jpg"" width=""540"" height = ""360"">","null","","","","","","","",""
"null","","html-keyboard-response","294","422604","0.0-294.0","","","null","","","","","","","",""
"648.8000000119209","","image-keyboard-response","295","423254","0.0-295.0","","img/set1/S2.jpg","68","2","random","68","random,structured_normal,structured_load,structured_incentive","3,4,2,3,2,1","true","",""
"null","","html-keyboard-response","296","423611","0.0-296.0","","<img src=""img/set1/S2.jpg"" width=""540"" height = ""360"" style=""border:16px solid orange"">","null","","","","","","","",""
"null","","html-keyboard-response","297","423812","0.0-297.0","","","null","","","","","","","",""
"585.5999999642372","","image-keyboard-response","298","424398","0.0-298.0","","img/set1/S2.jpg","68","2","random","68","random,structured_normal,structured_load,structured_incentive","3,4,2,3,2,1","true","",""
"null","","html-keyboard-response","299","424755","0.0-299.0","","<img src=""img/set1/S2.jpg"" width=""540"" height = ""360"" style=""border:16px solid orange"">","null","","","","","","","",""
"null","","html-keyboard-response","300","424957","0.0-300.0","","","null","","","","","","","",""
"464.10000002384186","","image-keyboard-response","301","425422","0.0-301.0","","img/set1/S2.jpg","68","2","random","68","random,structured_normal,structured_load,structured_incentive","3,4,2,3,2,1","true","",""
"null","","html-keyboard-response","302","425779","0.0-302.0","","<img src=""img/set1/S2.jpg"" width=""540"" height = ""360"" style=""border:16px solid orange"">","null","","","","","","","",""
"null","","html-keyboard-response","303","425982","0.0-303.0","","","null","","","","","","","",""
"575.1999999880791","","image-keyboard-response","304","426558","0.0-304.0","","img/set1/S2.jpg","68","2","random","68","random,structured_normal,structured_load,structured_incentive","3,4,2,3,2,1","true","",""
"null","","html-keyboard-response","305","426909","0.0-305.0","","<img src=""img/set1/S2.jpg"" width=""540"" height = ""360"" style=""border:16px solid orange"">","null","","","","","","","",""
"null","","html-keyboard-response","306","427113","0.0-306.0","","","null","","","","","","","",""
"1147.6000000238419","","image-keyboard-response","307","428262","0.0-307.0","","img/set1/S4.jpg","74","4","random","74","random,structured_normal,structured_load,structured_incentive","3,4,2,3,2,1","true","",""
"null","","html-keyboard-response","308","428619","0.0-308.0","","<img src=""img/set1/S4.jpg"" width=""540"" height = ""360"" style=""border:16px solid orange"">","null","","","","","","","",""
"null","","html-keyboard-response","309","428822","0.0-309.0","","","null","","","","","","","",""
"727.3999999761581","","image-keyboard-response","310","429550","0.0-310.0","","img/set1/S4.jpg","74","4","random","74","random,structured_normal,structured_load,structured_incentive","3,4,2,3,2,1","true","",""
"null","","html-keyboard-response","311","429903","0.0-311.0","","<img src=""img/set1/S4.jpg"" width=""540"" height = ""360"" style=""border:16px solid orange"">","null","","","","","","","",""
"null","","html-keyboard-response","312","430108","0.0-312.0","","","null","","","","","","","",""
"615.8999999761581","","image-keyboard-response","313","430725","0.0-313.0","","img/set1/S3.jpg","72","3","random","72","random,structured_normal,structured_load,structured_incentive","3,4,2,3,2,1","true","",""
"null","","html-keyboard-response","314","431081","0.0-314.0","","<img src=""img/set1/S3.jpg"" width=""540"" height = ""360"" style=""border:16px solid orange"">","null","","","","","","","",""
"null","","html-keyboard-response","315","431282","0.0-315.0","","","null","","","","","","","",""
"442.5","","image-keyboard-response","316","431726","0.0-316.0","","img/set1/S3.jpg","72","3","random","72","random,structured_normal,structured_load,structured_incentive","3,4,2,3,2,1","true","",""
"null","","html-keyboard-response","317","432082","0.0-317.0","","<img src=""img/set1/S3.jpg"" width=""540"" height = ""360"" style=""border:16px solid orange"">","null","","","","","","","",""
"null","","html-keyboard-response","318","432284","0.0-318.0","","","null","","","","","","","",""
"551.6000000238419","","image-keyboard-response","319","432837","0.0-319.0","","img/set1/S1.jpg","83","1","random","83","random,structured_normal,structured_load,structured_incentive","3,4,2,3,2,1","true","",""
"null","","html-keyboard-response","320","433193","0.0-320.0","","<img src=""img/set1/S1.jpg"" width=""540"" height = ""360"" style=""border:16px solid orange"">","null","","","","","","","",""
"null","","html-keyboard-response","321","433399","0.0-321.0","","","null","","","","","","","",""
"845.6999999880791","","image-keyboard-response","322","434246","0.0-322.0","","img/set1/S4.jpg","74","4","random","74","random,structured_normal,structured_load,structured_incentive","3,4,2,3,2,1","true","",""
"null","","html-keyboard-response","323","434602","0.0-323.0","","<img src=""img/set1/S4.jpg"" width=""540"" height = ""360"" style=""border:16px solid orange"">","null","","","","","","","",""
"null","","html-keyboard-response","324","434808","0.0-324.0","","","null","","","","","","","",""
"637","","image-keyboard-response","325","435446","0.0-325.0","","img/set1/S3.jpg","68","3","random","72","random,structured_normal,structured_load,structured_incentive","3,4,2,3,2,1","false","",""
"null","","html-keyboard-response","326","435803","0.0-326.0","","<img src=""img/set1/S3.jpg"" width=""540"" height = ""360"">","null","","","","","","","",""
"null","","html-keyboard-response","327","436009","0.0-327.0","","","null","","","","","","","",""
"603.8000000119209","","image-keyboard-response","328","436614","0.0-328.0","","img/set1/S2.jpg","68","2","random","68","random,structured_normal,structured_load,structured_incentive","3,4,2,3,2,1","true","",""
"null","","html-keyboard-response","329","436965","0.0-329.0","","<img src=""img/set1/S2.jpg"" width=""540"" height = ""360"" style=""border:16px solid orange"">","null","","","","","","","",""
"null","","html-keyboard-response","330","437171","0.0-330.0","","","null","","","","","","","",""
"753.3999999761581","","image-keyboard-response","331","437926","0.0-331.0","","img/set1/S4.jpg","74","4","random","74","random,structured_normal,structured_load,structured_incentive","3,4,2,3,2,1","true","",""
"null","","html-keyboard-response","332","438280","0.0-332.0","","<img src=""img/set1/S4.jpg"" width=""540"" height = ""360"" style=""border:16px solid orange"">","null","","","","","","","",""
"null","","html-keyboard-response","333","438482","0.0-333.0","","","null","","","","","","","",""
"490.69999998807907","","image-keyboard-response","334","438973","0.0-334.0","","img/set1/S3.jpg","72","3","random","72","random,structured_normal,structured_load,structured_incentive","3,4,2,3,2,1","true","",""
"null","","html-keyboard-response","335","439329","0.0-335.0","","<img src=""img/set1/S3.jpg"" width=""540"" height = ""360"" style=""border:16px solid orange"">","null","","","","","","","",""
"null","","html-keyboard-response","336","439532","0.0-336.0","","","null","","","","","","","",""
"584.4000000357628","","image-keyboard-response","337","440118","0.0-337.0","","img/set1/S4.jpg","74","4","random","74","random,structured_normal,structured_load,structured_incentive","3,4,2,3,2,1","true","",""
"null","","html-keyboard-response","338","440469","0.0-338.0","","<img src=""img/set1/S4.jpg"" width=""540"" height = ""360"" style=""border:16px solid orange"">","null","","","","","","","",""
"null","","html-keyboard-response","339","440673","0.0-339.0","","","null","","","","","","","",""
"659","","image-keyboard-response","340","441333","0.0-340.0","","img/set1/S4.jpg","72","4","random","74","random,structured_normal,structured_load,structured_incentive","3,4,2,3,2,1","false","",""
"null","","html-keyboard-response","341","441690","0.0-341.0","","<img src=""img/set1/S4.jpg"" width=""540"" height = ""360"">","null","","","","","","","",""
"null","","html-keyboard-response","342","441891","0.0-342.0","","","null","","","","","","","",""
"1144.7000000476837","","image-keyboard-response","343","443037","0.0-343.0","","img/set1/S1.jpg","68","1","random","83","random,structured_normal,structured_load,structured_incentive","3,4,2,3,2,1","false","",""
"null","","html-keyboard-response","344","443392","0.0-344.0","","<img src=""img/set1/S1.jpg"" width=""540"" height = ""360"">","null","","","","","","","",""
"null","","html-keyboard-response","345","443593","0.0-345.0","","","null","","","","","","","",""
"530.5","","image-keyboard-response","346","444125","0.0-346.0","","img/set1/S2.jpg","68","2","random","68","random,structured_normal,structured_load,structured_incentive","3,4,2,3,2,1","true","",""
"null","","html-keyboard-response","347","444477","0.0-347.0","","<img src=""img/set1/S2.jpg"" width=""540"" height = ""360"" style=""border:16px solid orange"">","null","","","","","","","",""
"null","","html-keyboard-response","348","444678","0.0-348.0","","","null","","","","","","","",""
"790.5999999642372","","image-keyboard-response","349","445470","0.0-349.0","","img/set1/S1.jpg","83","1","random","83","random,structured_normal,structured_load,structured_incentive","3,4,2,3,2,1","true","",""
"null","","html-keyboard-response","350","445826","0.0-350.0","","<img src=""img/set1/S1.jpg"" width=""540"" height = ""360"" style=""border:16px solid orange"">","null","","","","","","","",""
"null","","html-keyboard-response","351","446032","0.0-351.0","","","null","","","","","","","",""
"580.5999999642372","","image-keyboard-response","352","446613","0.0-352.0","","img/set1/S2.jpg","68","2","random","68","random,structured_normal,structured_load,structured_incentive","3,4,2,3,2,1","true","",""
"null","","html-keyboard-response","353","446965","0.0-353.0","","<img src=""img/set1/S2.jpg"" width=""540"" height = ""360"" style=""border:16px solid orange"">","null","","","","","","","",""
"null","","html-keyboard-response","354","447166","0.0-354.0","","","null","","","","","","","",""
"630.1999999880791","","image-keyboard-response","355","447797","0.0-355.0","","img/set1/S2.jpg","68","2","random","68","random,structured_normal,structured_load,structured_incentive","3,4,2,3,2,1","true","",""
"null","","html-keyboard-response","356","448149","0.0-356.0","","<img src=""img/set1/S2.jpg"" width=""540"" height = ""360"" style=""border:16px solid orange"">","null","","","","","","","",""
"null","","html-keyboard-response","357","448351","0.0-357.0","","","null","","","","","","","",""
"836.6999999880791","","image-keyboard-response","358","449189","0.0-358.0","","img/set1/S3.jpg","72","3","random","72","random,structured_normal,structured_load,structured_incentive","3,4,2,3,2,1","true","",""
"null","","html-keyboard-response","359","449544","0.0-359.0","","<img src=""img/set1/S3.jpg"" width=""540"" height = ""360"" style=""border:16px solid orange"">","null","","","","","","","",""
"null","","html-keyboard-response","360","449746","0.0-360.0","","","null","","","","","","","",""
"570","","image-keyboard-response","361","450317","0.0-361.0","","img/set1/S4.jpg","74","4","random","74","random,structured_normal,structured_load,structured_incentive","3,4,2,3,2,1","true","",""
"null","","html-keyboard-response","362","450670","0.0-362.0","","<img src=""img/set1/S4.jpg"" width=""540"" height = ""360"" style=""border:16px solid orange"">","null","","","","","","","",""
"null","","html-keyboard-response","363","450872","0.0-363.0","","","null","","","","","","","",""
"25077.19999998808","","html-keyboard-response","364","475949","0.0-364.0","","<p class=""center-content"">You have completed a block! </p><p class=""center-content"">Press any key on the keyboard to continue, </p><p class=""center-content"">or wait for the automatic progression to the next block after one minute.</p>","32","","","","","","","",""
"17548.100000023842","","instructions","365","493497","0.0-365.0","[{""page_index"":0,""viewing_time"":17547.80000001192}]","","","","","","","","","",""
"5917.199999988079","","instructions","366","499415","0.0-366.0","[{""page_index"":0,""viewing_time"":5917}]","","","","","","","","","",""
"788.5999999642372","","image-keyboard-response","367","500205","0.0-367.0","","img/set2/S2.jpg","83","2","structured_normal","68","random,structured_normal,structured_load,structured_incentive","3,4,2,3,2,1","false","",""
"null","","html-keyboard-response","368","500558","0.0-368.0","","<img src=""img/set2/S2.jpg"" width=""540"" height = ""360"">","null","","","","","","","",""
"null","","html-keyboard-response","369","500760","0.0-369.0","","","null","","","","","","","",""
"433.19999998807907","","image-keyboard-response","370","501194","0.0-370.0","","img/set2/S2.jpg","68","2","structured_normal","68","random,structured_normal,structured_load,structured_incentive","3,4,2,3,2,1","true","",""
"null","","html-keyboard-response","371","501548","0.0-371.0","","<img src=""img/set2/S2.jpg"" width=""540"" height = ""360"" style=""border:16px solid orange"">","null","","","","","","","",""
"null","","html-keyboard-response","372","501754","0.0-372.0","","","null","","","","","","","",""
"1263.5","","image-keyboard-response","373","503018","0.0-373.0","","img/set2/S1.jpg","74","1","structured_normal","83","random,structured_normal,structured_load,structured_incentive","3,4,2,3,2,1","false","",""
"null","","html-keyboard-response","374","503370","0.0-374.0","","<img src=""img/set2/S1.jpg"" width=""540"" height = ""360"">","null","","","","","","","",""
"null","","html-keyboard-response","375","503574","0.0-375.0","","","null","","","","","","","",""
"764.8999999761581","","image-keyboard-response","376","504339","0.0-376.0","","img/set2/S2.jpg","68","2","structured_normal","68","random,structured_normal,structured_load,structured_incentive","3,4,2,3,2,1","true","",""
"null","","html-keyboard-response","377","504696","0.0-377.0","","<img src=""img/set2/S2.jpg"" width=""540"" height = ""360"" style=""border:16px solid orange"">","null","","","","","","","",""
"null","","html-keyboard-response","378","504901","0.0-378.0","","","null","","","","","","","",""
"733.6999999880791","","image-keyboard-response","379","505635","0.0-379.0","","img/set2/S3.jpg","74","3","structured_normal","72","random,structured_normal,structured_load,structured_incentive","3,4,2,3,2,1","false","",""
"null","","html-keyboard-response","380","505987","0.0-380.0","","<img src=""img/set2/S3.jpg"" width=""540"" height = ""360"">","null","","","","","","","",""
"null","","html-keyboard-response","381","506189","0.0-381.0","","","null","","","","","","","",""
"670","","image-keyboard-response","382","506859","0.0-382.0","","img/set2/S4.jpg","83","4","structured_normal","74","random,structured_normal,structured_load,structured_incentive","3,4,2,3,2,1","false","",""
"null","","html-keyboard-response","383","507212","0.0-383.0","","<img src=""img/set2/S4.jpg"" width=""540"" height = ""360"">","null","","","","","","","",""
"null","","html-keyboard-response","384","507418","0.0-384.0","","","null","","","","","","","",""
"743.3000000119209","","image-keyboard-response","385","508162","0.0-385.0","","img/set2/S3.jpg","74","3","structured_normal","72","random,structured_normal,structured_load,structured_incentive","3,4,2,3,2,1","false","",""
"null","","html-keyboard-response","386","508519","0.0-386.0","","<img src=""img/set2/S3.jpg"" width=""540"" height = ""360"">","null","","","","","","","",""
"null","","html-keyboard-response","387","508720","0.0-387.0","","","null","","","","","","","",""
"906.3000000119209","","image-keyboard-response","388","509627","0.0-388.0","","img/set2/S4.jpg","74","4","structured_normal","74","random,structured_normal,structured_load,structured_incentive","3,4,2,3,2,1","true","",""
"null","","html-keyboard-response","389","509981","0.0-389.0","","<img src=""img/set2/S4.jpg"" width=""540"" height = ""360"" style=""border:16px solid orange"">","null","","","","","","","",""
"null","","html-keyboard-response","390","510181","0.0-390.0","","","null","","","","","","","",""
"821.1999999880791","","image-keyboard-response","391","511003","0.0-391.0","","img/set2/S1.jpg","68","1","structured_normal","83","random,structured_normal,structured_load,structured_incentive","3,4,2,3,2,1","false","",""
"null","","html-keyboard-response","392","511358","0.0-392.0","","<img src=""img/set2/S1.jpg"" width=""540"" height = ""360"">","null","","","","","","","",""
"null","","html-keyboard-response","393","511561","0.0-393.0","","","null","","","","","","","",""
"448.89999997615814","","image-keyboard-response","394","512011","0.0-394.0","","img/set2/S1.jpg","83","1","structured_normal","83","random,structured_normal,structured_load,structured_incentive","3,4,2,3,2,1","true","",""
"null","","html-keyboard-response","395","512364","0.0-395.0","","<img src=""img/set2/S1.jpg"" width=""540"" height = ""360"" style=""border:16px solid orange"">","null","","","","","","","",""
"null","","html-keyboard-response","396","512569","0.0-396.0","","","null","","","","","","","",""
"1423.5999999642372","","image-keyboard-response","397","513994","0.0-397.0","","img/set2/S3.jpg","74","3","structured_normal","72","random,structured_normal,structured_load,structured_incentive","3,4,2,3,2,1","false","",""
"null","","html-keyboard-response","398","514349","0.0-398.0","","<img src=""img/set2/S3.jpg"" width=""540"" height = ""360"">","null","","","","","","","",""
"null","","html-keyboard-response","399","514555","0.0-399.0","","","null","","","","","","","",""
"1038.800000011921","","image-keyboard-response","400","515595","0.0-400.0","","img/set2/S4.jpg","74","4","structured_normal","74","random,structured_normal,structured_load,structured_incentive","3,4,2,3,2,1","true","",""
"null","","html-keyboard-response","401","515951","0.0-401.0","","<img src=""img/set2/S4.jpg"" width=""540"" height = ""360"" style=""border:16px solid orange"">","null","","","","","","","",""
"null","","html-keyboard-response","402","516158","0.0-402.0","","","null","","","","","","","",""
"1012.5","","image-keyboard-response","403","517171","0.0-403.0","","img/set2/S2.jpg","68","2","structured_normal","68","random,structured_normal,structured_load,structured_incentive","3,4,2,3,2,1","true","",""
"null","","html-keyboard-response","404","517523","0.0-404.0","","<img src=""img/set2/S2.jpg"" width=""540"" height = ""360"" style=""border:16px solid orange"">","null","","","","","","","",""
"null","","html-keyboard-response","405","517724","0.0-405.0","","","null","","","","","","","",""
"null","","image-keyboard-response","406","520229","0.0-406.0","","img/set2/S3.jpg","null","3","structured_normal","72","random,structured_normal,structured_load,structured_incentive","3,4,2,3,2,1","false","",""
"null","","html-keyboard-response","407","520586","0.0-407.0","","<img src=""img/set2/S3.jpg"" width=""540"" height = ""360"">","null","","","","","","","",""
"null","","html-keyboard-response","408","520792","0.0-408.0","","","null","","","","","","","",""
"690.5","","image-keyboard-response","409","521483","0.0-409.0","","img/set2/S4.jpg","83","4","structured_normal","74","random,structured_normal,structured_load,structured_incentive","3,4,2,3,2,1","false","",""
"null","","html-keyboard-response","410","521835","0.0-410.0","","<img src=""img/set2/S4.jpg"" width=""540"" height = ""360"">","null","","","","","","","",""
"null","","html-keyboard-response","411","522041","0.0-411.0","","","null","","","","","","","",""
"776.5999999642372","","image-keyboard-response","412","522819","0.0-412.0","","img/set2/S2.jpg","68","2","structured_normal","68","random,structured_normal,structured_load,structured_incentive","3,4,2,3,2,1","true","",""
"null","","html-keyboard-response","413","523175","0.0-413.0","","<img src=""img/set2/S2.jpg"" width=""540"" height = ""360"" style=""border:16px solid orange"">","null","","","","","","","",""
"null","","html-keyboard-response","414","523376","0.0-414.0","","","null","","","","","","","",""
"961.5","","image-keyboard-response","415","524339","0.0-415.0","","img/set2/S3.jpg","83","3","structured_normal","72","random,structured_normal,structured_load,structured_incentive","3,4,2,3,2,1","false","",""
"null","","html-keyboard-response","416","524692","0.0-416.0","","<img src=""img/set2/S3.jpg"" width=""540"" height = ""360"">","null","","","","","","","",""
"null","","html-keyboard-response","417","524897","0.0-417.0","","","null","","","","","","","",""
"704.8000000119209","","image-keyboard-response","418","525602","0.0-418.0","","img/set2/S4.jpg","68","4","structured_normal","74","random,structured_normal,structured_load,structured_incentive","3,4,2,3,2,1","false","",""
"null","","html-keyboard-response","419","525954","0.0-419.0","","<img src=""img/set2/S4.jpg"" width=""540"" height = ""360"">","null","","","","","","","",""
"null","","html-keyboard-response","420","526160","0.0-420.0","","","null","","","","","","","",""
"1169.6000000238419","","image-keyboard-response","421","527331","0.0-421.0","","img/set2/S1.jpg","83","1","structured_normal","83","random,structured_normal,structured_load,structured_incentive","3,4,2,3,2,1","true","",""
"null","","html-keyboard-response","422","527682","0.0-422.0","","<img src=""img/set2/S1.jpg"" width=""540"" height = ""360"" style=""border:16px solid orange"">","null","","","","","","","",""
"null","","html-keyboard-response","423","527886","0.0-423.0","","","null","","","","","","","",""
"644.1000000238419","","image-keyboard-response","424","528531","0.0-424.0","","img/set2/S1.jpg","83","1","structured_normal","83","random,structured_normal,structured_load,structured_incentive","3,4,2,3,2,1","true","",""
"null","","html-keyboard-response","425","528887","0.0-425.0","","<img src=""img/set2/S1.jpg"" width=""540"" height = ""360"" style=""border:16px solid orange"">","null","","","","","","","",""
"null","","html-keyboard-response","426","529091","0.0-426.0","","","null","","","","","","","",""
"846.0999999642372","","image-keyboard-response","427","529938","0.0-427.0","","img/set2/S2.jpg","74","2","structured_normal","68","random,structured_normal,structured_load,structured_incentive","3,4,2,3,2,1","false","",""
"null","","html-keyboard-response","428","530295","0.0-428.0","","<img src=""img/set2/S2.jpg"" width=""540"" height = ""360"">","null","","","","","","","",""
"null","","html-keyboard-response","429","530497","0.0-429.0","","","null","","","","","","","",""
"1025.300000011921","","image-keyboard-response","430","531523","0.0-430.0","","img/set2/S2.jpg","68","2","structured_normal","68","random,structured_normal,structured_load,structured_incentive","3,4,2,3,2,1","true","",""
"null","","html-keyboard-response","431","531880","0.0-431.0","","<img src=""img/set2/S2.jpg"" width=""540"" height = ""360"" style=""border:16px solid orange"">","null","","","","","","","",""
"null","","html-keyboard-response","432","532086","0.0-432.0","","","null","","","","","","","",""
"603.6999999880791","","image-keyboard-response","433","532690","0.0-433.0","","img/set2/S2.jpg","68","2","structured_normal","68","random,structured_normal,structured_load,structured_incentive","3,4,2,3,2,1","true","",""
"null","","html-keyboard-response","434","533042","0.0-434.0","","<img src=""img/set2/S2.jpg"" width=""540"" height = ""360"" style=""border:16px solid orange"">","null","","","","","","","",""
"null","","html-keyboard-response","435","533244","0.0-435.0","","","null","","","","","","","",""
"508.39999997615814","","image-keyboard-response","436","533753","0.0-436.0","","img/set2/S2.jpg","68","2","structured_normal","68","random,structured_normal,structured_load,structured_incentive","3,4,2,3,2,1","true","",""
"null","","html-keyboard-response","437","534107","0.0-437.0","","<img src=""img/set2/S2.jpg"" width=""540"" height = ""360"" style=""border:16px solid orange"">","null","","","","","","","",""
"null","","html-keyboard-response","438","534309","0.0-438.0","","","null","","","","","","","",""
"548.2999999523163","","image-keyboard-response","439","534858","0.0-439.0","","img/set2/S2.jpg","68","2","structured_normal","68","random,structured_normal,structured_load,structured_incentive","3,4,2,3,2,1","true","",""
"null","","html-keyboard-response","440","535210","0.0-440.0","","<img src=""img/set2/S2.jpg"" width=""540"" height = ""360"" style=""border:16px solid orange"">","null","","","","","","","",""
"null","","html-keyboard-response","441","535414","0.0-441.0","","","null","","","","","","","",""
"555.0999999642372","","image-keyboard-response","442","535970","0.0-442.0","","img/set2/S1.jpg","83","1","structured_normal","83","random,structured_normal,structured_load,structured_incentive","3,4,2,3,2,1","true","",""
"null","","html-keyboard-response","443","536327","0.0-443.0","","<img src=""img/set2/S1.jpg"" width=""540"" height = ""360"" style=""border:16px solid orange"">","null","","","","","","","",""
"null","","html-keyboard-response","444","536529","0.0-444.0","","","null","","","","","","","",""
"527.6000000238419","","image-keyboard-response","445","537058","0.0-445.0","","img/set2/S1.jpg","83","1","structured_normal","83","random,structured_normal,structured_load,structured_incentive","3,4,2,3,2,1","true","",""
"null","","html-keyboard-response","446","537414","0.0-446.0","","<img src=""img/set2/S1.jpg"" width=""540"" height = ""360"" style=""border:16px solid orange"">","null","","","","","","","",""
"null","","html-keyboard-response","447","537620","0.0-447.0","","","null","","","","","","","",""
"389","","image-keyboard-response","448","538010","0.0-448.0","","img/set2/S1.jpg","83","1","structured_normal","83","random,structured_normal,structured_load,structured_incentive","3,4,2,3,2,1","true","",""
"null","","html-keyboard-response","449","538362","0.0-449.0","","<img src=""img/set2/S1.jpg"" width=""540"" height = ""360"" style=""border:16px solid orange"">","null","","","","","","","",""
"null","","html-keyboard-response","450","538568","0.0-450.0","","","null","","","","","","","",""
"448.5","","image-keyboard-response","451","539018","0.0-451.0","","img/set2/S1.jpg","83","1","structured_normal","83","random,structured_normal,structured_load,structured_incentive","3,4,2,3,2,1","true","",""
"null","","html-keyboard-response","452","539371","0.0-452.0","","<img src=""img/set2/S1.jpg"" width=""540"" height = ""360"" style=""border:16px solid orange"">","null","","","","","","","",""
"null","","html-keyboard-response","453","539574","0.0-453.0","","","null","","","","","","","",""
"875.6000000238419","","image-keyboard-response","454","540450","0.0-454.0","","img/set2/S3.jpg","74","3","structured_normal","72","random,structured_normal,structured_load,structured_incentive","3,4,2,3,2,1","false","",""
"null","","html-keyboard-response","455","540802","0.0-455.0","","<img src=""img/set2/S3.jpg"" width=""540"" height = ""360"">","null","","","","","","","",""
"null","","html-keyboard-response","456","541005","0.0-456.0","","","null","","","","","","","",""
"828.5","","image-keyboard-response","457","541835","0.0-457.0","","img/set2/S4.jpg","68","4","structured_normal","74","random,structured_normal,structured_load,structured_incentive","3,4,2,3,2,1","false","",""
"null","","html-keyboard-response","458","542187","0.0-458.0","","<img src=""img/set2/S4.jpg"" width=""540"" height = ""360"">","null","","","","","","","",""
"null","","html-keyboard-response","459","542391","0.0-459.0","","","null","","","","","","","",""
"586.1999999880791","","image-keyboard-response","460","542978","0.0-460.0","","img/set2/S3.jpg","74","3","structured_normal","72","random,structured_normal,structured_load,structured_incentive","3,4,2,3,2,1","false","",""
"null","","html-keyboard-response","461","543335","0.0-461.0","","<img src=""img/set2/S3.jpg"" width=""540"" height = ""360"">","null","","","","","","","",""
"null","","html-keyboard-response","462","543541","0.0-462.0","","","null","","","","","","","",""
"580","","image-keyboard-response","463","544122","0.0-463.0","","img/set2/S4.jpg","74","4","structured_normal","74","random,structured_normal,structured_load,structured_incentive","3,4,2,3,2,1","true","",""
"null","","html-keyboard-response","464","544478","0.0-464.0","","<img src=""img/set2/S4.jpg"" width=""540"" height = ""360"" style=""border:16px solid orange"">","null","","","","","","","",""
"null","","html-keyboard-response","465","544684","0.0-465.0","","","null","","","","","","","",""
"812.5","","image-keyboard-response","466","545498","0.0-466.0","","img/set2/S1.jpg","83","1","structured_normal","83","random,structured_normal,structured_load,structured_incentive","3,4,2,3,2,1","true","",""
"null","","html-keyboard-response","467","545850","0.0-467.0","","<img src=""img/set2/S1.jpg"" width=""540"" height = ""360"" style=""border:16px solid orange"">","null","","","","","","","",""
"null","","html-keyboard-response","468","546055","0.0-468.0","","","null","","","","","","","",""
"809.3999999761581","","image-keyboard-response","469","546866","0.0-469.0","","img/set2/S2.jpg","68","2","structured_normal","68","random,structured_normal,structured_load,structured_incentive","3,4,2,3,2,1","true","",""
"null","","html-keyboard-response","470","547222","0.0-470.0","","<img src=""img/set2/S2.jpg"" width=""540"" height = ""360"" style=""border:16px solid orange"">","null","","","","","","","",""
"null","","html-keyboard-response","471","547425","0.0-471.0","","","null","","","","","","","",""
"544.0999999642372","","image-keyboard-response","472","547970","0.0-472.0","","img/set2/S2.jpg","68","2","structured_normal","68","random,structured_normal,structured_load,structured_incentive","3,4,2,3,2,1","true","",""
"null","","html-keyboard-response","473","548325","0.0-473.0","","<img src=""img/set2/S2.jpg"" width=""540"" height = ""360"" style=""border:16px solid orange"">","null","","","","","","","",""
"null","","html-keyboard-response","474","548527","0.0-474.0","","","null","","","","","","","",""
"2329.399999976158","","image-keyboard-response","475","550858","0.0-475.0","","img/set2/S3.jpg","74","3","structured_normal","72","random,structured_normal,structured_load,structured_incentive","3,4,2,3,2,1","false","",""
"null","","html-keyboard-response","476","551210","0.0-476.0","","<img src=""img/set2/S3.jpg"" width=""540"" height = ""360"">","null","","","","","","","",""
"null","","html-keyboard-response","477","551410","0.0-477.0","","","null","","","","","","","",""
"870.8999999761581","","image-keyboard-response","478","552282","0.0-478.0","","img/set2/S4.jpg","68","4","structured_normal","74","random,structured_normal,structured_load,structured_incentive","3,4,2,3,2,1","false","",""
"null","","html-keyboard-response","479","552637","0.0-479.0","","<img src=""img/set2/S4.jpg"" width=""540"" height = ""360"">","null","","","","","","","",""
"null","","html-keyboard-response","480","552838","0.0-480.0","","","null","","","","","","","",""
"545.5999999642372","","image-keyboard-response","481","553384","0.0-481.0","","img/set2/S3.jpg","68","3","structured_normal","72","random,structured_normal,structured_load,structured_incentive","3,4,2,3,2,1","false","",""
"null","","html-keyboard-response","482","553737","0.0-482.0","","<img src=""img/set2/S3.jpg"" width=""540"" height = ""360"">","null","","","","","","","",""
"null","","html-keyboard-response","483","553943","0.0-483.0","","","null","","","","","","","",""
"473.39999997615814","","image-keyboard-response","484","554417","0.0-484.0","","img/set2/S4.jpg","83","4","structured_normal","74","random,structured_normal,structured_load,structured_incentive","3,4,2,3,2,1","false","",""
"null","","html-keyboard-response","485","554769","0.0-485.0","","<img src=""img/set2/S4.jpg"" width=""540"" height = ""360"">","null","","","","","","","",""
"null","","html-keyboard-response","486","554975","0.0-486.0","","","null","","","","","","","",""
"1017.1000000238419","","image-keyboard-response","487","555994","0.0-487.0","","img/set2/S1.jpg","83","1","structured_normal","83","random,structured_normal,structured_load,structured_incentive","3,4,2,3,2,1","true","",""
"null","","html-keyboard-response","488","556345","0.0-488.0","","<img src=""img/set2/S1.jpg"" width=""540"" height = ""360"" style=""border:16px solid orange"">","null","","","","","","","",""
"null","","html-keyboard-response","489","556550","0.0-489.0","","","null","","","","","","","",""
"569.8999999761581","","image-keyboard-response","490","557121","0.0-490.0","","img/set2/S3.jpg","83","3","structured_normal","72","random,structured_normal,structured_load,structured_incentive","3,4,2,3,2,1","false","",""
"null","","html-keyboard-response","491","557475","0.0-491.0","","<img src=""img/set2/S3.jpg"" width=""540"" height = ""360"">","null","","","","","","","",""
"null","","html-keyboard-response","492","557680","0.0-492.0","","","null","","","","","","","",""
"575.6999999880791","","image-keyboard-response","493","558256","0.0-493.0","","img/set2/S4.jpg","68","4","structured_normal","74","random,structured_normal,structured_load,structured_incentive","3,4,2,3,2,1","false","",""
"null","","html-keyboard-response","494","558608","0.0-494.0","","<img src=""img/set2/S4.jpg"" width=""540"" height = ""360"">","null","","","","","","","",""
"null","","html-keyboard-response","495","558809","0.0-495.0","","","null","","","","","","","",""
"655.1999999880791","","image-keyboard-response","496","559465","0.0-496.0","","img/set2/S2.jpg","74","2","structured_normal","68","random,structured_normal,structured_load,structured_incentive","3,4,2,3,2,1","false","",""
"null","","html-keyboard-response","497","559817","0.0-497.0","","<img src=""img/set2/S2.jpg"" width=""540"" height = ""360"">","null","","","","","","","",""
"null","","html-keyboard-response","498","560018","0.0-498.0","","","null","","","","","","","",""
"934.6000000238419","","image-keyboard-response","499","560954","0.0-499.0","","img/set2/S3.jpg","83","3","structured_normal","72","random,structured_normal,structured_load,structured_incentive","3,4,2,3,2,1","false","",""
"null","","html-keyboard-response","500","561308","0.0-500.0","","<img src=""img/set2/S3.jpg"" width=""540"" height = ""360"">","null","","","","","","","",""
"null","","html-keyboard-response","501","561513","0.0-501.0","","","null","","","","","","","",""
"694.3000000119209","","image-keyboard-response","502","562208","0.0-502.0","","img/set2/S4.jpg","68","4","structured_normal","74","random,structured_normal,structured_load,structured_incentive","3,4,2,3,2,1","false","",""
"null","","html-keyboard-response","503","562559","0.0-503.0","","<img src=""img/set2/S4.jpg"" width=""540"" height = ""360"">","null","","","","","","","",""
"null","","html-keyboard-response","504","562765","0.0-504.0","","","null","","","","","","","",""
"667.1999999880791","","image-keyboard-response","505","563433","0.0-505.0","","img/set2/S1.jpg","83","1","structured_normal","83","random,structured_normal,structured_load,structured_incentive","3,4,2,3,2,1","true","",""
"null","","html-keyboard-response","506","563789","0.0-506.0","","<img src=""img/set2/S1.jpg"" width=""540"" height = ""360"" style=""border:16px solid orange"">","null","","","","","","","",""
"null","","html-keyboard-response","507","563995","0.0-507.0","","","null","","","","","","","",""
"444.80000001192093","","image-keyboard-response","508","564441","0.0-508.0","","img/set2/S1.jpg","83","1","structured_normal","83","random,structured_normal,structured_load,structured_incentive","3,4,2,3,2,1","true","",""
"null","","html-keyboard-response","509","564798","0.0-509.0","","<img src=""img/set2/S1.jpg"" width=""540"" height = ""360"" style=""border:16px solid orange"">","null","","","","","","","",""
"null","","html-keyboard-response","510","565002","0.0-510.0","","","null","","","","","","","",""
"1358.199999988079","","image-keyboard-response","511","566361","0.0-511.0","","img/set2/S3.jpg","74","3","structured_normal","72","random,structured_normal,structured_load,structured_incentive","3,4,2,3,2,1","false","",""
"null","","html-keyboard-response","512","566715","0.0-512.0","","<img src=""img/set2/S3.jpg"" width=""540"" height = ""360"">","null","","","","","","","",""
"null","","html-keyboard-response","513","566917","0.0-513.0","","","null","","","","","","","",""
"34.59999996423721","","image-keyboard-response","514","566953","0.0-514.0","","img/set2/S4.jpg","68","4","structured_normal","74","random,structured_normal,structured_load,structured_incentive","3,4,2,3,2,1","false","",""
"null","","html-keyboard-response","515","567306","0.0-515.0","","<img src=""img/set2/S4.jpg"" width=""540"" height = ""360"">","null","","","","","","","",""
"null","","html-keyboard-response","516","567507","0.0-516.0","","","null","","","","","","","",""
"605","","image-keyboard-response","517","568113","0.0-517.0","","img/set2/S1.jpg","83","1","structured_normal","83","random,structured_normal,structured_load,structured_incentive","3,4,2,3,2,1","true","",""
"null","","html-keyboard-response","518","568468","0.0-518.0","","<img src=""img/set2/S1.jpg"" width=""540"" height = ""360"" style=""border:16px solid orange"">","null","","","","","","","",""
"null","","html-keyboard-response","519","568674","0.0-519.0","","","null","","","","","","","",""
"486.5","","image-keyboard-response","520","569161","0.0-520.0","","img/set2/S1.jpg","83","1","structured_normal","83","random,structured_normal,structured_load,structured_incentive","3,4,2,3,2,1","true","",""
"null","","html-keyboard-response","521","569518","0.0-521.0","","<img src=""img/set2/S1.jpg"" width=""540"" height = ""360"" style=""border:16px solid orange"">","null","","","","","","","",""
"null","","html-keyboard-response","522","569724","0.0-522.0","","","null","","","","","","","",""
"467.19999998807907","","image-keyboard-response","523","570192","0.0-523.0","","img/set2/S1.jpg","83","1","structured_normal","83","random,structured_normal,structured_load,structured_incentive","3,4,2,3,2,1","true","",""
"null","","html-keyboard-response","524","570548","0.0-524.0","","<img src=""img/set2/S1.jpg"" width=""540"" height = ""360"" style=""border:16px solid orange"">","null","","","","","","","",""
"null","","html-keyboard-response","525","570754","0.0-525.0","","","null","","","","","","","",""
"452.5","","image-keyboard-response","526","571208","0.0-526.0","","img/set2/S1.jpg","83","1","structured_normal","83","random,structured_normal,structured_load,structured_incentive","3,4,2,3,2,1","true","",""
"null","","html-keyboard-response","527","571564","0.0-527.0","","<img src=""img/set2/S1.jpg"" width=""540"" height = ""360"" style=""border:16px solid orange"">","null","","","","","","","",""
"null","","html-keyboard-response","528","571767","0.0-528.0","","","null","","","","","","","",""
"825.4000000357628","","image-keyboard-response","529","572593","0.0-529.0","","img/set2/S3.jpg","68","3","structured_normal","72","random,structured_normal,structured_load,structured_incentive","3,4,2,3,2,1","false","",""
"null","","html-keyboard-response","530","572945","0.0-530.0","","<img src=""img/set2/S3.jpg"" width=""540"" height = ""360"">","null","","","","","","","",""
"null","","html-keyboard-response","531","573148","0.0-531.0","","","null","","","","","","","",""
"508.39999997615814","","image-keyboard-response","532","573657","0.0-532.0","","img/set2/S4.jpg","83","4","structured_normal","74","random,structured_normal,structured_load,structured_incentive","3,4,2,3,2,1","false","",""
"null","","html-keyboard-response","533","574011","0.0-533.0","","<img src=""img/set2/S4.jpg"" width=""540"" height = ""360"">","null","","","","","","","",""
"null","","html-keyboard-response","534","574217","0.0-534.0","","","null","","","","","","","",""
"775.5","","image-keyboard-response","535","574993","0.0-535.0","","img/set2/S3.jpg","74","3","structured_normal","72","random,structured_normal,structured_load,structured_incentive","3,4,2,3,2,1","false","",""
"null","","html-keyboard-response","536","575349","0.0-536.0","","<img src=""img/set2/S3.jpg"" width=""540"" height = ""360"">","null","","","","","","","",""
"null","","html-keyboard-response","537","575554","0.0-537.0","","","null","","","","","","","",""
"1022.3000000119209","","image-keyboard-response","538","576577","0.0-538.0","","img/set2/S4.jpg","74","4","structured_normal","74","random,structured_normal,structured_load,structured_incentive","3,4,2,3,2,1","true","",""
"null","","html-keyboard-response","539","576932","0.0-539.0","","<img src=""img/set2/S4.jpg"" width=""540"" height = ""360"" style=""border:16px solid orange"">","null","","","","","","","",""
"null","","html-keyboard-response","540","577137","0.0-540.0","","","null","","","","","","","",""
"781.5","","image-keyboard-response","541","577920","0.0-541.0","","img/set2/S1.jpg","83","1","structured_normal","83","random,structured_normal,structured_load,structured_incentive","3,4,2,3,2,1","true","",""
"null","","html-keyboard-response","542","578276","0.0-542.0","","<img src=""img/set2/S1.jpg"" width=""540"" height = ""360"" style=""border:16px solid orange"">","null","","","","","","","",""
"null","","html-keyboard-response","543","578482","0.0-543.0","","","null","","","","","","","",""
"861.9000000357628","","image-keyboard-response","544","579345","0.0-544.0","","img/set2/S2.jpg","68","2","structured_normal","68","random,structured_normal,structured_load,structured_incentive","3,4,2,3,2,1","true","",""
"null","","html-keyboard-response","545","579697","0.0-545.0","","<img src=""img/set2/S2.jpg"" width=""540"" height = ""360"" style=""border:16px solid orange"">","null","","","","","","","",""
"null","","html-keyboard-response","546","579898","0.0-546.0","","","null","","","","","","","",""
"669.6999999880791","","image-keyboard-response","547","580569","0.0-547.0","","img/set2/S1.jpg","83","1","structured_normal","83","random,structured_normal,structured_load,structured_incentive","3,4,2,3,2,1","true","",""
"null","","html-keyboard-response","548","580925","0.0-548.0","","<img src=""img/set2/S1.jpg"" width=""540"" height = ""360"" style=""border:16px solid orange"">","null","","","","","","","",""
"null","","html-keyboard-response","549","581131","0.0-549.0","","","null","","","","","","","",""
"1460.5999999642372","","image-keyboard-response","550","582593","0.0-550.0","","img/set2/S3.jpg","74","3","structured_normal","72","random,structured_normal,structured_load,structured_incentive","3,4,2,3,2,1","false","",""
"null","","html-keyboard-response","551","582947","0.0-551.0","","<img src=""img/set2/S3.jpg"" width=""540"" height = ""360"">","null","","","","","","","",""
"null","","html-keyboard-response","552","583153","0.0-552.0","","","null","","","","","","","",""
"653.8000000119209","","image-keyboard-response","553","583808","0.0-553.0","","img/set2/S4.jpg","83","4","structured_normal","74","random,structured_normal,structured_load,structured_incentive","3,4,2,3,2,1","false","",""
"null","","html-keyboard-response","554","584163","0.0-554.0","","<img src=""img/set2/S4.jpg"" width=""540"" height = ""360"">","null","","","","","","","",""
"null","","html-keyboard-response","555","584365","0.0-555.0","","","null","","","","","","","",""
"2.100000023841858","","image-keyboard-response","556","584369","0.0-556.0","","img/set2/S2.jpg","74","2","structured_normal","68","random,structured_normal,structured_load,structured_incentive","3,4,2,3,2,1","false","",""
"null","","html-keyboard-response","557","584724","0.0-557.0","","<img src=""img/set2/S2.jpg"" width=""540"" height = ""360"">","null","","","","","","","",""
"null","","html-keyboard-response","558","584927","0.0-558.0","","","null","","","","","","","",""
"17.69999998807907","","image-keyboard-response","559","584945","0.0-559.0","","img/set2/S3.jpg","83","3","structured_normal","72","random,structured_normal,structured_load,structured_incentive","3,4,2,3,2,1","false","",""
"null","","html-keyboard-response","560","585300","0.0-560.0","","<img src=""img/set2/S3.jpg"" width=""540"" height = ""360"">","null","","","","","","","",""
"null","","html-keyboard-response","561","585506","0.0-561.0","","","null","","","","","","","",""
"789.8999999761581","","image-keyboard-response","562","586297","0.0-562.0","","img/set2/S4.jpg","83","4","structured_normal","74","random,structured_normal,structured_load,structured_incentive","3,4,2,3,2,1","false","",""
"null","","html-keyboard-response","563","586653","0.0-563.0","","<img src=""img/set2/S4.jpg"" width=""540"" height = ""360"">","null","","","","","","","",""
"null","","html-keyboard-response","564","586857","0.0-564.0","","","null","","","","","","","",""
"670.6000000238419","","image-keyboard-response","565","587528","0.0-565.0","","img/set2/S2.jpg","83","2","structured_normal","68","random,structured_normal,structured_load,structured_incentive","3,4,2,3,2,1","false","",""
"null","","html-keyboard-response","566","587885","0.0-566.0","","<img src=""img/set2/S2.jpg"" width=""540"" height = ""360"">","null","","","","","","","",""
"null","","html-keyboard-response","567","588086","0.0-567.0","","","null","","","","","","","",""
"632.6000000238419","","image-keyboard-response","568","588719","0.0-568.0","","img/set2/S1.jpg","83","1","structured_normal","83","random,structured_normal,structured_load,structured_incentive","3,4,2,3,2,1","true","",""
"null","","html-keyboard-response","569","589076","0.0-569.0","","<img src=""img/set2/S1.jpg"" width=""540"" height = ""360"" style=""border:16px solid orange"">","null","","","","","","","",""
"null","","html-keyboard-response","570","589281","0.0-570.0","","","null","","","","","","","",""
"1070.7000000476837","","image-keyboard-response","571","590353","0.0-571.0","","img/set2/S3.jpg","83","3","structured_normal","72","random,structured_normal,structured_load,structured_incentive","3,4,2,3,2,1","false","",""
"null","","html-keyboard-response","572","590709","0.0-572.0","","<img src=""img/set2/S3.jpg"" width=""540"" height = ""360"">","null","","","","","","","",""
"null","","html-keyboard-response","573","590915","0.0-573.0","","","null","","","","","","","",""
"668","","image-keyboard-response","574","591584","0.0-574.0","","img/set2/S4.jpg","74","4","structured_normal","74","random,structured_normal,structured_load,structured_incentive","3,4,2,3,2,1","true","",""
"null","","html-keyboard-response","575","591936","0.0-575.0","","<img src=""img/set2/S4.jpg"" width=""540"" height = ""360"" style=""border:16px solid orange"">","null","","","","","","","",""
"null","","html-keyboard-response","576","592142","0.0-576.0","","","null","","","","","","","",""
"689.6999999880791","","image-keyboard-response","577","592832","0.0-577.0","","img/set2/S1.jpg","68","1","structured_normal","83","random,structured_normal,structured_load,structured_incentive","3,4,2,3,2,1","false","",""
"null","","html-keyboard-response","578","593190","0.0-578.0","","<img src=""img/set2/S1.jpg"" width=""540"" height = ""360"">","null","","","","","","","",""
"null","","html-keyboard-response","579","593392","0.0-579.0","","","null","","","","","","","",""
"215.39999997615814","","image-keyboard-response","580","593608","0.0-580.0","","img/set2/S2.jpg","83","2","structured_normal","68","random,structured_normal,structured_load,structured_incentive","3,4,2,3,2,1","false","",""
"null","","html-keyboard-response","581","593963","0.0-581.0","","<img src=""img/set2/S2.jpg"" width=""540"" height = ""360"">","null","","","","","","","",""
"null","","html-keyboard-response","582","594169","0.0-582.0","","","null","","","","","","","",""
"44.799999952316284","","image-keyboard-response","583","594215","0.0-583.0","","img/set2/S1.jpg","68","1","structured_normal","83","random,structured_normal,structured_load,structured_incentive","3,4,2,3,2,1","false","",""
"null","","html-keyboard-response","584","594569","0.0-584.0","","<img src=""img/set2/S1.jpg"" width=""540"" height = ""360"">","null","","","","","","","",""
"null","","html-keyboard-response","585","594775","0.0-585.0","","","null","","","","","","","",""
"376.89999997615814","","image-keyboard-response","586","595152","0.0-586.0","","img/set2/S2.jpg","83","2","structured_normal","68","random,structured_normal,structured_load,structured_incentive","3,4,2,3,2,1","false","",""
"null","","html-keyboard-response","587","595505","0.0-587.0","","<img src=""img/set2/S2.jpg"" width=""540"" height = ""360"">","null","","","","","","","",""
"null","","html-keyboard-response","588","595709","0.0-588.0","","","null","","","","","","","",""
"562.0999999642372","","image-keyboard-response","589","596272","0.0-589.0","","img/set2/S1.jpg","83","1","structured_normal","83","random,structured_normal,structured_load,structured_incentive","3,4,2,3,2,1","true","",""
"null","","html-keyboard-response","590","596625","0.0-590.0","","<img src=""img/set2/S1.jpg"" width=""540"" height = ""360"" style=""border:16px solid orange"">","null","","","","","","","",""
"null","","html-keyboard-response","591","596829","0.0-591.0","","","null","","","","","","","",""
"426.30000001192093","","image-keyboard-response","592","597257","0.0-592.0","","img/set2/S1.jpg","83","1","structured_normal","83","random,structured_normal,structured_load,structured_incentive","3,4,2,3,2,1","true","",""
"null","","html-keyboard-response","593","597613","0.0-593.0","","<img src=""img/set2/S1.jpg"" width=""540"" height = ""360"" style=""border:16px solid orange"">","null","","","","","","","",""
"null","","html-keyboard-response","594","597819","0.0-594.0","","","null","","","","","","","",""
"875.8999999761581","","image-keyboard-response","595","598696","0.0-595.0","","img/set2/S3.jpg","74","3","structured_normal","72","random,structured_normal,structured_load,structured_incentive","3,4,2,3,2,1","false","",""
"null","","html-keyboard-response","596","599050","0.0-596.0","","<img src=""img/set2/S3.jpg"" width=""540"" height = ""360"">","null","","","","","","","",""
"null","","html-keyboard-response","597","599254","0.0-597.0","","","null","","","","","","","",""
"472.19999998807907","","image-keyboard-response","598","599727","0.0-598.0","","img/set2/S4.jpg","83","4","structured_normal","74","random,structured_normal,structured_load,structured_incentive","3,4,2,3,2,1","false","",""
"null","","html-keyboard-response","599","600084","0.0-599.0","","<img src=""img/set2/S4.jpg"" width=""540"" height = ""360"">","null","","","","","","","",""
"null","","html-keyboard-response","600","600290","0.0-600.0","","","null","","","","","","","",""
"1221.300000011921","","image-keyboard-response","601","601512","0.0-601.0","","img/set2/S3.jpg","74","3","structured_normal","72","random,structured_normal,structured_load,structured_incentive","3,4,2,3,2,1","false","",""
"null","","html-keyboard-response","602","601868","0.0-602.0","","<img src=""img/set2/S3.jpg"" width=""540"" height = ""360"">","null","","","","","","","",""
