rt,url,trial_type,trial_index,time_elapsed,internal_node_id,assignmentID,mturkID,hitID,view_history,stimulus,key_press,state,test_part,correct_response,order_block,order_chunk,correct,bonus,responses
30467,consent.html,external-html,0,30526,0.0-0.0,3NKQQ8O39ZRLTXUL8Y6XT6XZ3RVUDM,A2TLN8489YGY81,30OITAWPBQP2Z1DQ5HPUZCTXABIH90,,,,,,,,,,,
60163,,instructions,1,90692,0.0-1.0,3NKQQ8O39ZRLTXUL8Y6XT6XZ3RVUDM,A2TLN8489YGY81,30OITAWPBQP2Z1DQ5HPUZCTXABIH90,"[{""page_index"":0,""viewing_time"":3466},{""page_index"":1,""viewing_time"":14010},{""page_index"":2,""viewing_time"":8939},{""page_index"":3,""viewing_time"":16534},{""page_index"":4,""viewing_time"":2795},{""page_index"":5,""viewing_time"":7294},{""page_index"":6,""viewing_time"":7125}]",,,,,,,,,,
8557,,instructions,2,99251,0.0-2.0,3NKQQ8O39ZRLTXUL8Y6XT6XZ3RVUDM,A2TLN8489YGY81,30OITAWPBQP2Z1DQ5HPUZCTXABIH90,"[{""page_index"":0,""viewing_time"":8557}]",,,,,,,,,,
5902,,instructions,3,105155,0.0-3.0,3NKQQ8O39ZRLTXUL8Y6XT6XZ3RVUDM,A2TLN8489YGY81,30OITAWPBQP2Z1DQ5HPUZCTXABIH90,"[{""page_index"":0,""viewing_time"":5902}]",,,,,,,,,,
917,,image-keyboard-response,4,106075,0.0-4.0,3NKQQ8O39ZRLTXUL8Y6XT6XZ3RVUDM,A2TLN8489YGY81,30OITAWPBQP2Z1DQ5HPUZCTXABIH90,,img/set1/S4.jpg,83,4,structured_normal,74,"structured_normal,structured_incentive,random","1,2,2,3",FALSE,,
null,,html-keyboard-response,5,106434,0.0-5.0,3NKQQ8O39ZRLTXUL8Y6XT6XZ3RVUDM,A2TLN8489YGY81,30OITAWPBQP2Z1DQ5HPUZCTXABIH90,,"<img src=""img/set1/S4.jpg"" width=""540"" height = ""360"">",null,,,,,,,,
null,,html-keyboard-response,6,106639,0.0-6.0,3NKQQ8O39ZRLTXUL8Y6XT6XZ3RVUDM,A2TLN8489YGY81,30OITAWPBQP2Z1DQ5HPUZCTXABIH90,,,null,,,,,,,,
636,,image-keyboard-response,7,107277,0.0-7.0,3NKQQ8O39ZRLTXUL8Y6XT6XZ3RVUDM,A2TLN8489YGY81,30OITAWPBQP2Z1DQ5HPUZCTXABIH90,,img/set1/S1.jpg,68,1,structured_normal,83,"structured_normal,structured_incentive,random","1,2,2,3",FALSE,,
null,,html-keyboard-response,8,107633,0.0-8.0,3NKQQ8O39ZRLTXUL8Y6XT6XZ3RVUDM,A2TLN8489YGY81,30OITAWPBQP2Z1DQ5HPUZCTXABIH90,,"<img src=""img/set1/S1.jpg"" width=""540"" height = ""360"">",null,,,,,,,,
null,,html-keyboard-response,9,107833,0.0-9.0,3NKQQ8O39ZRLTXUL8Y6XT6XZ3RVUDM,A2TLN8489YGY81,30OITAWPBQP2Z1DQ5HPUZCTXABIH90,,,null,,,,,,,,
842,,image-keyboard-response,10,108677,0.0-10.0,3NKQQ8O39ZRLTXUL8Y6XT6XZ3RVUDM,A2TLN8489YGY81,30OITAWPBQP2Z1DQ5HPUZCTXABIH90,,img/set1/S2.jpg,72,2,structured_normal,68,"structured_normal,structured_incentive,random","1,2,2,3",FALSE,,
null,,html-keyboard-response,11,109033,0.0-11.0,3NKQQ8O39ZRLTXUL8Y6XT6XZ3RVUDM,A2TLN8489YGY81,30OITAWPBQP2Z1DQ5HPUZCTXABIH90,,"<img src=""img/set1/S2.jpg"" width=""540"" height = ""360"">",null,,,,,,,,
null,,html-keyboard-response,12,109240,0.0-12.0,3NKQQ8O39ZRLTXUL8Y6XT6XZ3RVUDM,A2TLN8489YGY81,30OITAWPBQP2Z1DQ5HPUZCTXABIH90,,,null,,,,,,,,
640,,image-keyboard-response,13,109880,0.0-13.0,3NKQQ8O39ZRLTXUL8Y6XT6XZ3RVUDM,A2TLN8489YGY81,30OITAWPBQP2Z1DQ5HPUZCTXABIH90,,img/set1/S3.jpg,74,3,structured_normal,72,"structured_normal,structured_incentive,random","1,2,2,3",FALSE,,
null,,html-keyboard-response,14,110239,0.0-14.0,3NKQQ8O39ZRLTXUL8Y6XT6XZ3RVUDM,A2TLN8489YGY81,30OITAWPBQP2Z1DQ5HPUZCTXABIH90,,"<img src=""img/set1/S3.jpg"" width=""540"" height = ""360"">",null,,,,,,,,
null,,html-keyboard-response,15,110443,0.0-15.0,3NKQQ8O39ZRLTXUL8Y6XT6XZ3RVUDM,A2TLN8489YGY81,30OITAWPBQP2Z1DQ5HPUZCTXABIH90,,,null,,,,,,,,
511,,image-keyboard-response,16,110955,0.0-16.0,3NKQQ8O39ZRLTXUL8Y6XT6XZ3RVUDM,A2TLN8489YGY81,30OITAWPBQP2Z1DQ5HPUZCTXABIH90,,img/set1/S4.jpg,83,4,structured_normal,74,"structured_normal,structured_incentive,random","1,2,2,3",FALSE,,
null,,html-keyboard-response,17,111316,0.0-17.0,3NKQQ8O39ZRLTXUL8Y6XT6XZ3RVUDM,A2TLN8489YGY81,30OITAWPBQP2Z1DQ5HPUZCTXABIH90,,"<img src=""img/set1/S4.jpg"" width=""540"" height = ""360"">",null,,,,,,,,
null,,html-keyboard-response,18,111522,0.0-18.0,3NKQQ8O39ZRLTXUL8Y6XT6XZ3RVUDM,A2TLN8489YGY81,30OITAWPBQP2Z1DQ5HPUZCTXABIH90,,,null,,,,,,,,
427,,image-keyboard-response,19,111949,0.0-19.0,3NKQQ8O39ZRLTXUL8Y6XT6XZ3RVUDM,A2TLN8489YGY81,30OITAWPBQP2Z1DQ5HPUZCTXABIH90,,img/set1/S4.jpg,68,4,structured_normal,74,"structured_normal,structured_incentive,random","1,2,2,3",FALSE,,
null,,html-keyboard-response,20,112302,0.0-20.0,3NKQQ8O39ZRLTXUL8Y6XT6XZ3RVUDM,A2TLN8489YGY81,30OITAWPBQP2Z1DQ5HPUZCTXABIH90,,"<img src=""img/set1/S4.jpg"" width=""540"" height = ""360"">",null,,,,,,,,
null,,html-keyboard-response,21,112508,0.0-21.0,3NKQQ8O39ZRLTXUL8Y6XT6XZ3RVUDM,A2TLN8489YGY81,30OITAWPBQP2Z1DQ5HPUZCTXABIH90,,,null,,,,,,,,
745,,image-keyboard-response,22,113253,0.0-22.0,3NKQQ8O39ZRLTXUL8Y6XT6XZ3RVUDM,A2TLN8489YGY81,30OITAWPBQP2Z1DQ5HPUZCTXABIH90,,img/set1/S3.jpg,72,3,structured_normal,72,"structured_normal,structured_incentive,random","1,2,2,3",TRUE,,
null,,html-keyboard-response,23,113617,0.0-23.0,3NKQQ8O39ZRLTXUL8Y6XT6XZ3RVUDM,A2TLN8489YGY81,30OITAWPBQP2Z1DQ5HPUZCTXABIH90,,"<img src=""img/set1/S3.jpg"" width=""540"" height = ""360"" style=""border:16px solid orange"">",null,,,,,,,,
null,,html-keyboard-response,24,113823,0.0-24.0,3NKQQ8O39ZRLTXUL8Y6XT6XZ3RVUDM,A2TLN8489YGY81,30OITAWPBQP2Z1DQ5HPUZCTXABIH90,,,null,,,,,,,,
920,,image-keyboard-response,25,114744,0.0-25.0,3NKQQ8O39ZRLTXUL8Y6XT6XZ3RVUDM,A2TLN8489YGY81,30OITAWPBQP2Z1DQ5HPUZCTXABIH90,,img/set1/S4.jpg,83,4,structured_normal,74,"structured_normal,structured_incentive,random","1,2,2,3",FALSE,,
null,,html-keyboard-response,26,115099,0.0-26.0,3NKQQ8O39ZRLTXUL8Y6XT6XZ3RVUDM,A2TLN8489YGY81,30OITAWPBQP2Z1DQ5HPUZCTXABIH90,,"<img src=""img/set1/S4.jpg"" width=""540"" height = ""360"">",null,,,,,,,,
null,,html-keyboard-response,27,115302,0.0-27.0,3NKQQ8O39ZRLTXUL8Y6XT6XZ3RVUDM,A2TLN8489YGY81,30OITAWPBQP2Z1DQ5HPUZCTXABIH90,,,null,,,,,,,,
328,,image-keyboard-response,28,115631,0.0-28.0,3NKQQ8O39ZRLTXUL8Y6XT6XZ3RVUDM,A2TLN8489YGY81,30OITAWPBQP2Z1DQ5HPUZCTXABIH90,,img/set1/S4.jpg,74,4,structured_normal,74,"structured_normal,structured_incentive,random","1,2,2,3",TRUE,,
null,,html-keyboard-response,29,115986,0.0-29.0,3NKQQ8O39ZRLTXUL8Y6XT6XZ3RVUDM,A2TLN8489YGY81,30OITAWPBQP2Z1DQ5HPUZCTXABIH90,,"<img src=""img/set1/S4.jpg"" width=""540"" height = ""360"" style=""border:16px solid orange"">",null,,,,,,,,
null,,html-keyboard-response,30,116191,0.0-30.0,3NKQQ8O39ZRLTXUL8Y6XT6XZ3RVUDM,A2TLN8489YGY81,30OITAWPBQP2Z1DQ5HPUZCTXABIH90,,,null,,,,,,,,
1069,,image-keyboard-response,31,117261,0.0-31.0,3NKQQ8O39ZRLTXUL8Y6XT6XZ3RVUDM,A2TLN8489YGY81,30OITAWPBQP2Z1DQ5HPUZCTXABIH90,,img/set1/S1.jpg,68,1,structured_normal,83,"structured_normal,structured_incentive,random","1,2,2,3",FALSE,,
null,,html-keyboard-response,32,117623,0.0-32.0,3NKQQ8O39ZRLTXUL8Y6XT6XZ3RVUDM,A2TLN8489YGY81,30OITAWPBQP2Z1DQ5HPUZCTXABIH90,,"<img src=""img/set1/S1.jpg"" width=""540"" height = ""360"">",null,,,,,,,,
null,,html-keyboard-response,33,117826,0.0-33.0,3NKQQ8O39ZRLTXUL8Y6XT6XZ3RVUDM,A2TLN8489YGY81,30OITAWPBQP2Z1DQ5HPUZCTXABIH90,,,null,,,,,,,,
760,,image-keyboard-response,34,118586,0.0-34.0,3NKQQ8O39ZRLTXUL8Y6XT6XZ3RVUDM,A2TLN8489YGY81,30OITAWPBQP2Z1DQ5HPUZCTXABIH90,,img/set1/S2.jpg,83,2,structured_normal,68,"structured_normal,structured_incentive,random","1,2,2,3",FALSE,,
null,,html-keyboard-response,35,118951,0.0-35.0,3NKQQ8O39ZRLTXUL8Y6XT6XZ3RVUDM,A2TLN8489YGY81,30OITAWPBQP2Z1DQ5HPUZCTXABIH90,,"<img src=""img/set1/S2.jpg"" width=""540"" height = ""360"">",null,,,,,,,,
null,,html-keyboard-response,36,119156,0.0-36.0,3NKQQ8O39ZRLTXUL8Y6XT6XZ3RVUDM,A2TLN8489YGY81,30OITAWPBQP2Z1DQ5HPUZCTXABIH90,,,null,,,,,,,,
1297,,image-keyboard-response,37,120453,0.0-37.0,3NKQQ8O39ZRLTXUL8Y6XT6XZ3RVUDM,A2TLN8489YGY81,30OITAWPBQP2Z1DQ5HPUZCTXABIH90,,img/set1/S1.jpg,72,1,structured_normal,83,"structured_normal,structured_incentive,random","1,2,2,3",FALSE,,
null,,html-keyboard-response,38,120816,0.0-38.0,3NKQQ8O39ZRLTXUL8Y6XT6XZ3RVUDM,A2TLN8489YGY81,30OITAWPBQP2Z1DQ5HPUZCTXABIH90,,"<img src=""img/set1/S1.jpg"" width=""540"" height = ""360"">",null,,,,,,,,
null,,html-keyboard-response,39,121023,0.0-39.0,3NKQQ8O39ZRLTXUL8Y6XT6XZ3RVUDM,A2TLN8489YGY81,30OITAWPBQP2Z1DQ5HPUZCTXABIH90,,,null,,,,,,,,
924,,image-keyboard-response,40,121948,0.0-40.0,3NKQQ8O39ZRLTXUL8Y6XT6XZ3RVUDM,A2TLN8489YGY81,30OITAWPBQP2Z1DQ5HPUZCTXABIH90,,img/set1/S2.jpg,74,2,structured_normal,68,"structured_normal,structured_incentive,random","1,2,2,3",FALSE,,
null,,html-keyboard-response,41,122314,0.0-41.0,3NKQQ8O39ZRLTXUL8Y6XT6XZ3RVUDM,A2TLN8489YGY81,30OITAWPBQP2Z1DQ5HPUZCTXABIH90,,"<img src=""img/set1/S2.jpg"" width=""540"" height = ""360"">",null,,,,,,,,
null,,html-keyboard-response,42,122519,0.0-42.0,3NKQQ8O39ZRLTXUL8Y6XT6XZ3RVUDM,A2TLN8489YGY81,30OITAWPBQP2Z1DQ5HPUZCTXABIH90,,,null,,,,,,,,
978,,image-keyboard-response,43,123498,0.0-43.0,3NKQQ8O39ZRLTXUL8Y6XT6XZ3RVUDM,A2TLN8489YGY81,30OITAWPBQP2Z1DQ5HPUZCTXABIH90,,img/set1/S4.jpg,74,4,structured_normal,74,"structured_normal,structured_incentive,random","1,2,2,3",TRUE,,
null,,html-keyboard-response,44,123857,0.0-44.0,3NKQQ8O39ZRLTXUL8Y6XT6XZ3RVUDM,A2TLN8489YGY81,30OITAWPBQP2Z1DQ5HPUZCTXABIH90,,"<img src=""img/set1/S4.jpg"" width=""540"" height = ""360"" style=""border:16px solid orange"">",null,,,,,,,,
null,,html-keyboard-response,45,124058,0.0-45.0,3NKQQ8O39ZRLTXUL8Y6XT6XZ3RVUDM,A2TLN8489YGY81,30OITAWPBQP2Z1DQ5HPUZCTXABIH90,,,null,,,,,,,,
1072,,image-keyboard-response,46,125132,0.0-46.0,3NKQQ8O39ZRLTXUL8Y6XT6XZ3RVUDM,A2TLN8489YGY81,30OITAWPBQP2Z1DQ5HPUZCTXABIH90,,img/set1/S1.jpg,72,1,structured_normal,83,"structured_normal,structured_incentive,random","1,2,2,3",FALSE,,
null,,html-keyboard-response,47,125486,0.0-47.0,3NKQQ8O39ZRLTXUL8Y6XT6XZ3RVUDM,A2TLN8489YGY81,30OITAWPBQP2Z1DQ5HPUZCTXABIH90,,"<img src=""img/set1/S1.jpg"" width=""540"" height = ""360"">",null,,,,,,,,
null,,html-keyboard-response,48,125702,0.0-48.0,3NKQQ8O39ZRLTXUL8Y6XT6XZ3RVUDM,A2TLN8489YGY81,30OITAWPBQP2Z1DQ5HPUZCTXABIH90,,,null,,,,,,,,
595,,image-keyboard-response,49,126297,0.0-49.0,3NKQQ8O39ZRLTXUL8Y6XT6XZ3RVUDM,A2TLN8489YGY81,30OITAWPBQP2Z1DQ5HPUZCTXABIH90,,img/set1/S2.jpg,68,2,structured_normal,68,"structured_normal,structured_incentive,random","1,2,2,3",TRUE,,
null,,html-keyboard-response,50,126653,0.0-50.0,3NKQQ8O39ZRLTXUL8Y6XT6XZ3RVUDM,A2TLN8489YGY81,30OITAWPBQP2Z1DQ5HPUZCTXABIH90,,"<img src=""img/set1/S2.jpg"" width=""540"" height = ""360"" style=""border:16px solid orange"">",null,,,,,,,,
null,,html-keyboard-response,51,126860,0.0-51.0,3NKQQ8O39ZRLTXUL8Y6XT6XZ3RVUDM,A2TLN8489YGY81,30OITAWPBQP2Z1DQ5HPUZCTXABIH90,,,null,,,,,,,,
1583,,image-keyboard-response,52,128444,0.0-52.0,3NKQQ8O39ZRLTXUL8Y6XT6XZ3RVUDM,A2TLN8489YGY81,30OITAWPBQP2Z1DQ5HPUZCTXABIH90,,img/set1/S4.jpg,74,4,structured_normal,74,"structured_normal,structured_incentive,random","1,2,2,3",TRUE,,
null,,html-keyboard-response,53,128795,0.0-53.0,3NKQQ8O39ZRLTXUL8Y6XT6XZ3RVUDM,A2TLN8489YGY81,30OITAWPBQP2Z1DQ5HPUZCTXABIH90,,"<img src=""img/set1/S4.jpg"" width=""540"" height = ""360"" style=""border:16px solid orange"">",null,,,,,,,,
null,,html-keyboard-response,54,129003,0.0-54.0,3NKQQ8O39ZRLTXUL8Y6XT6XZ3RVUDM,A2TLN8489YGY81,30OITAWPBQP2Z1DQ5HPUZCTXABIH90,,,null,,,,,,,,
1032,,image-keyboard-response,55,130035,0.0-55.0,3NKQQ8O39ZRLTXUL8Y6XT6XZ3RVUDM,A2TLN8489YGY81,30OITAWPBQP2Z1DQ5HPUZCTXABIH90,,img/set1/S1.jpg,83,1,structured_normal,83,"structured_normal,structured_incentive,random","1,2,2,3",TRUE,,
null,,html-keyboard-response,56,130396,0.0-56.0,3NKQQ8O39ZRLTXUL8Y6XT6XZ3RVUDM,A2TLN8489YGY81,30OITAWPBQP2Z1DQ5HPUZCTXABIH90,,"<img src=""img/set1/S1.jpg"" width=""540"" height = ""360"" style=""border:16px solid orange"">",null,,,,,,,,
null,,html-keyboard-response,57,130600,0.0-57.0,3NKQQ8O39ZRLTXUL8Y6XT6XZ3RVUDM,A2TLN8489YGY81,30OITAWPBQP2Z1DQ5HPUZCTXABIH90,,,null,,,,,,,,
1322,,image-keyboard-response,58,131924,0.0-58.0,3NKQQ8O39ZRLTXUL8Y6XT6XZ3RVUDM,A2TLN8489YGY81,30OITAWPBQP2Z1DQ5HPUZCTXABIH90,,img/set1/S2.jpg,68,2,structured_normal,68,"structured_normal,structured_incentive,random","1,2,2,3",TRUE,,
null,,html-keyboard-response,59,132283,0.0-59.0,3NKQQ8O39ZRLTXUL8Y6XT6XZ3RVUDM,A2TLN8489YGY81,30OITAWPBQP2Z1DQ5HPUZCTXABIH90,,"<img src=""img/set1/S2.jpg"" width=""540"" height = ""360"" style=""border:16px solid orange"">",null,,,,,,,,
null,,html-keyboard-response,60,132485,0.0-60.0,3NKQQ8O39ZRLTXUL8Y6XT6XZ3RVUDM,A2TLN8489YGY81,30OITAWPBQP2Z1DQ5HPUZCTXABIH90,,,null,,,,,,,,
1170,,image-keyboard-response,61,133657,0.0-61.0,3NKQQ8O39ZRLTXUL8Y6XT6XZ3RVUDM,A2TLN8489YGY81,30OITAWPBQP2Z1DQ5HPUZCTXABIH90,,img/set1/S4.jpg,74,4,structured_normal,74,"structured_normal,structured_incentive,random","1,2,2,3",TRUE,,
null,,html-keyboard-response,62,134012,0.0-62.0,3NKQQ8O39ZRLTXUL8Y6XT6XZ3RVUDM,A2TLN8489YGY81,30OITAWPBQP2Z1DQ5HPUZCTXABIH90,,"<img src=""img/set1/S4.jpg"" width=""540"" height = ""360"" style=""border:16px solid orange"">",null,,,,,,,,
null,,html-keyboard-response,63,134218,0.0-63.0,3NKQQ8O39ZRLTXUL8Y6XT6XZ3RVUDM,A2TLN8489YGY81,30OITAWPBQP2Z1DQ5HPUZCTXABIH90,,,null,,,,,,,,
1225,,image-keyboard-response,64,135444,0.0-64.0,3NKQQ8O39ZRLTXUL8Y6XT6XZ3RVUDM,A2TLN8489YGY81,30OITAWPBQP2Z1DQ5HPUZCTXABIH90,,img/set1/S1.jpg,83,1,structured_normal,83,"structured_normal,structured_incentive,random","1,2,2,3",TRUE,,
null,,html-keyboard-response,65,135805,0.0-65.0,3NKQQ8O39ZRLTXUL8Y6XT6XZ3RVUDM,A2TLN8489YGY81,30OITAWPBQP2Z1DQ5HPUZCTXABIH90,,"<img src=""img/set1/S1.jpg"" width=""540"" height = ""360"" style=""border:16px solid orange"">",null,,,,,,,,
null,,html-keyboard-response,66,136006,0.0-66.0,3NKQQ8O39ZRLTXUL8Y6XT6XZ3RVUDM,A2TLN8489YGY81,30OITAWPBQP2Z1DQ5HPUZCTXABIH90,,,null,,,,,,,,
1055,,image-keyboard-response,67,137061,0.0-67.0,3NKQQ8O39ZRLTXUL8Y6XT6XZ3RVUDM,A2TLN8489YGY81,30OITAWPBQP2Z1DQ5HPUZCTXABIH90,,img/set1/S2.jpg,68,2,structured_normal,68,"structured_normal,structured_incentive,random","1,2,2,3",TRUE,,
null,,html-keyboard-response,68,137419,0.0-68.0,3NKQQ8O39ZRLTXUL8Y6XT6XZ3RVUDM,A2TLN8489YGY81,30OITAWPBQP2Z1DQ5HPUZCTXABIH90,,"<img src=""img/set1/S2.jpg"" width=""540"" height = ""360"" style=""border:16px solid orange"">",null,,,,,,,,
null,,html-keyboard-response,69,137621,0.0-69.0,3NKQQ8O39ZRLTXUL8Y6XT6XZ3RVUDM,A2TLN8489YGY81,30OITAWPBQP2Z1DQ5HPUZCTXABIH90,,,null,,,,,,,,
943,,image-keyboard-response,70,138565,0.0-70.0,3NKQQ8O39ZRLTXUL8Y6XT6XZ3RVUDM,A2TLN8489YGY81,30OITAWPBQP2Z1DQ5HPUZCTXABIH90,,img/set1/S4.jpg,74,4,structured_normal,74,"structured_normal,structured_incentive,random","1,2,2,3",TRUE,,
null,,html-keyboard-response,71,138928,0.0-71.0,3NKQQ8O39ZRLTXUL8Y6XT6XZ3RVUDM,A2TLN8489YGY81,30OITAWPBQP2Z1DQ5HPUZCTXABIH90,,"<img src=""img/set1/S4.jpg"" width=""540"" height = ""360"" style=""border:16px solid orange"">",null,,,,,,,,
null,,html-keyboard-response,72,139160,0.0-72.0,3NKQQ8O39ZRLTXUL8Y6XT6XZ3RVUDM,A2TLN8489YGY81,30OITAWPBQP2Z1DQ5HPUZCTXABIH90,,,null,,,,,,,,
972,,image-keyboard-response,73,140132,0.0-73.0,3NKQQ8O39ZRLTXUL8Y6XT6XZ3RVUDM,A2TLN8489YGY81,30OITAWPBQP2Z1DQ5HPUZCTXABIH90,,img/set1/S3.jpg,72,3,structured_normal,72,"structured_normal,structured_incentive,random","1,2,2,3",TRUE,,
null,,html-keyboard-response,74,140491,0.0-74.0,3NKQQ8O39ZRLTXUL8Y6XT6XZ3RVUDM,A2TLN8489YGY81,30OITAWPBQP2Z1DQ5HPUZCTXABIH90,,"<img src=""img/set1/S3.jpg"" width=""540"" height = ""360"" style=""border:16px solid orange"">",null,,,,,,,,
null,,html-keyboard-response,75,140693,0.0-75.0,3NKQQ8O39ZRLTXUL8Y6XT6XZ3RVUDM,A2TLN8489YGY81,30OITAWPBQP2Z1DQ5HPUZCTXABIH90,,,null,,,,,,,,
1425,,image-keyboard-response,76,142119,0.0-76.0,3NKQQ8O39ZRLTXUL8Y6XT6XZ3RVUDM,A2TLN8489YGY81,30OITAWPBQP2Z1DQ5HPUZCTXABIH90,,img/set1/S1.jpg,68,1,structured_normal,83,"structured_normal,structured_incentive,random","1,2,2,3",FALSE,,
null,,html-keyboard-response,77,142471,0.0-77.0,3NKQQ8O39ZRLTXUL8Y6XT6XZ3RVUDM,A2TLN8489YGY81,30OITAWPBQP2Z1DQ5HPUZCTXABIH90,,"<img src=""img/set1/S1.jpg"" width=""540"" height = ""360"">",null,,,,,,,,
null,,html-keyboard-response,78,142675,0.0-78.0,3NKQQ8O39ZRLTXUL8Y6XT6XZ3RVUDM,A2TLN8489YGY81,30OITAWPBQP2Z1DQ5HPUZCTXABIH90,,,null,,,,,,,,
1045,,image-keyboard-response,79,143722,0.0-79.0,3NKQQ8O39ZRLTXUL8Y6XT6XZ3RVUDM,A2TLN8489YGY81,30OITAWPBQP2Z1DQ5HPUZCTXABIH90,,img/set1/S2.jpg,68,2,structured_normal,68,"structured_normal,structured_incentive,random","1,2,2,3",TRUE,,
null,,html-keyboard-response,80,144087,0.0-80.0,3NKQQ8O39ZRLTXUL8Y6XT6XZ3RVUDM,A2TLN8489YGY81,30OITAWPBQP2Z1DQ5HPUZCTXABIH90,,"<img src=""img/set1/S2.jpg"" width=""540"" height = ""360"" style=""border:16px solid orange"">",null,,,,,,,,
null,,html-keyboard-response,81,144290,0.0-81.0,3NKQQ8O39ZRLTXUL8Y6XT6XZ3RVUDM,A2TLN8489YGY81,30OITAWPBQP2Z1DQ5HPUZCTXABIH90,,,null,,,,,,,,
1173,,image-keyboard-response,82,145464,0.0-82.0,3NKQQ8O39ZRLTXUL8Y6XT6XZ3RVUDM,A2TLN8489YGY81,30OITAWPBQP2Z1DQ5HPUZCTXABIH90,,img/set1/S3.jpg,72,3,structured_normal,72,"structured_normal,structured_incentive,random","1,2,2,3",TRUE,,
null,,html-keyboard-response,83,145819,0.0-83.0,3NKQQ8O39ZRLTXUL8Y6XT6XZ3RVUDM,A2TLN8489YGY81,30OITAWPBQP2Z1DQ5HPUZCTXABIH90,,"<img src=""img/set1/S3.jpg"" width=""540"" height = ""360"" style=""border:16px solid orange"">",null,,,,,,,,
null,,html-keyboard-response,84,146034,0.0-84.0,3NKQQ8O39ZRLTXUL8Y6XT6XZ3RVUDM,A2TLN8489YGY81,30OITAWPBQP2Z1DQ5HPUZCTXABIH90,,,null,,,,,,,,
557,,image-keyboard-response,85,146592,0.0-85.0,3NKQQ8O39ZRLTXUL8Y6XT6XZ3RVUDM,A2TLN8489YGY81,30OITAWPBQP2Z1DQ5HPUZCTXABIH90,,img/set1/S3.jpg,72,3,structured_normal,72,"structured_normal,structured_incentive,random","1,2,2,3",TRUE,,
null,,html-keyboard-response,86,146954,0.0-86.0,3NKQQ8O39ZRLTXUL8Y6XT6XZ3RVUDM,A2TLN8489YGY81,30OITAWPBQP2Z1DQ5HPUZCTXABIH90,,"<img src=""img/set1/S3.jpg"" width=""540"" height = ""360"" style=""border:16px solid orange"">",null,,,,,,,,
null,,html-keyboard-response,87,147160,0.0-87.0,3NKQQ8O39ZRLTXUL8Y6XT6XZ3RVUDM,A2TLN8489YGY81,30OITAWPBQP2Z1DQ5HPUZCTXABIH90,,,null,,,,,,,,
1303,,image-keyboard-response,88,148463,0.0-88.0,3NKQQ8O39ZRLTXUL8Y6XT6XZ3RVUDM,A2TLN8489YGY81,30OITAWPBQP2Z1DQ5HPUZCTXABIH90,,img/set1/S1.jpg,83,1,structured_normal,83,"structured_normal,structured_incentive,random","1,2,2,3",TRUE,,
null,,html-keyboard-response,89,148823,0.0-89.0,3NKQQ8O39ZRLTXUL8Y6XT6XZ3RVUDM,A2TLN8489YGY81,30OITAWPBQP2Z1DQ5HPUZCTXABIH90,,"<img src=""img/set1/S1.jpg"" width=""540"" height = ""360"" style=""border:16px solid orange"">",null,,,,,,,,
null,,html-keyboard-response,90,149030,0.0-90.0,3NKQQ8O39ZRLTXUL8Y6XT6XZ3RVUDM,A2TLN8489YGY81,30OITAWPBQP2Z1DQ5HPUZCTXABIH90,,,null,,,,,,,,
660,,image-keyboard-response,91,149693,0.0-91.0,3NKQQ8O39ZRLTXUL8Y6XT6XZ3RVUDM,A2TLN8489YGY81,30OITAWPBQP2Z1DQ5HPUZCTXABIH90,,img/set1/S2.jpg,68,2,structured_normal,68,"structured_normal,structured_incentive,random","1,2,2,3",TRUE,,
null,,html-keyboard-response,92,150053,0.0-92.0,3NKQQ8O39ZRLTXUL8Y6XT6XZ3RVUDM,A2TLN8489YGY81,30OITAWPBQP2Z1DQ5HPUZCTXABIH90,,"<img src=""img/set1/S2.jpg"" width=""540"" height = ""360"" style=""border:16px solid orange"">",null,,,,,,,,
null,,html-keyboard-response,93,150254,0.0-93.0,3NKQQ8O39ZRLTXUL8Y6XT6XZ3RVUDM,A2TLN8489YGY81,30OITAWPBQP2Z1DQ5HPUZCTXABIH90,,,null,,,,,,,,
602,,image-keyboard-response,94,150859,0.0-94.0,3NKQQ8O39ZRLTXUL8Y6XT6XZ3RVUDM,A2TLN8489YGY81,30OITAWPBQP2Z1DQ5HPUZCTXABIH90,,img/set1/S1.jpg,83,1,structured_normal,83,"structured_normal,structured_incentive,random","1,2,2,3",TRUE,,
null,,html-keyboard-response,95,151216,0.0-95.0,3NKQQ8O39ZRLTXUL8Y6XT6XZ3RVUDM,A2TLN8489YGY81,30OITAWPBQP2Z1DQ5HPUZCTXABIH90,,"<img src=""img/set1/S1.jpg"" width=""540"" height = ""360"" style=""border:16px solid orange"">",null,,,,,,,,
null,,html-keyboard-response,96,151416,0.0-96.0,3NKQQ8O39ZRLTXUL8Y6XT6XZ3RVUDM,A2TLN8489YGY81,30OITAWPBQP2Z1DQ5HPUZCTXABIH90,,,null,,,,,,,,
813,,image-keyboard-response,97,152229,0.0-97.0,3NKQQ8O39ZRLTXUL8Y6XT6XZ3RVUDM,A2TLN8489YGY81,30OITAWPBQP2Z1DQ5HPUZCTXABIH90,,img/set1/S2.jpg,68,2,structured_normal,68,"structured_normal,structured_incentive,random","1,2,2,3",TRUE,,
null,,html-keyboard-response,98,152594,0.0-98.0,3NKQQ8O39ZRLTXUL8Y6XT6XZ3RVUDM,A2TLN8489YGY81,30OITAWPBQP2Z1DQ5HPUZCTXABIH90,,"<img src=""img/set1/S2.jpg"" width=""540"" height = ""360"" style=""border:16px solid orange"">",null,,,,,,,,
null,,html-keyboard-response,99,152799,0.0-99.0,3NKQQ8O39ZRLTXUL8Y6XT6XZ3RVUDM,A2TLN8489YGY81,30OITAWPBQP2Z1DQ5HPUZCTXABIH90,,,null,,,,,,,,
693,,image-keyboard-response,100,153491,0.0-100.0,3NKQQ8O39ZRLTXUL8Y6XT6XZ3RVUDM,A2TLN8489YGY81,30OITAWPBQP2Z1DQ5HPUZCTXABIH90,,img/set1/S1.jpg,83,1,structured_normal,83,"structured_normal,structured_incentive,random","1,2,2,3",TRUE,,
null,,html-keyboard-response,101,153845,0.0-101.0,3NKQQ8O39ZRLTXUL8Y6XT6XZ3RVUDM,A2TLN8489YGY81,30OITAWPBQP2Z1DQ5HPUZCTXABIH90,,"<img src=""img/set1/S1.jpg"" width=""540"" height = ""360"" style=""border:16px solid orange"">",null,,,,,,,,
null,,html-keyboard-response,102,154046,0.0-102.0,3NKQQ8O39ZRLTXUL8Y6XT6XZ3RVUDM,A2TLN8489YGY81,30OITAWPBQP2Z1DQ5HPUZCTXABIH90,,,null,,,,,,,,
599,,image-keyboard-response,103,154645,0.0-103.0,3NKQQ8O39ZRLTXUL8Y6XT6XZ3RVUDM,A2TLN8489YGY81,30OITAWPBQP2Z1DQ5HPUZCTXABIH90,,img/set1/S2.jpg,68,2,structured_normal,68,"structured_normal,structured_incentive,random","1,2,2,3",TRUE,,
null,,html-keyboard-response,104,154998,0.0-104.0,3NKQQ8O39ZRLTXUL8Y6XT6XZ3RVUDM,A2TLN8489YGY81,30OITAWPBQP2Z1DQ5HPUZCTXABIH90,,"<img src=""img/set1/S2.jpg"" width=""540"" height = ""360"" style=""border:16px solid orange"">",null,,,,,,,,
null,,html-keyboard-response,105,155204,0.0-105.0,3NKQQ8O39ZRLTXUL8Y6XT6XZ3RVUDM,A2TLN8489YGY81,30OITAWPBQP2Z1DQ5HPUZCTXABIH90,,,null,,,,,,,,
690,,image-keyboard-response,106,155895,0.0-106.0,3NKQQ8O39ZRLTXUL8Y6XT6XZ3RVUDM,A2TLN8489YGY81,30OITAWPBQP2Z1DQ5HPUZCTXABIH90,,img/set1/S3.jpg,72,3,structured_normal,72,"structured_normal,structured_incentive,random","1,2,2,3",TRUE,,
null,,html-keyboard-response,107,156258,0.0-107.0,3NKQQ8O39ZRLTXUL8Y6XT6XZ3RVUDM,A2TLN8489YGY81,30OITAWPBQP2Z1DQ5HPUZCTXABIH90,,"<img src=""img/set1/S3.jpg"" width=""540"" height = ""360"" style=""border:16px solid orange"">",null,,,,,,,,
null,,html-keyboard-response,108,156465,0.0-108.0,3NKQQ8O39ZRLTXUL8Y6XT6XZ3RVUDM,A2TLN8489YGY81,30OITAWPBQP2Z1DQ5HPUZCTXABIH90,,,null,,,,,,,,
616,,image-keyboard-response,109,157082,0.0-109.0,3NKQQ8O39ZRLTXUL8Y6XT6XZ3RVUDM,A2TLN8489YGY81,30OITAWPBQP2Z1DQ5HPUZCTXABIH90,,img/set1/S3.jpg,72,3,structured_normal,72,"structured_normal,structured_incentive,random","1,2,2,3",TRUE,,
null,,html-keyboard-response,110,157442,0.0-110.0,3NKQQ8O39ZRLTXUL8Y6XT6XZ3RVUDM,A2TLN8489YGY81,30OITAWPBQP2Z1DQ5HPUZCTXABIH90,,"<img src=""img/set1/S3.jpg"" width=""540"" height = ""360"" style=""border:16px solid orange"">",null,,,,,,,,
null,,html-keyboard-response,111,157657,0.0-111.0,3NKQQ8O39ZRLTXUL8Y6XT6XZ3RVUDM,A2TLN8489YGY81,30OITAWPBQP2Z1DQ5HPUZCTXABIH90,,,null,,,,,,,,
837,,image-keyboard-response,112,158494,0.0-112.0,3NKQQ8O39ZRLTXUL8Y6XT6XZ3RVUDM,A2TLN8489YGY81,30OITAWPBQP2Z1DQ5HPUZCTXABIH90,,img/set1/S1.jpg,83,1,structured_normal,83,"structured_normal,structured_incentive,random","1,2,2,3",TRUE,,
null,,html-keyboard-response,113,158850,0.0-113.0,3NKQQ8O39ZRLTXUL8Y6XT6XZ3RVUDM,A2TLN8489YGY81,30OITAWPBQP2Z1DQ5HPUZCTXABIH90,,"<img src=""img/set1/S1.jpg"" width=""540"" height = ""360"" style=""border:16px solid orange"">",null,,,,,,,,
null,,html-keyboard-response,114,159053,0.0-114.0,3NKQQ8O39ZRLTXUL8Y6XT6XZ3RVUDM,A2TLN8489YGY81,30OITAWPBQP2Z1DQ5HPUZCTXABIH90,,,null,,,,,,,,
562,,image-keyboard-response,115,159615,0.0-115.0,3NKQQ8O39ZRLTXUL8Y6XT6XZ3RVUDM,A2TLN8489YGY81,30OITAWPBQP2Z1DQ5HPUZCTXABIH90,,img/set1/S2.jpg,68,2,structured_normal,68,"structured_normal,structured_incentive,random","1,2,2,3",TRUE,,
null,,html-keyboard-response,116,159969,0.0-116.0,3NKQQ8O39ZRLTXUL8Y6XT6XZ3RVUDM,A2TLN8489YGY81,30OITAWPBQP2Z1DQ5HPUZCTXABIH90,,"<img src=""img/set1/S2.jpg"" width=""540"" height = ""360"" style=""border:16px solid orange"">",null,,,,,,,,
null,,html-keyboard-response,117,160176,0.0-117.0,3NKQQ8O39ZRLTXUL8Y6XT6XZ3RVUDM,A2TLN8489YGY81,30OITAWPBQP2Z1DQ5HPUZCTXABIH90,,,null,,,,,,,,
751,,image-keyboard-response,118,160927,0.0-118.0,3NKQQ8O39ZRLTXUL8Y6XT6XZ3RVUDM,A2TLN8489YGY81,30OITAWPBQP2Z1DQ5HPUZCTXABIH90,,img/set1/S3.jpg,72,3,structured_normal,72,"structured_normal,structured_incentive,random","1,2,2,3",TRUE,,
null,,html-keyboard-response,119,161287,0.0-119.0,3NKQQ8O39ZRLTXUL8Y6XT6XZ3RVUDM,A2TLN8489YGY81,30OITAWPBQP2Z1DQ5HPUZCTXABIH90,,"<img src=""img/set1/S3.jpg"" width=""540"" height = ""360"" style=""border:16px solid orange"">",null,,,,,,,,
null,,html-keyboard-response,120,161491,0.0-120.0,3NKQQ8O39ZRLTXUL8Y6XT6XZ3RVUDM,A2TLN8489YGY81,30OITAWPBQP2Z1DQ5HPUZCTXABIH90,,,null,,,,,,,,
764,,image-keyboard-response,121,162256,0.0-121.0,3NKQQ8O39ZRLTXUL8Y6XT6XZ3RVUDM,A2TLN8489YGY81,30OITAWPBQP2Z1DQ5HPUZCTXABIH90,,img/set1/S1.jpg,83,1,structured_normal,83,"structured_normal,structured_incentive,random","1,2,2,3",TRUE,,
null,,html-keyboard-response,122,162613,0.0-122.0,3NKQQ8O39ZRLTXUL8Y6XT6XZ3RVUDM,A2TLN8489YGY81,30OITAWPBQP2Z1DQ5HPUZCTXABIH90,,"<img src=""img/set1/S1.jpg"" width=""540"" height = ""360"" style=""border:16px solid orange"">",null,,,,,,,,
null,,html-keyboard-response,123,162817,0.0-123.0,3NKQQ8O39ZRLTXUL8Y6XT6XZ3RVUDM,A2TLN8489YGY81,30OITAWPBQP2Z1DQ5HPUZCTXABIH90,,,null,,,,,,,,
691,,image-keyboard-response,124,163510,0.0-124.0,3NKQQ8O39ZRLTXUL8Y6XT6XZ3RVUDM,A2TLN8489YGY81,30OITAWPBQP2Z1DQ5HPUZCTXABIH90,,img/set1/S2.jpg,68,2,structured_normal,68,"structured_normal,structured_incentive,random","1,2,2,3",TRUE,,
null,,html-keyboard-response,125,163869,0.0-125.0,3NKQQ8O39ZRLTXUL8Y6XT6XZ3RVUDM,A2TLN8489YGY81,30OITAWPBQP2Z1DQ5HPUZCTXABIH90,,"<img src=""img/set1/S2.jpg"" width=""540"" height = ""360"" style=""border:16px solid orange"">",null,,,,,,,,
null,,html-keyboard-response,126,164071,0.0-126.0,3NKQQ8O39ZRLTXUL8Y6XT6XZ3RVUDM,A2TLN8489YGY81,30OITAWPBQP2Z1DQ5HPUZCTXABIH90,,,null,,,,,,,,
766,,image-keyboard-response,127,164839,0.0-127.0,3NKQQ8O39ZRLTXUL8Y6XT6XZ3RVUDM,A2TLN8489YGY81,30OITAWPBQP2Z1DQ5HPUZCTXABIH90,,img/set1/S4.jpg,74,4,structured_normal,74,"structured_normal,structured_incentive,random","1,2,2,3",TRUE,,
null,,html-keyboard-response,128,165203,0.0-128.0,3NKQQ8O39ZRLTXUL8Y6XT6XZ3RVUDM,A2TLN8489YGY81,30OITAWPBQP2Z1DQ5HPUZCTXABIH90,,"<img src=""img/set1/S4.jpg"" width=""540"" height = ""360"" style=""border:16px solid orange"">",null,,,,,,,,
null,,html-keyboard-response,129,165409,0.0-129.0,3NKQQ8O39ZRLTXUL8Y6XT6XZ3RVUDM,A2TLN8489YGY81,30OITAWPBQP2Z1DQ5HPUZCTXABIH90,,,null,,,,,,,,
1220,,image-keyboard-response,130,166631,0.0-130.0,3NKQQ8O39ZRLTXUL8Y6XT6XZ3RVUDM,A2TLN8489YGY81,30OITAWPBQP2Z1DQ5HPUZCTXABIH90,,img/set1/S4.jpg,74,4,structured_normal,74,"structured_normal,structured_incentive,random","1,2,2,3",TRUE,,
null,,html-keyboard-response,131,166995,0.0-131.0,3NKQQ8O39ZRLTXUL8Y6XT6XZ3RVUDM,A2TLN8489YGY81,30OITAWPBQP2Z1DQ5HPUZCTXABIH90,,"<img src=""img/set1/S4.jpg"" width=""540"" height = ""360"" style=""border:16px solid orange"">",null,,,,,,,,
null,,html-keyboard-response,132,167197,0.0-132.0,3NKQQ8O39ZRLTXUL8Y6XT6XZ3RVUDM,A2TLN8489YGY81,30OITAWPBQP2Z1DQ5HPUZCTXABIH90,,,null,,,,,,,,
1121,,image-keyboard-response,133,168318,0.0-133.0,3NKQQ8O39ZRLTXUL8Y6XT6XZ3RVUDM,A2TLN8489YGY81,30OITAWPBQP2Z1DQ5HPUZCTXABIH90,,img/set1/S4.jpg,74,4,structured_normal,74,"structured_normal,structured_incentive,random","1,2,2,3",TRUE,,
null,,html-keyboard-response,134,168675,0.0-134.0,3NKQQ8O39ZRLTXUL8Y6XT6XZ3RVUDM,A2TLN8489YGY81,30OITAWPBQP2Z1DQ5HPUZCTXABIH90,,"<img src=""img/set1/S4.jpg"" width=""540"" height = ""360"" style=""border:16px solid orange"">",null,,,,,,,,
null,,html-keyboard-response,135,168878,0.0-135.0,3NKQQ8O39ZRLTXUL8Y6XT6XZ3RVUDM,A2TLN8489YGY81,30OITAWPBQP2Z1DQ5HPUZCTXABIH90,,,null,,,,,,,,
1644,,image-keyboard-response,136,170523,0.0-136.0,3NKQQ8O39ZRLTXUL8Y6XT6XZ3RVUDM,A2TLN8489YGY81,30OITAWPBQP2Z1DQ5HPUZCTXABIH90,,img/set1/S3.jpg,72,3,structured_normal,72,"structured_normal,structured_incentive,random","1,2,2,3",TRUE,,
null,,html-keyboard-response,137,170888,0.0-137.0,3NKQQ8O39ZRLTXUL8Y6XT6XZ3RVUDM,A2TLN8489YGY81,30OITAWPBQP2Z1DQ5HPUZCTXABIH90,,"<img src=""img/set1/S3.jpg"" width=""540"" height = ""360"" style=""border:16px solid orange"">",null,,,,,,,,
null,,html-keyboard-response,138,171089,0.0-138.0,3NKQQ8O39ZRLTXUL8Y6XT6XZ3RVUDM,A2TLN8489YGY81,30OITAWPBQP2Z1DQ5HPUZCTXABIH90,,,null,,,,,,,,
678,,image-keyboard-response,139,171768,0.0-139.0,3NKQQ8O39ZRLTXUL8Y6XT6XZ3RVUDM,A2TLN8489YGY81,30OITAWPBQP2Z1DQ5HPUZCTXABIH90,,img/set1/S4.jpg,74,4,structured_normal,74,"structured_normal,structured_incentive,random","1,2,2,3",TRUE,,
null,,html-keyboard-response,140,172130,0.0-140.0,3NKQQ8O39ZRLTXUL8Y6XT6XZ3RVUDM,A2TLN8489YGY81,30OITAWPBQP2Z1DQ5HPUZCTXABIH90,,"<img src=""img/set1/S4.jpg"" width=""540"" height = ""360"" style=""border:16px solid orange"">",null,,,,,,,,
null,,html-keyboard-response,141,172333,0.0-141.0,3NKQQ8O39ZRLTXUL8Y6XT6XZ3RVUDM,A2TLN8489YGY81,30OITAWPBQP2Z1DQ5HPUZCTXABIH90,,,null,,,,,,,,
477,,image-keyboard-response,142,172810,0.0-142.0,3NKQQ8O39ZRLTXUL8Y6XT6XZ3RVUDM,A2TLN8489YGY81,30OITAWPBQP2Z1DQ5HPUZCTXABIH90,,img/set1/S4.jpg,74,4,structured_normal,74,"structured_normal,structured_incentive,random","1,2,2,3",TRUE,,
null,,html-keyboard-response,143,173167,0.0-143.0,3NKQQ8O39ZRLTXUL8Y6XT6XZ3RVUDM,A2TLN8489YGY81,30OITAWPBQP2Z1DQ5HPUZCTXABIH90,,"<img src=""img/set1/S4.jpg"" width=""540"" height = ""360"" style=""border:16px solid orange"">",null,,,,,,,,
null,,html-keyboard-response,144,173375,0.0-144.0,3NKQQ8O39ZRLTXUL8Y6XT6XZ3RVUDM,A2TLN8489YGY81,30OITAWPBQP2Z1DQ5HPUZCTXABIH90,,,null,,,,,,,,
767,,image-keyboard-response,145,174143,0.0-145.0,3NKQQ8O39ZRLTXUL8Y6XT6XZ3RVUDM,A2TLN8489YGY81,30OITAWPBQP2Z1DQ5HPUZCTXABIH90,,img/set1/S2.jpg,68,2,structured_normal,68,"structured_normal,structured_incentive,random","1,2,2,3",TRUE,,
null,,html-keyboard-response,146,174495,0.0-146.0,3NKQQ8O39ZRLTXUL8Y6XT6XZ3RVUDM,A2TLN8489YGY81,30OITAWPBQP2Z1DQ5HPUZCTXABIH90,,"<img src=""img/set1/S2.jpg"" width=""540"" height = ""360"" style=""border:16px solid orange"">",null,,,,,,,,
null,,html-keyboard-response,147,174699,0.0-147.0,3NKQQ8O39ZRLTXUL8Y6XT6XZ3RVUDM,A2TLN8489YGY81,30OITAWPBQP2Z1DQ5HPUZCTXABIH90,,,null,,,,,,,,
879,,image-keyboard-response,148,175580,0.0-148.0,3NKQQ8O39ZRLTXUL8Y6XT6XZ3RVUDM,A2TLN8489YGY81,30OITAWPBQP2Z1DQ5HPUZCTXABIH90,,img/set1/S4.jpg,74,4,structured_normal,74,"structured_normal,structured_incentive,random","1,2,2,3",TRUE,,
null,,html-keyboard-response,149,175933,0.0-149.0,3NKQQ8O39ZRLTXUL8Y6XT6XZ3RVUDM,A2TLN8489YGY81,30OITAWPBQP2Z1DQ5HPUZCTXABIH90,,"<img src=""img/set1/S4.jpg"" width=""540"" height = ""360"" style=""border:16px solid orange"">",null,,,,,,,,
null,,html-keyboard-response,150,176137,0.0-150.0,3NKQQ8O39ZRLTXUL8Y6XT6XZ3RVUDM,A2TLN8489YGY81,30OITAWPBQP2Z1DQ5HPUZCTXABIH90,,,null,,,,,,,,
1042,,image-keyboard-response,151,177180,0.0-151.0,3NKQQ8O39ZRLTXUL8Y6XT6XZ3RVUDM,A2TLN8489YGY81,30OITAWPBQP2Z1DQ5HPUZCTXABIH90,,img/set1/S1.jpg,83,1,structured_normal,83,"structured_normal,structured_incentive,random","1,2,2,3",TRUE,,
null,,html-keyboard-response,152,177539,0.0-152.0,3NKQQ8O39ZRLTXUL8Y6XT6XZ3RVUDM,A2TLN8489YGY81,30OITAWPBQP2Z1DQ5HPUZCTXABIH90,,"<img src=""img/set1/S1.jpg"" width=""540"" height = ""360"" style=""border:16px solid orange"">",null,,,,,,,,
null,,html-keyboard-response,153,177743,0.0-153.0,3NKQQ8O39ZRLTXUL8Y6XT6XZ3RVUDM,A2TLN8489YGY81,30OITAWPBQP2Z1DQ5HPUZCTXABIH90,,,null,,,,,,,,
1536,,image-keyboard-response,154,179280,0.0-154.0,3NKQQ8O39ZRLTXUL8Y6XT6XZ3RVUDM,A2TLN8489YGY81,30OITAWPBQP2Z1DQ5HPUZCTXABIH90,,img/set1/S2.jpg,68,2,structured_normal,68,"structured_normal,structured_incentive,random","1,2,2,3",TRUE,,
null,,html-keyboard-response,155,179644,0.0-155.0,3NKQQ8O39ZRLTXUL8Y6XT6XZ3RVUDM,A2TLN8489YGY81,30OITAWPBQP2Z1DQ5HPUZCTXABIH90,,"<img src=""img/set1/S2.jpg"" width=""540"" height = ""360"" style=""border:16px solid orange"">",null,,,,,,,,
null,,html-keyboard-response,156,179848,0.0-156.0,3NKQQ8O39ZRLTXUL8Y6XT6XZ3RVUDM,A2TLN8489YGY81,30OITAWPBQP2Z1DQ5HPUZCTXABIH90,,,null,,,,,,,,
1675,,image-keyboard-response,157,181523,0.0-157.0,3NKQQ8O39ZRLTXUL8Y6XT6XZ3RVUDM,A2TLN8489YGY81,30OITAWPBQP2Z1DQ5HPUZCTXABIH90,,img/set1/S4.jpg,74,4,structured_normal,74,"structured_normal,structured_incentive,random","1,2,2,3",TRUE,,
null,,html-keyboard-response,158,181882,0.0-158.0,3NKQQ8O39ZRLTXUL8Y6XT6XZ3RVUDM,A2TLN8489YGY81,30OITAWPBQP2Z1DQ5HPUZCTXABIH90,,"<img src=""img/set1/S4.jpg"" width=""540"" height = ""360"" style=""border:16px solid orange"">",null,,,,,,,,
null,,html-keyboard-response,159,182083,0.0-159.0,3NKQQ8O39ZRLTXUL8Y6XT6XZ3RVUDM,A2TLN8489YGY81,30OITAWPBQP2Z1DQ5HPUZCTXABIH90,,,null,,,,,,,,
434,,image-keyboard-response,160,182518,0.0-160.0,3NKQQ8O39ZRLTXUL8Y6XT6XZ3RVUDM,A2TLN8489YGY81,30OITAWPBQP2Z1DQ5HPUZCTXABIH90,,img/set1/S4.jpg,74,4,structured_normal,74,"structured_normal,structured_incentive,random","1,2,2,3",TRUE,,
null,,html-keyboard-response,161,182872,0.0-161.0,3NKQQ8O39ZRLTXUL8Y6XT6XZ3RVUDM,A2TLN8489YGY81,30OITAWPBQP2Z1DQ5HPUZCTXABIH90,,"<img src=""img/set1/S4.jpg"" width=""540"" height = ""360"" style=""border:16px solid orange"">",null,,,,,,,,
null,,html-keyboard-response,162,183076,0.0-162.0,3NKQQ8O39ZRLTXUL8Y6XT6XZ3RVUDM,A2TLN8489YGY81,30OITAWPBQP2Z1DQ5HPUZCTXABIH90,,,null,,,,,,,,
657,,image-keyboard-response,163,183734,0.0-163.0,3NKQQ8O39ZRLTXUL8Y6XT6XZ3RVUDM,A2TLN8489YGY81,30OITAWPBQP2Z1DQ5HPUZCTXABIH90,,img/set1/S3.jpg,72,3,structured_normal,72,"structured_normal,structured_incentive,random","1,2,2,3",TRUE,,
null,,html-keyboard-response,164,184092,0.0-164.0,3NKQQ8O39ZRLTXUL8Y6XT6XZ3RVUDM,A2TLN8489YGY81,30OITAWPBQP2Z1DQ5HPUZCTXABIH90,,"<img src=""img/set1/S3.jpg"" width=""540"" height = ""360"" style=""border:16px solid orange"">",null,,,,,,,,
null,,html-keyboard-response,165,184292,0.0-165.0,3NKQQ8O39ZRLTXUL8Y6XT6XZ3RVUDM,A2TLN8489YGY81,30OITAWPBQP2Z1DQ5HPUZCTXABIH90,,,null,,,,,,,,
553,,image-keyboard-response,166,184846,0.0-166.0,3NKQQ8O39ZRLTXUL8Y6XT6XZ3RVUDM,A2TLN8489YGY81,30OITAWPBQP2Z1DQ5HPUZCTXABIH90,,img/set1/S4.jpg,74,4,structured_normal,74,"structured_normal,structured_incentive,random","1,2,2,3",TRUE,,
null,,html-keyboard-response,167,185212,0.0-167.0,3NKQQ8O39ZRLTXUL8Y6XT6XZ3RVUDM,A2TLN8489YGY81,30OITAWPBQP2Z1DQ5HPUZCTXABIH90,,"<img src=""img/set1/S4.jpg"" width=""540"" height = ""360"" style=""border:16px solid orange"">",null,,,,,,,,
null,,html-keyboard-response,168,185418,0.0-168.0,3NKQQ8O39ZRLTXUL8Y6XT6XZ3RVUDM,A2TLN8489YGY81,30OITAWPBQP2Z1DQ5HPUZCTXABIH90,,,null,,,,,,,,
426,,image-keyboard-response,169,185845,0.0-169.0,3NKQQ8O39ZRLTXUL8Y6XT6XZ3RVUDM,A2TLN8489YGY81,30OITAWPBQP2Z1DQ5HPUZCTXABIH90,,img/set1/S4.jpg,74,4,structured_normal,74,"structured_normal,structured_incentive,random","1,2,2,3",TRUE,,
null,,html-keyboard-response,170,186199,0.0-170.0,3NKQQ8O39ZRLTXUL8Y6XT6XZ3RVUDM,A2TLN8489YGY81,30OITAWPBQP2Z1DQ5HPUZCTXABIH90,,"<img src=""img/set1/S4.jpg"" width=""540"" height = ""360"" style=""border:16px solid orange"">",null,,,,,,,,
null,,html-keyboard-response,171,186401,0.0-171.0,3NKQQ8O39ZRLTXUL8Y6XT6XZ3RVUDM,A2TLN8489YGY81,30OITAWPBQP2Z1DQ5HPUZCTXABIH90,,,null,,,,,,,,
1115,,image-keyboard-response,172,187516,0.0-172.0,3NKQQ8O39ZRLTXUL8Y6XT6XZ3RVUDM,A2TLN8489YGY81,30OITAWPBQP2Z1DQ5HPUZCTXABIH90,,img/set1/S3.jpg,72,3,structured_normal,72,"structured_normal,structured_incentive,random","1,2,2,3",TRUE,,
null,,html-keyboard-response,173,187870,0.0-173.0,3NKQQ8O39ZRLTXUL8Y6XT6XZ3RVUDM,A2TLN8489YGY81,30OITAWPBQP2Z1DQ5HPUZCTXABIH90,,"<img src=""img/set1/S3.jpg"" width=""540"" height = ""360"" style=""border:16px solid orange"">",null,,,,,,,,
null,,html-keyboard-response,174,188072,0.0-174.0,3NKQQ8O39ZRLTXUL8Y6XT6XZ3RVUDM,A2TLN8489YGY81,30OITAWPBQP2Z1DQ5HPUZCTXABIH90,,,null,,,,,,,,
388,,image-keyboard-response,175,188461,0.0-175.0,3NKQQ8O39ZRLTXUL8Y6XT6XZ3RVUDM,A2TLN8489YGY81,30OITAWPBQP2Z1DQ5HPUZCTXABIH90,,img/set1/S3.jpg,72,3,structured_normal,72,"structured_normal,structured_incentive,random","1,2,2,3",TRUE,,
null,,html-keyboard-response,176,188820,0.0-176.0,3NKQQ8O39ZRLTXUL8Y6XT6XZ3RVUDM,A2TLN8489YGY81,30OITAWPBQP2Z1DQ5HPUZCTXABIH90,,"<img src=""img/set1/S3.jpg"" width=""540"" height = ""360"" style=""border:16px solid orange"">",null,,,,,,,,
null,,html-keyboard-response,177,189021,0.0-177.0,3NKQQ8O39ZRLTXUL8Y6XT6XZ3RVUDM,A2TLN8489YGY81,30OITAWPBQP2Z1DQ5HPUZCTXABIH90,,,null,,,,,,,,
644,,image-keyboard-response,178,189665,0.0-178.0,3NKQQ8O39ZRLTXUL8Y6XT6XZ3RVUDM,A2TLN8489YGY81,30OITAWPBQP2Z1DQ5HPUZCTXABIH90,,img/set1/S4.jpg,74,4,structured_normal,74,"structured_normal,structured_incentive,random","1,2,2,3",TRUE,,
null,,html-keyboard-response,179,190021,0.0-179.0,3NKQQ8O39ZRLTXUL8Y6XT6XZ3RVUDM,A2TLN8489YGY81,30OITAWPBQP2Z1DQ5HPUZCTXABIH90,,"<img src=""img/set1/S4.jpg"" width=""540"" height = ""360"" style=""border:16px solid orange"">",null,,,,,,,,
null,,html-keyboard-response,180,190235,0.0-180.0,3NKQQ8O39ZRLTXUL8Y6XT6XZ3RVUDM,A2TLN8489YGY81,30OITAWPBQP2Z1DQ5HPUZCTXABIH90,,,null,,,,,,,,
354,,image-keyboard-response,181,190590,0.0-181.0,3NKQQ8O39ZRLTXUL8Y6XT6XZ3RVUDM,A2TLN8489YGY81,30OITAWPBQP2Z1DQ5HPUZCTXABIH90,,img/set1/S4.jpg,74,4,structured_normal,74,"structured_normal,structured_incentive,random","1,2,2,3",TRUE,,
null,,html-keyboard-response,182,190945,0.0-182.0,3NKQQ8O39ZRLTXUL8Y6XT6XZ3RVUDM,A2TLN8489YGY81,30OITAWPBQP2Z1DQ5HPUZCTXABIH90,,"<img src=""img/set1/S4.jpg"" width=""540"" height = ""360"" style=""border:16px solid orange"">",null,,,,,,,,
null,,html-keyboard-response,183,191151,0.0-183.0,3NKQQ8O39ZRLTXUL8Y6XT6XZ3RVUDM,A2TLN8489YGY81,30OITAWPBQP2Z1DQ5HPUZCTXABIH90,,,null,,,,,,,,
322,,image-keyboard-response,184,191473,0.0-184.0,3NKQQ8O39ZRLTXUL8Y6XT6XZ3RVUDM,A2TLN8489YGY81,30OITAWPBQP2Z1DQ5HPUZCTXABIH90,,img/set1/S4.jpg,74,4,structured_normal,74,"structured_normal,structured_incentive,random","1,2,2,3",TRUE,,
null,,html-keyboard-response,185,191827,0.0-185.0,3NKQQ8O39ZRLTXUL8Y6XT6XZ3RVUDM,A2TLN8489YGY81,30OITAWPBQP2Z1DQ5HPUZCTXABIH90,,"<img src=""img/set1/S4.jpg"" width=""540"" height = ""360"" style=""border:16px solid orange"">",null,,,,,,,,
null,,html-keyboard-response,186,192027,0.0-186.0,3NKQQ8O39ZRLTXUL8Y6XT6XZ3RVUDM,A2TLN8489YGY81,30OITAWPBQP2Z1DQ5HPUZCTXABIH90,,,null,,,,,,,,
664,,image-keyboard-response,187,192693,0.0-187.0,3NKQQ8O39ZRLTXUL8Y6XT6XZ3RVUDM,A2TLN8489YGY81,30OITAWPBQP2Z1DQ5HPUZCTXABIH90,,img/set1/S3.jpg,72,3,structured_normal,72,"structured_normal,structured_incentive,random","1,2,2,3",TRUE,,
null,,html-keyboard-response,188,193051,0.0-188.0,3NKQQ8O39ZRLTXUL8Y6XT6XZ3RVUDM,A2TLN8489YGY81,30OITAWPBQP2Z1DQ5HPUZCTXABIH90,,"<img src=""img/set1/S3.jpg"" width=""540"" height = ""360"" style=""border:16px solid orange"">",null,,,,,,,,
null,,html-keyboard-response,189,193256,0.0-189.0,3NKQQ8O39ZRLTXUL8Y6XT6XZ3RVUDM,A2TLN8489YGY81,30OITAWPBQP2Z1DQ5HPUZCTXABIH90,,,null,,,,,,,,
406,,image-keyboard-response,190,193664,0.0-190.0,3NKQQ8O39ZRLTXUL8Y6XT6XZ3RVUDM,A2TLN8489YGY81,30OITAWPBQP2Z1DQ5HPUZCTXABIH90,,img/set1/S3.jpg,72,3,structured_normal,72,"structured_normal,structured_incentive,random","1,2,2,3",TRUE,,
null,,html-keyboard-response,191,194015,0.0-191.0,3NKQQ8O39ZRLTXUL8Y6XT6XZ3RVUDM,A2TLN8489YGY81,30OITAWPBQP2Z1DQ5HPUZCTXABIH90,,"<img src=""img/set1/S3.jpg"" width=""540"" height = ""360"" style=""border:16px solid orange"">",null,,,,,,,,
null,,html-keyboard-response,192,194219,0.0-192.0,3NKQQ8O39ZRLTXUL8Y6XT6XZ3RVUDM,A2TLN8489YGY81,30OITAWPBQP2Z1DQ5HPUZCTXABIH90,,,null,,,,,,,,
885,,image-keyboard-response,193,195105,0.0-193.0,3NKQQ8O39ZRLTXUL8Y6XT6XZ3RVUDM,A2TLN8489YGY81,30OITAWPBQP2Z1DQ5HPUZCTXABIH90,,img/set1/S1.jpg,83,1,structured_normal,83,"structured_normal,structured_incentive,random","1,2,2,3",TRUE,,
null,,html-keyboard-response,194,195468,0.0-194.0,3NKQQ8O39ZRLTXUL8Y6XT6XZ3RVUDM,A2TLN8489YGY81,30OITAWPBQP2Z1DQ5HPUZCTXABIH90,,"<img src=""img/set1/S1.jpg"" width=""540"" height = ""360"" style=""border:16px solid orange"">",null,,,,,,,,
null,,html-keyboard-response,195,195671,0.0-195.0,3NKQQ8O39ZRLTXUL8Y6XT6XZ3RVUDM,A2TLN8489YGY81,30OITAWPBQP2Z1DQ5HPUZCTXABIH90,,,null,,,,,,,,
529,,image-keyboard-response,196,196200,0.0-196.0,3NKQQ8O39ZRLTXUL8Y6XT6XZ3RVUDM,A2TLN8489YGY81,30OITAWPBQP2Z1DQ5HPUZCTXABIH90,,img/set1/S2.jpg,68,2,structured_normal,68,"structured_normal,structured_incentive,random","1,2,2,3",TRUE,,
null,,html-keyboard-response,197,196557,0.0-197.0,3NKQQ8O39ZRLTXUL8Y6XT6XZ3RVUDM,A2TLN8489YGY81,30OITAWPBQP2Z1DQ5HPUZCTXABIH90,,"<img src=""img/set1/S2.jpg"" width=""540"" height = ""360"" style=""border:16px solid orange"">",null,,,,,,,,
null,,html-keyboard-response,198,196760,0.0-198.0,3NKQQ8O39ZRLTXUL8Y6XT6XZ3RVUDM,A2TLN8489YGY81,30OITAWPBQP2Z1DQ5HPUZCTXABIH90,,,null,,,,,,,,
924,,image-keyboard-response,199,197683,0.0-199.0,3NKQQ8O39ZRLTXUL8Y6XT6XZ3RVUDM,A2TLN8489YGY81,30OITAWPBQP2Z1DQ5HPUZCTXABIH90,,img/set1/S3.jpg,72,3,structured_normal,72,"structured_normal,structured_incentive,random","1,2,2,3",TRUE,,
null,,html-keyboard-response,200,198037,0.0-200.0,3NKQQ8O39ZRLTXUL8Y6XT6XZ3RVUDM,A2TLN8489YGY81,30OITAWPBQP2Z1DQ5HPUZCTXABIH90,,"<img src=""img/set1/S3.jpg"" width=""540"" height = ""360"" style=""border:16px solid orange"">",null,,,,,,,,
null,,html-keyboard-response,201,198238,0.0-201.0,3NKQQ8O39ZRLTXUL8Y6XT6XZ3RVUDM,A2TLN8489YGY81,30OITAWPBQP2Z1DQ5HPUZCTXABIH90,,,null,,,,,,,,
565,,image-keyboard-response,202,198804,0.0-202.0,3NKQQ8O39ZRLTXUL8Y6XT6XZ3RVUDM,A2TLN8489YGY81,30OITAWPBQP2Z1DQ5HPUZCTXABIH90,,img/set1/S4.jpg,74,4,structured_normal,74,"structured_normal,structured_incentive,random","1,2,2,3",TRUE,,
null,,html-keyboard-response,203,199156,0.0-203.0,3NKQQ8O39ZRLTXUL8Y6XT6XZ3RVUDM,A2TLN8489YGY81,30OITAWPBQP2Z1DQ5HPUZCTXABIH90,,"<img src=""img/set1/S4.jpg"" width=""540"" height = ""360"" style=""border:16px solid orange"">",null,,,,,,,,
null,,html-keyboard-response,204,199360,0.0-204.0,3NKQQ8O39ZRLTXUL8Y6XT6XZ3RVUDM,A2TLN8489YGY81,30OITAWPBQP2Z1DQ5HPUZCTXABIH90,,,null,,,,,,,,
838,,image-keyboard-response,205,200200,0.0-205.0,3NKQQ8O39ZRLTXUL8Y6XT6XZ3RVUDM,A2TLN8489YGY81,30OITAWPBQP2Z1DQ5HPUZCTXABIH90,,img/set1/S1.jpg,83,1,structured_normal,83,"structured_normal,structured_incentive,random","1,2,2,3",TRUE,,
null,,html-keyboard-response,206,200564,0.0-206.0,3NKQQ8O39ZRLTXUL8Y6XT6XZ3RVUDM,A2TLN8489YGY81,30OITAWPBQP2Z1DQ5HPUZCTXABIH90,,"<img src=""img/set1/S1.jpg"" width=""540"" height = ""360"" style=""border:16px solid orange"">",null,,,,,,,,
null,,html-keyboard-response,207,200772,0.0-207.0,3NKQQ8O39ZRLTXUL8Y6XT6XZ3RVUDM,A2TLN8489YGY81,30OITAWPBQP2Z1DQ5HPUZCTXABIH90,,,null,,,,,,,,
756,,image-keyboard-response,208,201529,0.0-208.0,3NKQQ8O39ZRLTXUL8Y6XT6XZ3RVUDM,A2TLN8489YGY81,30OITAWPBQP2Z1DQ5HPUZCTXABIH90,,img/set1/S3.jpg,72,3,structured_normal,72,"structured_normal,structured_incentive,random","1,2,2,3",TRUE,,
null,,html-keyboard-response,209,201884,0.0-209.0,3NKQQ8O39ZRLTXUL8Y6XT6XZ3RVUDM,A2TLN8489YGY81,30OITAWPBQP2Z1DQ5HPUZCTXABIH90,,"<img src=""img/set1/S3.jpg"" width=""540"" height = ""360"" style=""border:16px solid orange"">",null,,,,,,,,
null,,html-keyboard-response,210,202087,0.0-210.0,3NKQQ8O39ZRLTXUL8Y6XT6XZ3RVUDM,A2TLN8489YGY81,30OITAWPBQP2Z1DQ5HPUZCTXABIH90,,,null,,,,,,,,
406,,image-keyboard-response,211,202494,0.0-211.0,3NKQQ8O39ZRLTXUL8Y6XT6XZ3RVUDM,A2TLN8489YGY81,30OITAWPBQP2Z1DQ5HPUZCTXABIH90,,img/set1/S3.jpg,72,3,structured_normal,72,"structured_normal,structured_incentive,random","1,2,2,3",TRUE,,
null,,html-keyboard-response,212,202848,0.0-212.0,3NKQQ8O39ZRLTXUL8Y6XT6XZ3RVUDM,A2TLN8489YGY81,30OITAWPBQP2Z1DQ5HPUZCTXABIH90,,"<img src=""img/set1/S3.jpg"" width=""540"" height = ""360"" style=""border:16px solid orange"">",null,,,,,,,,
null,,html-keyboard-response,213,203050,0.0-213.0,3NKQQ8O39ZRLTXUL8Y6XT6XZ3RVUDM,A2TLN8489YGY81,30OITAWPBQP2Z1DQ5HPUZCTXABIH90,,,null,,,,,,,,
843,,image-keyboard-response,214,203894,0.0-214.0,3NKQQ8O39ZRLTXUL8Y6XT6XZ3RVUDM,A2TLN8489YGY81,30OITAWPBQP2Z1DQ5HPUZCTXABIH90,,img/set1/S1.jpg,83,1,structured_normal,83,"structured_normal,structured_incentive,random","1,2,2,3",TRUE,,
null,,html-keyboard-response,215,204247,0.0-215.0,3NKQQ8O39ZRLTXUL8Y6XT6XZ3RVUDM,A2TLN8489YGY81,30OITAWPBQP2Z1DQ5HPUZCTXABIH90,,"<img src=""img/set1/S1.jpg"" width=""540"" height = ""360"" style=""border:16px solid orange"">",null,,,,,,,,
null,,html-keyboard-response,216,204450,0.0-216.0,3NKQQ8O39ZRLTXUL8Y6XT6XZ3RVUDM,A2TLN8489YGY81,30OITAWPBQP2Z1DQ5HPUZCTXABIH90,,,null,,,,,,,,
631,,image-keyboard-response,217,205082,0.0-217.0,3NKQQ8O39ZRLTXUL8Y6XT6XZ3RVUDM,A2TLN8489YGY81,30OITAWPBQP2Z1DQ5HPUZCTXABIH90,,img/set1/S2.jpg,68,2,structured_normal,68,"structured_normal,structured_incentive,random","1,2,2,3",TRUE,,
null,,html-keyboard-response,218,205440,0.0-218.0,3NKQQ8O39ZRLTXUL8Y6XT6XZ3RVUDM,A2TLN8489YGY81,30OITAWPBQP2Z1DQ5HPUZCTXABIH90,,"<img src=""img/set1/S2.jpg"" width=""540"" height = ""360"" style=""border:16px solid orange"">",null,,,,,,,,
null,,html-keyboard-response,219,205646,0.0-219.0,3NKQQ8O39ZRLTXUL8Y6XT6XZ3RVUDM,A2TLN8489YGY81,30OITAWPBQP2Z1DQ5HPUZCTXABIH90,,,null,,,,,,,,
651,,image-keyboard-response,220,206298,0.0-220.0,3NKQQ8O39ZRLTXUL8Y6XT6XZ3RVUDM,A2TLN8489YGY81,30OITAWPBQP2Z1DQ5HPUZCTXABIH90,,img/set1/S4.jpg,74,4,structured_normal,74,"structured_normal,structured_incentive,random","1,2,2,3",TRUE,,
null,,html-keyboard-response,221,206654,0.0-221.0,3NKQQ8O39ZRLTXUL8Y6XT6XZ3RVUDM,A2TLN8489YGY81,30OITAWPBQP2Z1DQ5HPUZCTXABIH90,,"<img src=""img/set1/S4.jpg"" width=""540"" height = ""360"" style=""border:16px solid orange"">",null,,,,,,,,
null,,html-keyboard-response,222,206857,0.0-222.0,3NKQQ8O39ZRLTXUL8Y6XT6XZ3RVUDM,A2TLN8489YGY81,30OITAWPBQP2Z1DQ5HPUZCTXABIH90,,,null,,,,,,,,
844,,image-keyboard-response,223,207702,0.0-223.0,3NKQQ8O39ZRLTXUL8Y6XT6XZ3RVUDM,A2TLN8489YGY81,30OITAWPBQP2Z1DQ5HPUZCTXABIH90,,img/set1/S1.jpg,83,1,structured_normal,83,"structured_normal,structured_incentive,random","1,2,2,3",TRUE,,
null,,html-keyboard-response,224,208060,0.0-224.0,3NKQQ8O39ZRLTXUL8Y6XT6XZ3RVUDM,A2TLN8489YGY81,30OITAWPBQP2Z1DQ5HPUZCTXABIH90,,"<img src=""img/set1/S1.jpg"" width=""540"" height = ""360"" style=""border:16px solid orange"">",null,,,,,,,,
null,,html-keyboard-response,225,208264,0.0-225.0,3NKQQ8O39ZRLTXUL8Y6XT6XZ3RVUDM,A2TLN8489YGY81,30OITAWPBQP2Z1DQ5HPUZCTXABIH90,,,null,,,,,,,,
757,,image-keyboard-response,226,209023,0.0-226.0,3NKQQ8O39ZRLTXUL8Y6XT6XZ3RVUDM,A2TLN8489YGY81,30OITAWPBQP2Z1DQ5HPUZCTXABIH90,,img/set1/S2.jpg,68,2,structured_normal,68,"structured_normal,structured_incentive,random","1,2,2,3",TRUE,,
null,,html-keyboard-response,227,209377,0.0-227.0,3NKQQ8O39ZRLTXUL8Y6XT6XZ3RVUDM,A2TLN8489YGY81,30OITAWPBQP2Z1DQ5HPUZCTXABIH90,,"<img src=""img/set1/S2.jpg"" width=""540"" height = ""360"" style=""border:16px solid orange"">",null,,,,,,,,
null,,html-keyboard-response,228,209580,0.0-228.0,3NKQQ8O39ZRLTXUL8Y6XT6XZ3RVUDM,A2TLN8489YGY81,30OITAWPBQP2Z1DQ5HPUZCTXABIH90,,,null,,,,,,,,
726,,image-keyboard-response,229,210305,0.0-229.0,3NKQQ8O39ZRLTXUL8Y6XT6XZ3RVUDM,A2TLN8489YGY81,30OITAWPBQP2Z1DQ5HPUZCTXABIH90,,img/set1/S1.jpg,83,1,structured_normal,83,"structured_normal,structured_incentive,random","1,2,2,3",TRUE,,
null,,html-keyboard-response,230,210672,0.0-230.0,3NKQQ8O39ZRLTXUL8Y6XT6XZ3RVUDM,A2TLN8489YGY81,30OITAWPBQP2Z1DQ5HPUZCTXABIH90,,"<img src=""img/set1/S1.jpg"" width=""540"" height = ""360"" style=""border:16px solid orange"">",null,,,,,,,,
null,,html-keyboard-response,231,210887,0.0-231.0,3NKQQ8O39ZRLTXUL8Y6XT6XZ3RVUDM,A2TLN8489YGY81,30OITAWPBQP2Z1DQ5HPUZCTXABIH90,,,null,,,,,,,,
618,,image-keyboard-response,232,211506,0.0-232.0,3NKQQ8O39ZRLTXUL8Y6XT6XZ3RVUDM,A2TLN8489YGY81,30OITAWPBQP2Z1DQ5HPUZCTXABIH90,,img/set1/S2.jpg,68,2,structured_normal,68,"structured_normal,structured_incentive,random","1,2,2,3",TRUE,,
null,,html-keyboard-response,233,211870,0.0-233.0,3NKQQ8O39ZRLTXUL8Y6XT6XZ3RVUDM,A2TLN8489YGY81,30OITAWPBQP2Z1DQ5HPUZCTXABIH90,,"<img src=""img/set1/S2.jpg"" width=""540"" height = ""360"" style=""border:16px solid orange"">",null,,,,,,,,
null,,html-keyboard-response,234,212086,0.0-234.0,3NKQQ8O39ZRLTXUL8Y6XT6XZ3RVUDM,A2TLN8489YGY81,30OITAWPBQP2Z1DQ5HPUZCTXABIH90,,,null,,,,,,,,
380,,image-keyboard-response,235,212467,0.0-235.0,3NKQQ8O39ZRLTXUL8Y6XT6XZ3RVUDM,A2TLN8489YGY81,30OITAWPBQP2Z1DQ5HPUZCTXABIH90,,img/set1/S2.jpg,68,2,structured_normal,68,"structured_normal,structured_incentive,random","1,2,2,3",TRUE,,
null,,html-keyboard-response,236,212831,0.0-236.0,3NKQQ8O39ZRLTXUL8Y6XT6XZ3RVUDM,A2TLN8489YGY81,30OITAWPBQP2Z1DQ5HPUZCTXABIH90,,"<img src=""img/set1/S2.jpg"" width=""540"" height = ""360"" style=""border:16px solid orange"">",null,,,,,,,,
null,,html-keyboard-response,237,213033,0.0-237.0,3NKQQ8O39ZRLTXUL8Y6XT6XZ3RVUDM,A2TLN8489YGY81,30OITAWPBQP2Z1DQ5HPUZCTXABIH90,,,null,,,,,,,,
370,,image-keyboard-response,238,213404,0.0-238.0,3NKQQ8O39ZRLTXUL8Y6XT6XZ3RVUDM,A2TLN8489YGY81,30OITAWPBQP2Z1DQ5HPUZCTXABIH90,,img/set1/S2.jpg,68,2,structured_normal,68,"structured_normal,structured_incentive,random","1,2,2,3",TRUE,,
null,,html-keyboard-response,239,213755,0.0-239.0,3NKQQ8O39ZRLTXUL8Y6XT6XZ3RVUDM,A2TLN8489YGY81,30OITAWPBQP2Z1DQ5HPUZCTXABIH90,,"<img src=""img/set1/S2.jpg"" width=""540"" height = ""360"" style=""border:16px solid orange"">",null,,,,,,,,
null,,html-keyboard-response,240,213957,0.0-240.0,3NKQQ8O39ZRLTXUL8Y6XT6XZ3RVUDM,A2TLN8489YGY81,30OITAWPBQP2Z1DQ5HPUZCTXABIH90,,,null,,,,,,,,
595,,image-keyboard-response,241,214553,0.0-241.0,3NKQQ8O39ZRLTXUL8Y6XT6XZ3RVUDM,A2TLN8489YGY81,30OITAWPBQP2Z1DQ5HPUZCTXABIH90,,img/set1/S1.jpg,83,1,structured_normal,83,"structured_normal,structured_incentive,random","1,2,2,3",TRUE,,
null,,html-keyboard-response,242,214910,0.0-242.0,3NKQQ8O39ZRLTXUL8Y6XT6XZ3RVUDM,A2TLN8489YGY81,30OITAWPBQP2Z1DQ5HPUZCTXABIH90,,"<img src=""img/set1/S1.jpg"" width=""540"" height = ""360"" style=""border:16px solid orange"">",null,,,,,,,,
null,,html-keyboard-response,243,215117,0.0-243.0,3NKQQ8O39ZRLTXUL8Y6XT6XZ3RVUDM,A2TLN8489YGY81,30OITAWPBQP2Z1DQ5HPUZCTXABIH90,,,null,,,,,,,,
560,,image-keyboard-response,244,215678,0.0-244.0,3NKQQ8O39ZRLTXUL8Y6XT6XZ3RVUDM,A2TLN8489YGY81,30OITAWPBQP2Z1DQ5HPUZCTXABIH90,,img/set1/S2.jpg,68,2,structured_normal,68,"structured_normal,structured_incentive,random","1,2,2,3",TRUE,,
null,,html-keyboard-response,245,216031,0.0-245.0,3NKQQ8O39ZRLTXUL8Y6XT6XZ3RVUDM,A2TLN8489YGY81,30OITAWPBQP2Z1DQ5HPUZCTXABIH90,,"<img src=""img/set1/S2.jpg"" width=""540"" height = ""360"" style=""border:16px solid orange"">",null,,,,,,,,
null,,html-keyboard-response,246,216232,0.0-246.0,3NKQQ8O39ZRLTXUL8Y6XT6XZ3RVUDM,A2TLN8489YGY81,30OITAWPBQP2Z1DQ5HPUZCTXABIH90,,,null,,,,,,,,
708,,image-keyboard-response,247,216941,0.0-247.0,3NKQQ8O39ZRLTXUL8Y6XT6XZ3RVUDM,A2TLN8489YGY81,30OITAWPBQP2Z1DQ5HPUZCTXABIH90,,img/set1/S3.jpg,72,3,structured_normal,72,"structured_normal,structured_incentive,random","1,2,2,3",TRUE,,
null,,html-keyboard-response,248,217292,0.0-248.0,3NKQQ8O39ZRLTXUL8Y6XT6XZ3RVUDM,A2TLN8489YGY81,30OITAWPBQP2Z1DQ5HPUZCTXABIH90,,"<img src=""img/set1/S3.jpg"" width=""540"" height = ""360"" style=""border:16px solid orange"">",null,,,,,,,,
null,,html-keyboard-response,249,217497,0.0-249.0,3NKQQ8O39ZRLTXUL8Y6XT6XZ3RVUDM,A2TLN8489YGY81,30OITAWPBQP2Z1DQ5HPUZCTXABIH90,,,null,,,,,,,,
738,,image-keyboard-response,250,218235,0.0-250.0,3NKQQ8O39ZRLTXUL8Y6XT6XZ3RVUDM,A2TLN8489YGY81,30OITAWPBQP2Z1DQ5HPUZCTXABIH90,,img/set1/S2.jpg,68,2,structured_normal,68,"structured_normal,structured_incentive,random","1,2,2,3",TRUE,,
null,,html-keyboard-response,251,218597,0.0-251.0,3NKQQ8O39ZRLTXUL8Y6XT6XZ3RVUDM,A2TLN8489YGY81,30OITAWPBQP2Z1DQ5HPUZCTXABIH90,,"<img src=""img/set1/S2.jpg"" width=""540"" height = ""360"" style=""border:16px solid orange"">",null,,,,,,,,
null,,html-keyboard-response,252,218800,0.0-252.0,3NKQQ8O39ZRLTXUL8Y6XT6XZ3RVUDM,A2TLN8489YGY81,30OITAWPBQP2Z1DQ5HPUZCTXABIH90,,,null,,,,,,,,
455,,image-keyboard-response,253,219256,0.0-253.0,3NKQQ8O39ZRLTXUL8Y6XT6XZ3RVUDM,A2TLN8489YGY81,30OITAWPBQP2Z1DQ5HPUZCTXABIH90,,img/set1/S2.jpg,68,2,structured_normal,68,"structured_normal,structured_incentive,random","1,2,2,3",TRUE,,
null,,html-keyboard-response,254,219612,0.0-254.0,3NKQQ8O39ZRLTXUL8Y6XT6XZ3RVUDM,A2TLN8489YGY81,30OITAWPBQP2Z1DQ5HPUZCTXABIH90,,"<img src=""img/set1/S2.jpg"" width=""540"" height = ""360"" style=""border:16px solid orange"">",null,,,,,,,,
null,,html-keyboard-response,255,219815,0.0-255.0,3NKQQ8O39ZRLTXUL8Y6XT6XZ3RVUDM,A2TLN8489YGY81,30OITAWPBQP2Z1DQ5HPUZCTXABIH90,,,null,,,,,,,,
661,,image-keyboard-response,256,220477,0.0-256.0,3NKQQ8O39ZRLTXUL8Y6XT6XZ3RVUDM,A2TLN8489YGY81,30OITAWPBQP2Z1DQ5HPUZCTXABIH90,,img/set1/S4.jpg,74,4,structured_normal,74,"structured_normal,structured_incentive,random","1,2,2,3",TRUE,,
null,,html-keyboard-response,257,220838,0.0-257.0,3NKQQ8O39ZRLTXUL8Y6XT6XZ3RVUDM,A2TLN8489YGY81,30OITAWPBQP2Z1DQ5HPUZCTXABIH90,,"<img src=""img/set1/S4.jpg"" width=""540"" height = ""360"" style=""border:16px solid orange"">",null,,,,,,,,
null,,html-keyboard-response,258,221043,0.0-258.0,3NKQQ8O39ZRLTXUL8Y6XT6XZ3RVUDM,A2TLN8489YGY81,30OITAWPBQP2Z1DQ5HPUZCTXABIH90,,,null,,,,,,,,
827,,image-keyboard-response,259,221873,0.0-259.0,3NKQQ8O39ZRLTXUL8Y6XT6XZ3RVUDM,A2TLN8489YGY81,30OITAWPBQP2Z1DQ5HPUZCTXABIH90,,img/set1/S2.jpg,68,2,structured_normal,68,"structured_normal,structured_incentive,random","1,2,2,3",TRUE,,
null,,html-keyboard-response,260,222226,0.0-260.0,3NKQQ8O39ZRLTXUL8Y6XT6XZ3RVUDM,A2TLN8489YGY81,30OITAWPBQP2Z1DQ5HPUZCTXABIH90,,"<img src=""img/set1/S2.jpg"" width=""540"" height = ""360"" style=""border:16px solid orange"">",null,,,,,,,,
null,,html-keyboard-response,261,222432,0.0-261.0,3NKQQ8O39ZRLTXUL8Y6XT6XZ3RVUDM,A2TLN8489YGY81,30OITAWPBQP2Z1DQ5HPUZCTXABIH90,,,null,,,,,,,,
515,,image-keyboard-response,262,222947,0.0-262.0,3NKQQ8O39ZRLTXUL8Y6XT6XZ3RVUDM,A2TLN8489YGY81,30OITAWPBQP2Z1DQ5HPUZCTXABIH90,,img/set1/S4.jpg,83,4,structured_normal,74,"structured_normal,structured_incentive,random","1,2,2,3",FALSE,,
null,,html-keyboard-response,263,223298,0.0-263.0,3NKQQ8O39ZRLTXUL8Y6XT6XZ3RVUDM,A2TLN8489YGY81,30OITAWPBQP2Z1DQ5HPUZCTXABIH90,,"<img src=""img/set1/S4.jpg"" width=""540"" height = ""360"">",null,,,,,,,,
null,,html-keyboard-response,264,223503,0.0-264.0,3NKQQ8O39ZRLTXUL8Y6XT6XZ3RVUDM,A2TLN8489YGY81,30OITAWPBQP2Z1DQ5HPUZCTXABIH90,,,null,,,,,,,,
1066,,image-keyboard-response,265,224570,0.0-265.0,3NKQQ8O39ZRLTXUL8Y6XT6XZ3RVUDM,A2TLN8489YGY81,30OITAWPBQP2Z1DQ5HPUZCTXABIH90,,img/set1/S1.jpg,83,1,structured_normal,83,"structured_normal,structured_incentive,random","1,2,2,3",TRUE,,
null,,html-keyboard-response,266,224923,0.0-266.0,3NKQQ8O39ZRLTXUL8Y6XT6XZ3RVUDM,A2TLN8489YGY81,30OITAWPBQP2Z1DQ5HPUZCTXABIH90,,"<img src=""img/set1/S1.jpg"" width=""540"" height = ""360"" style=""border:16px solid orange"">",null,,,,,,,,
null,,html-keyboard-response,267,225127,0.0-267.0,3NKQQ8O39ZRLTXUL8Y6XT6XZ3RVUDM,A2TLN8489YGY81,30OITAWPBQP2Z1DQ5HPUZCTXABIH90,,,null,,,,,,,,
721,,image-keyboard-response,268,225848,0.0-268.0,3NKQQ8O39ZRLTXUL8Y6XT6XZ3RVUDM,A2TLN8489YGY81,30OITAWPBQP2Z1DQ5HPUZCTXABIH90,,img/set1/S2.jpg,68,2,structured_normal,68,"structured_normal,structured_incentive,random","1,2,2,3",TRUE,,
null,,html-keyboard-response,269,226207,0.0-269.0,3NKQQ8O39ZRLTXUL8Y6XT6XZ3RVUDM,A2TLN8489YGY81,30OITAWPBQP2Z1DQ5HPUZCTXABIH90,,"<img src=""img/set1/S2.jpg"" width=""540"" height = ""360"" style=""border:16px solid orange"">",null,,,,,,,,
null,,html-keyboard-response,270,226411,0.0-270.0,3NKQQ8O39ZRLTXUL8Y6XT6XZ3RVUDM,A2TLN8489YGY81,30OITAWPBQP2Z1DQ5HPUZCTXABIH90,,,null,,,,,,,,
618,,image-keyboard-response,271,227030,0.0-271.0,3NKQQ8O39ZRLTXUL8Y6XT6XZ3RVUDM,A2TLN8489YGY81,30OITAWPBQP2Z1DQ5HPUZCTXABIH90,,img/set1/S4.jpg,74,4,structured_normal,74,"structured_normal,structured_incentive,random","1,2,2,3",TRUE,,
null,,html-keyboard-response,272,227395,0.0-272.0,3NKQQ8O39ZRLTXUL8Y6XT6XZ3RVUDM,A2TLN8489YGY81,30OITAWPBQP2Z1DQ5HPUZCTXABIH90,,"<img src=""img/set1/S4.jpg"" width=""540"" height = ""360"" style=""border:16px solid orange"">",null,,,,,,,,
null,,html-keyboard-response,273,227600,0.0-273.0,3NKQQ8O39ZRLTXUL8Y6XT6XZ3RVUDM,A2TLN8489YGY81,30OITAWPBQP2Z1DQ5HPUZCTXABIH90,,,null,,,,,,,,
358,,image-keyboard-response,274,227959,0.0-274.0,3NKQQ8O39ZRLTXUL8Y6XT6XZ3RVUDM,A2TLN8489YGY81,30OITAWPBQP2Z1DQ5HPUZCTXABIH90,,img/set1/S4.jpg,74,4,structured_normal,74,"structured_normal,structured_incentive,random","1,2,2,3",TRUE,,
null,,html-keyboard-response,275,228310,0.0-275.0,3NKQQ8O39ZRLTXUL8Y6XT6XZ3RVUDM,A2TLN8489YGY81,30OITAWPBQP2Z1DQ5HPUZCTXABIH90,,"<img src=""img/set1/S4.jpg"" width=""540"" height = ""360"" style=""border:16px solid orange"">",null,,,,,,,,
null,,html-keyboard-response,276,228524,0.0-276.0,3NKQQ8O39ZRLTXUL8Y6XT6XZ3RVUDM,A2TLN8489YGY81,30OITAWPBQP2Z1DQ5HPUZCTXABIH90,,,null,,,,,,,,
733,,image-keyboard-response,277,229259,0.0-277.0,3NKQQ8O39ZRLTXUL8Y6XT6XZ3RVUDM,A2TLN8489YGY81,30OITAWPBQP2Z1DQ5HPUZCTXABIH90,,img/set1/S1.jpg,83,1,structured_normal,83,"structured_normal,structured_incentive,random","1,2,2,3",TRUE,,
null,,html-keyboard-response,278,229623,0.0-278.0,3NKQQ8O39ZRLTXUL8Y6XT6XZ3RVUDM,A2TLN8489YGY81,30OITAWPBQP2Z1DQ5HPUZCTXABIH90,,"<img src=""img/set1/S1.jpg"" width=""540"" height = ""360"" style=""border:16px solid orange"">",null,,,,,,,,
null,,html-keyboard-response,279,229825,0.0-279.0,3NKQQ8O39ZRLTXUL8Y6XT6XZ3RVUDM,A2TLN8489YGY81,30OITAWPBQP2Z1DQ5HPUZCTXABIH90,,,null,,,,,,,,
616,,image-keyboard-response,280,230443,0.0-280.0,3NKQQ8O39ZRLTXUL8Y6XT6XZ3RVUDM,A2TLN8489YGY81,30OITAWPBQP2Z1DQ5HPUZCTXABIH90,,img/set1/S2.jpg,68,2,structured_normal,68,"structured_normal,structured_incentive,random","1,2,2,3",TRUE,,
null,,html-keyboard-response,281,230807,0.0-281.0,3NKQQ8O39ZRLTXUL8Y6XT6XZ3RVUDM,A2TLN8489YGY81,30OITAWPBQP2Z1DQ5HPUZCTXABIH90,,"<img src=""img/set1/S2.jpg"" width=""540"" height = ""360"" style=""border:16px solid orange"">",null,,,,,,,,
null,,html-keyboard-response,282,231007,0.0-282.0,3NKQQ8O39ZRLTXUL8Y6XT6XZ3RVUDM,A2TLN8489YGY81,30OITAWPBQP2Z1DQ5HPUZCTXABIH90,,,null,,,,,,,,
650,,image-keyboard-response,283,231658,0.0-283.0,3NKQQ8O39ZRLTXUL8Y6XT6XZ3RVUDM,A2TLN8489YGY81,30OITAWPBQP2Z1DQ5HPUZCTXABIH90,,img/set1/S3.jpg,72,3,structured_normal,72,"structured_normal,structured_incentive,random","1,2,2,3",TRUE,,
null,,html-keyboard-response,284,232025,0.0-284.0,3NKQQ8O39ZRLTXUL8Y6XT6XZ3RVUDM,A2TLN8489YGY81,30OITAWPBQP2Z1DQ5HPUZCTXABIH90,,"<img src=""img/set1/S3.jpg"" width=""540"" height = ""360"" style=""border:16px solid orange"">",null,,,,,,,,
null,,html-keyboard-response,285,232229,0.0-285.0,3NKQQ8O39ZRLTXUL8Y6XT6XZ3RVUDM,A2TLN8489YGY81,30OITAWPBQP2Z1DQ5HPUZCTXABIH90,,,null,,,,,,,,
819,,image-keyboard-response,286,233049,0.0-286.0,3NKQQ8O39ZRLTXUL8Y6XT6XZ3RVUDM,A2TLN8489YGY81,30OITAWPBQP2Z1DQ5HPUZCTXABIH90,,img/set1/S1.jpg,83,1,structured_normal,83,"structured_normal,structured_incentive,random","1,2,2,3",TRUE,,
null,,html-keyboard-response,287,233402,0.0-287.0,3NKQQ8O39ZRLTXUL8Y6XT6XZ3RVUDM,A2TLN8489YGY81,30OITAWPBQP2Z1DQ5HPUZCTXABIH90,,"<img src=""img/set1/S1.jpg"" width=""540"" height = ""360"" style=""border:16px solid orange"">",null,,,,,,,,
null,,html-keyboard-response,288,233617,0.0-288.0,3NKQQ8O39ZRLTXUL8Y6XT6XZ3RVUDM,A2TLN8489YGY81,30OITAWPBQP2Z1DQ5HPUZCTXABIH90,,,null,,,,,,,,
734,,image-keyboard-response,289,234354,0.0-289.0,3NKQQ8O39ZRLTXUL8Y6XT6XZ3RVUDM,A2TLN8489YGY81,30OITAWPBQP2Z1DQ5HPUZCTXABIH90,,img/set1/S2.jpg,68,2,structured_normal,68,"structured_normal,structured_incentive,random","1,2,2,3",TRUE,,
null,,html-keyboard-response,290,234711,0.0-290.0,3NKQQ8O39ZRLTXUL8Y6XT6XZ3RVUDM,A2TLN8489YGY81,30OITAWPBQP2Z1DQ5HPUZCTXABIH90,,"<img src=""img/set1/S2.jpg"" width=""540"" height = ""360"" style=""border:16px solid orange"">",null,,,,,,,,
null,,html-keyboard-response,291,234913,0.0-291.0,3NKQQ8O39ZRLTXUL8Y6XT6XZ3RVUDM,A2TLN8489YGY81,30OITAWPBQP2Z1DQ5HPUZCTXABIH90,,,null,,,,,,,,
622,,image-keyboard-response,292,235537,0.0-292.0,3NKQQ8O39ZRLTXUL8Y6XT6XZ3RVUDM,A2TLN8489YGY81,30OITAWPBQP2Z1DQ5HPUZCTXABIH90,,img/set1/S1.jpg,83,1,structured_normal,83,"structured_normal,structured_incentive,random","1,2,2,3",TRUE,,
null,,html-keyboard-response,293,235895,0.0-293.0,3NKQQ8O39ZRLTXUL8Y6XT6XZ3RVUDM,A2TLN8489YGY81,30OITAWPBQP2Z1DQ5HPUZCTXABIH90,,"<img src=""img/set1/S1.jpg"" width=""540"" height = ""360"" style=""border:16px solid orange"">",null,,,,,,,,
null,,html-keyboard-response,294,236097,0.0-294.0,3NKQQ8O39ZRLTXUL8Y6XT6XZ3RVUDM,A2TLN8489YGY81,30OITAWPBQP2Z1DQ5HPUZCTXABIH90,,,null,,,,,,,,
1063,,image-keyboard-response,295,237161,0.0-295.0,3NKQQ8O39ZRLTXUL8Y6XT6XZ3RVUDM,A2TLN8489YGY81,30OITAWPBQP2Z1DQ5HPUZCTXABIH90,,img/set1/S2.jpg,68,2,structured_normal,68,"structured_normal,structured_incentive,random","1,2,2,3",TRUE,,
null,,html-keyboard-response,296,237515,0.0-296.0,3NKQQ8O39ZRLTXUL8Y6XT6XZ3RVUDM,A2TLN8489YGY81,30OITAWPBQP2Z1DQ5HPUZCTXABIH90,,"<img src=""img/set1/S2.jpg"" width=""540"" height = ""360"" style=""border:16px solid orange"">",null,,,,,,,,
null,,html-keyboard-response,297,237718,0.0-297.0,3NKQQ8O39ZRLTXUL8Y6XT6XZ3RVUDM,A2TLN8489YGY81,30OITAWPBQP2Z1DQ5HPUZCTXABIH90,,,null,,,,,,,,
476,,image-keyboard-response,298,238194,0.0-298.0,3NKQQ8O39ZRLTXUL8Y6XT6XZ3RVUDM,A2TLN8489YGY81,30OITAWPBQP2Z1DQ5HPUZCTXABIH90,,img/set1/S1.jpg,83,1,structured_normal,83,"structured_normal,structured_incentive,random","1,2,2,3",TRUE,,
null,,html-keyboard-response,299,238555,0.0-299.0,3NKQQ8O39ZRLTXUL8Y6XT6XZ3RVUDM,A2TLN8489YGY81,30OITAWPBQP2Z1DQ5HPUZCTXABIH90,,"<img src=""img/set1/S1.jpg"" width=""540"" height = ""360"" style=""border:16px solid orange"">",null,,,,,,,,
null,,html-keyboard-response,300,238758,0.0-300.0,3NKQQ8O39ZRLTXUL8Y6XT6XZ3RVUDM,A2TLN8489YGY81,30OITAWPBQP2Z1DQ5HPUZCTXABIH90,,,null,,,,,,,,
485,,image-keyboard-response,301,239245,0.0-301.0,3NKQQ8O39ZRLTXUL8Y6XT6XZ3RVUDM,A2TLN8489YGY81,30OITAWPBQP2Z1DQ5HPUZCTXABIH90,,img/set1/S2.jpg,68,2,structured_normal,68,"structured_normal,structured_incentive,random","1,2,2,3",TRUE,,
null,,html-keyboard-response,302,239604,0.0-302.0,3NKQQ8O39ZRLTXUL8Y6XT6XZ3RVUDM,A2TLN8489YGY81,30OITAWPBQP2Z1DQ5HPUZCTXABIH90,,"<img src=""img/set1/S2.jpg"" width=""540"" height = ""360"" style=""border:16px solid orange"">",null,,,,,,,,
null,,html-keyboard-response,303,239818,0.0-303.0,3NKQQ8O39ZRLTXUL8Y6XT6XZ3RVUDM,A2TLN8489YGY81,30OITAWPBQP2Z1DQ5HPUZCTXABIH90,,,null,,,,,,,,
704,,image-keyboard-response,304,240523,0.0-304.0,3NKQQ8O39ZRLTXUL8Y6XT6XZ3RVUDM,A2TLN8489YGY81,30OITAWPBQP2Z1DQ5HPUZCTXABIH90,,img/set1/S3.jpg,72,3,structured_normal,72,"structured_normal,structured_incentive,random","1,2,2,3",TRUE,,
null,,html-keyboard-response,305,240879,0.0-305.0,3NKQQ8O39ZRLTXUL8Y6XT6XZ3RVUDM,A2TLN8489YGY81,30OITAWPBQP2Z1DQ5HPUZCTXABIH90,,"<img src=""img/set1/S3.jpg"" width=""540"" height = ""360"" style=""border:16px solid orange"">",null,,,,,,,,
null,,html-keyboard-response,306,241083,0.0-306.0,3NKQQ8O39ZRLTXUL8Y6XT6XZ3RVUDM,A2TLN8489YGY81,30OITAWPBQP2Z1DQ5HPUZCTXABIH90,,,null,,,,,,,,
384,,image-keyboard-response,307,241468,0.0-307.0,3NKQQ8O39ZRLTXUL8Y6XT6XZ3RVUDM,A2TLN8489YGY81,30OITAWPBQP2Z1DQ5HPUZCTXABIH90,,img/set1/S3.jpg,72,3,structured_normal,72,"structured_normal,structured_incentive,random","1,2,2,3",TRUE,,
null,,html-keyboard-response,308,241824,0.0-308.0,3NKQQ8O39ZRLTXUL8Y6XT6XZ3RVUDM,A2TLN8489YGY81,30OITAWPBQP2Z1DQ5HPUZCTXABIH90,,"<img src=""img/set1/S3.jpg"" width=""540"" height = ""360"" style=""border:16px solid orange"">",null,,,,,,,,
null,,html-keyboard-response,309,242029,0.0-309.0,3NKQQ8O39ZRLTXUL8Y6XT6XZ3RVUDM,A2TLN8489YGY81,30OITAWPBQP2Z1DQ5HPUZCTXABIH90,,,null,,,,,,,,
759,,image-keyboard-response,310,242789,0.0-310.0,3NKQQ8O39ZRLTXUL8Y6XT6XZ3RVUDM,A2TLN8489YGY81,30OITAWPBQP2Z1DQ5HPUZCTXABIH90,,img/set1/S1.jpg,83,1,structured_normal,83,"structured_normal,structured_incentive,random","1,2,2,3",TRUE,,
null,,html-keyboard-response,311,243152,0.0-311.0,3NKQQ8O39ZRLTXUL8Y6XT6XZ3RVUDM,A2TLN8489YGY81,30OITAWPBQP2Z1DQ5HPUZCTXABIH90,,"<img src=""img/set1/S1.jpg"" width=""540"" height = ""360"" style=""border:16px solid orange"">",null,,,,,,,,
null,,html-keyboard-response,312,243363,0.0-312.0,3NKQQ8O39ZRLTXUL8Y6XT6XZ3RVUDM,A2TLN8489YGY81,30OITAWPBQP2Z1DQ5HPUZCTXABIH90,,,null,,,,,,,,
674,,image-keyboard-response,313,244039,0.0-313.0,3NKQQ8O39ZRLTXUL8Y6XT6XZ3RVUDM,A2TLN8489YGY81,30OITAWPBQP2Z1DQ5HPUZCTXABIH90,,img/set1/S2.jpg,68,2,structured_normal,68,"structured_normal,structured_incentive,random","1,2,2,3",TRUE,,
null,,html-keyboard-response,314,244403,0.0-314.0,3NKQQ8O39ZRLTXUL8Y6XT6XZ3RVUDM,A2TLN8489YGY81,30OITAWPBQP2Z1DQ5HPUZCTXABIH90,,"<img src=""img/set1/S2.jpg"" width=""540"" height = ""360"" style=""border:16px solid orange"">",null,,,,,,,,
null,,html-keyboard-response,315,244606,0.0-315.0,3NKQQ8O39ZRLTXUL8Y6XT6XZ3RVUDM,A2TLN8489YGY81,30OITAWPBQP2Z1DQ5HPUZCTXABIH90,,,null,,,,,,,,
1420,,image-keyboard-response,316,246026,0.0-316.0,3NKQQ8O39ZRLTXUL8Y6XT6XZ3RVUDM,A2TLN8489YGY81,30OITAWPBQP2Z1DQ5HPUZCTXABIH90,,img/set1/S3.jpg,74,3,structured_normal,72,"structured_normal,structured_incentive,random","1,2,2,3",FALSE,,
null,,html-keyboard-response,317,246381,0.0-317.0,3NKQQ8O39ZRLTXUL8Y6XT6XZ3RVUDM,A2TLN8489YGY81,30OITAWPBQP2Z1DQ5HPUZCTXABIH90,,"<img src=""img/set1/S3.jpg"" width=""540"" height = ""360"">",null,,,,,,,,
null,,html-keyboard-response,318,246584,0.0-318.0,3NKQQ8O39ZRLTXUL8Y6XT6XZ3RVUDM,A2TLN8489YGY81,30OITAWPBQP2Z1DQ5HPUZCTXABIH90,,,null,,,,,,,,
736,,image-keyboard-response,319,247320,0.0-319.0,3NKQQ8O39ZRLTXUL8Y6XT6XZ3RVUDM,A2TLN8489YGY81,30OITAWPBQP2Z1DQ5HPUZCTXABIH90,,img/set1/S1.jpg,83,1,structured_normal,83,"structured_normal,structured_incentive,random","1,2,2,3",TRUE,,
null,,html-keyboard-response,320,247679,0.0-320.0,3NKQQ8O39ZRLTXUL8Y6XT6XZ3RVUDM,A2TLN8489YGY81,30OITAWPBQP2Z1DQ5HPUZCTXABIH90,,"<img src=""img/set1/S1.jpg"" width=""540"" height = ""360"" style=""border:16px solid orange"">",null,,,,,,,,
null,,html-keyboard-response,321,247893,0.0-321.0,3NKQQ8O39ZRLTXUL8Y6XT6XZ3RVUDM,A2TLN8489YGY81,30OITAWPBQP2Z1DQ5HPUZCTXABIH90,,,null,,,,,,,,
776,,image-keyboard-response,322,248670,0.0-322.0,3NKQQ8O39ZRLTXUL8Y6XT6XZ3RVUDM,A2TLN8489YGY81,30OITAWPBQP2Z1DQ5HPUZCTXABIH90,,img/set1/S2.jpg,68,2,structured_normal,68,"structured_normal,structured_incentive,random","1,2,2,3",TRUE,,
null,,html-keyboard-response,323,249028,0.0-323.0,3NKQQ8O39ZRLTXUL8Y6XT6XZ3RVUDM,A2TLN8489YGY81,30OITAWPBQP2Z1DQ5HPUZCTXABIH90,,"<img src=""img/set1/S2.jpg"" width=""540"" height = ""360"" style=""border:16px solid orange"">",null,,,,,,,,
null,,html-keyboard-response,324,249229,0.0-324.0,3NKQQ8O39ZRLTXUL8Y6XT6XZ3RVUDM,A2TLN8489YGY81,30OITAWPBQP2Z1DQ5HPUZCTXABIH90,,,null,,,,,,,,
627,,image-keyboard-response,325,249858,0.0-325.0,3NKQQ8O39ZRLTXUL8Y6XT6XZ3RVUDM,A2TLN8489YGY81,30OITAWPBQP2Z1DQ5HPUZCTXABIH90,,img/set1/S1.jpg,83,1,structured_normal,83,"structured_normal,structured_incentive,random","1,2,2,3",TRUE,,
null,,html-keyboard-response,326,250217,0.0-326.0,3NKQQ8O39ZRLTXUL8Y6XT6XZ3RVUDM,A2TLN8489YGY81,30OITAWPBQP2Z1DQ5HPUZCTXABIH90,,"<img src=""img/set1/S1.jpg"" width=""540"" height = ""360"" style=""border:16px solid orange"">",null,,,,,,,,
null,,html-keyboard-response,327,250433,0.0-327.0,3NKQQ8O39ZRLTXUL8Y6XT6XZ3RVUDM,A2TLN8489YGY81,30OITAWPBQP2Z1DQ5HPUZCTXABIH90,,,null,,,,,,,,
485,,image-keyboard-response,328,250919,0.0-328.0,3NKQQ8O39ZRLTXUL8Y6XT6XZ3RVUDM,A2TLN8489YGY81,30OITAWPBQP2Z1DQ5HPUZCTXABIH90,,img/set1/S3.jpg,72,3,structured_normal,72,"structured_normal,structured_incentive,random","1,2,2,3",TRUE,,
null,,html-keyboard-response,329,251273,0.0-329.0,3NKQQ8O39ZRLTXUL8Y6XT6XZ3RVUDM,A2TLN8489YGY81,30OITAWPBQP2Z1DQ5HPUZCTXABIH90,,"<img src=""img/set1/S3.jpg"" width=""540"" height = ""360"" style=""border:16px solid orange"">",null,,,,,,,,
null,,html-keyboard-response,330,251480,0.0-330.0,3NKQQ8O39ZRLTXUL8Y6XT6XZ3RVUDM,A2TLN8489YGY81,30OITAWPBQP2Z1DQ5HPUZCTXABIH90,,,null,,,,,,,,
468,,image-keyboard-response,331,251948,0.0-331.0,3NKQQ8O39ZRLTXUL8Y6XT6XZ3RVUDM,A2TLN8489YGY81,30OITAWPBQP2Z1DQ5HPUZCTXABIH90,,img/set1/S1.jpg,83,1,structured_normal,83,"structured_normal,structured_incentive,random","1,2,2,3",TRUE,,
null,,html-keyboard-response,332,252311,0.0-332.0,3NKQQ8O39ZRLTXUL8Y6XT6XZ3RVUDM,A2TLN8489YGY81,30OITAWPBQP2Z1DQ5HPUZCTXABIH90,,"<img src=""img/set1/S1.jpg"" width=""540"" height = ""360"" style=""border:16px solid orange"">",null,,,,,,,,
null,,html-keyboard-response,333,252526,0.0-333.0,3NKQQ8O39ZRLTXUL8Y6XT6XZ3RVUDM,A2TLN8489YGY81,30OITAWPBQP2Z1DQ5HPUZCTXABIH90,,,null,,,,,,,,
1137,,image-keyboard-response,334,253665,0.0-334.0,3NKQQ8O39ZRLTXUL8Y6XT6XZ3RVUDM,A2TLN8489YGY81,30OITAWPBQP2Z1DQ5HPUZCTXABIH90,,img/set1/S2.jpg,68,2,structured_normal,68,"structured_normal,structured_incentive,random","1,2,2,3",TRUE,,
null,,html-keyboard-response,335,254019,0.0-335.0,3NKQQ8O39ZRLTXUL8Y6XT6XZ3RVUDM,A2TLN8489YGY81,30OITAWPBQP2Z1DQ5HPUZCTXABIH90,,"<img src=""img/set1/S2.jpg"" width=""540"" height = ""360"" style=""border:16px solid orange"">",null,,,,,,,,
null,,html-keyboard-response,336,254220,0.0-336.0,3NKQQ8O39ZRLTXUL8Y6XT6XZ3RVUDM,A2TLN8489YGY81,30OITAWPBQP2Z1DQ5HPUZCTXABIH90,,,null,,,,,,,,
731,,image-keyboard-response,337,254952,0.0-337.0,3NKQQ8O39ZRLTXUL8Y6XT6XZ3RVUDM,A2TLN8489YGY81,30OITAWPBQP2Z1DQ5HPUZCTXABIH90,,img/set1/S4.jpg,74,4,structured_normal,74,"structured_normal,structured_incentive,random","1,2,2,3",TRUE,,
null,,html-keyboard-response,338,255307,0.0-338.0,3NKQQ8O39ZRLTXUL8Y6XT6XZ3RVUDM,A2TLN8489YGY81,30OITAWPBQP2Z1DQ5HPUZCTXABIH90,,"<img src=""img/set1/S4.jpg"" width=""540"" height = ""360"" style=""border:16px solid orange"">",null,,,,,,,,
null,,html-keyboard-response,339,255511,0.0-339.0,3NKQQ8O39ZRLTXUL8Y6XT6XZ3RVUDM,A2TLN8489YGY81,30OITAWPBQP2Z1DQ5HPUZCTXABIH90,,,null,,,,,,,,
440,,image-keyboard-response,340,255952,0.0-340.0,3NKQQ8O39ZRLTXUL8Y6XT6XZ3RVUDM,A2TLN8489YGY81,30OITAWPBQP2Z1DQ5HPUZCTXABIH90,,img/set1/S4.jpg,74,4,structured_normal,74,"structured_normal,structured_incentive,random","1,2,2,3",TRUE,,
null,,html-keyboard-response,341,256311,0.0-341.0,3NKQQ8O39ZRLTXUL8Y6XT6XZ3RVUDM,A2TLN8489YGY81,30OITAWPBQP2Z1DQ5HPUZCTXABIH90,,"<img src=""img/set1/S4.jpg"" width=""540"" height = ""360"" style=""border:16px solid orange"">",null,,,,,,,,
null,,html-keyboard-response,342,256514,0.0-342.0,3NKQQ8O39ZRLTXUL8Y6XT6XZ3RVUDM,A2TLN8489YGY81,30OITAWPBQP2Z1DQ5HPUZCTXABIH90,,,null,,,,,,,,
641,,image-keyboard-response,343,257155,0.0-343.0,3NKQQ8O39ZRLTXUL8Y6XT6XZ3RVUDM,A2TLN8489YGY81,30OITAWPBQP2Z1DQ5HPUZCTXABIH90,,img/set1/S1.jpg,83,1,structured_normal,83,"structured_normal,structured_incentive,random","1,2,2,3",TRUE,,
null,,html-keyboard-response,344,257521,0.0-344.0,3NKQQ8O39ZRLTXUL8Y6XT6XZ3RVUDM,A2TLN8489YGY81,30OITAWPBQP2Z1DQ5HPUZCTXABIH90,,"<img src=""img/set1/S1.jpg"" width=""540"" height = ""360"" style=""border:16px solid orange"">",null,,,,,,,,
null,,html-keyboard-response,345,257730,0.0-345.0,3NKQQ8O39ZRLTXUL8Y6XT6XZ3RVUDM,A2TLN8489YGY81,30OITAWPBQP2Z1DQ5HPUZCTXABIH90,,,null,,,,,,,,
674,,image-keyboard-response,346,258405,0.0-346.0,3NKQQ8O39ZRLTXUL8Y6XT6XZ3RVUDM,A2TLN8489YGY81,30OITAWPBQP2Z1DQ5HPUZCTXABIH90,,img/set1/S2.jpg,68,2,structured_normal,68,"structured_normal,structured_incentive,random","1,2,2,3",TRUE,,
null,,html-keyboard-response,347,258757,0.0-347.0,3NKQQ8O39ZRLTXUL8Y6XT6XZ3RVUDM,A2TLN8489YGY81,30OITAWPBQP2Z1DQ5HPUZCTXABIH90,,"<img src=""img/set1/S2.jpg"" width=""540"" height = ""360"" style=""border:16px solid orange"">",null,,,,,,,,
null,,html-keyboard-response,348,258958,0.0-348.0,3NKQQ8O39ZRLTXUL8Y6XT6XZ3RVUDM,A2TLN8489YGY81,30OITAWPBQP2Z1DQ5HPUZCTXABIH90,,,null,,,,,,,,
1268,,image-keyboard-response,349,260226,0.0-349.0,3NKQQ8O39ZRLTXUL8Y6XT6XZ3RVUDM,A2TLN8489YGY81,30OITAWPBQP2Z1DQ5HPUZCTXABIH90,,img/set1/S1.jpg,83,1,structured_normal,83,"structured_normal,structured_incentive,random","1,2,2,3",TRUE,,
null,,html-keyboard-response,350,260586,0.0-350.0,3NKQQ8O39ZRLTXUL8Y6XT6XZ3RVUDM,A2TLN8489YGY81,30OITAWPBQP2Z1DQ5HPUZCTXABIH90,,"<img src=""img/set1/S1.jpg"" width=""540"" height = ""360"" style=""border:16px solid orange"">",null,,,,,,,,
null,,html-keyboard-response,351,260790,0.0-351.0,3NKQQ8O39ZRLTXUL8Y6XT6XZ3RVUDM,A2TLN8489YGY81,30OITAWPBQP2Z1DQ5HPUZCTXABIH90,,,null,,,,,,,,
644,,image-keyboard-response,352,261433,0.0-352.0,3NKQQ8O39ZRLTXUL8Y6XT6XZ3RVUDM,A2TLN8489YGY81,30OITAWPBQP2Z1DQ5HPUZCTXABIH90,,img/set1/S3.jpg,72,3,structured_normal,72,"structured_normal,structured_incentive,random","1,2,2,3",TRUE,,
null,,html-keyboard-response,353,261790,0.0-353.0,3NKQQ8O39ZRLTXUL8Y6XT6XZ3RVUDM,A2TLN8489YGY81,30OITAWPBQP2Z1DQ5HPUZCTXABIH90,,"<img src=""img/set1/S3.jpg"" width=""540"" height = ""360"" style=""border:16px solid orange"">",null,,,,,,,,
null,,html-keyboard-response,354,261997,0.0-354.0,3NKQQ8O39ZRLTXUL8Y6XT6XZ3RVUDM,A2TLN8489YGY81,30OITAWPBQP2Z1DQ5HPUZCTXABIH90,,,null,,,,,,,,
481,,image-keyboard-response,355,262480,0.0-355.0,3NKQQ8O39ZRLTXUL8Y6XT6XZ3RVUDM,A2TLN8489YGY81,30OITAWPBQP2Z1DQ5HPUZCTXABIH90,,img/set1/S3.jpg,72,3,structured_normal,72,"structured_normal,structured_incentive,random","1,2,2,3",TRUE,,
null,,html-keyboard-response,356,262831,0.0-356.0,3NKQQ8O39ZRLTXUL8Y6XT6XZ3RVUDM,A2TLN8489YGY81,30OITAWPBQP2Z1DQ5HPUZCTXABIH90,,"<img src=""img/set1/S3.jpg"" width=""540"" height = ""360"" style=""border:16px solid orange"">",null,,,,,,,,
null,,html-keyboard-response,357,263032,0.0-357.0,3NKQQ8O39ZRLTXUL8Y6XT6XZ3RVUDM,A2TLN8489YGY81,30OITAWPBQP2Z1DQ5HPUZCTXABIH90,,,null,,,,,,,,
700,,image-keyboard-response,358,263734,0.0-358.0,3NKQQ8O39ZRLTXUL8Y6XT6XZ3RVUDM,A2TLN8489YGY81,30OITAWPBQP2Z1DQ5HPUZCTXABIH90,,img/set1/S4.jpg,74,4,structured_normal,74,"structured_normal,structured_incentive,random","1,2,2,3",TRUE,,
null,,html-keyboard-response,359,264087,0.0-359.0,3NKQQ8O39ZRLTXUL8Y6XT6XZ3RVUDM,A2TLN8489YGY81,30OITAWPBQP2Z1DQ5HPUZCTXABIH90,,"<img src=""img/set1/S4.jpg"" width=""540"" height = ""360"" style=""border:16px solid orange"">",null,,,,,,,,
null,,html-keyboard-response,360,264290,0.0-360.0,3NKQQ8O39ZRLTXUL8Y6XT6XZ3RVUDM,A2TLN8489YGY81,30OITAWPBQP2Z1DQ5HPUZCTXABIH90,,,null,,,,,,,,
893,,image-keyboard-response,361,265183,0.0-361.0,3NKQQ8O39ZRLTXUL8Y6XT6XZ3RVUDM,A2TLN8489YGY81,30OITAWPBQP2Z1DQ5HPUZCTXABIH90,,img/set1/S1.jpg,68,1,structured_normal,83,"structured_normal,structured_incentive,random","1,2,2,3",FALSE,,
null,,html-keyboard-response,362,265534,0.0-362.0,3NKQQ8O39ZRLTXUL8Y6XT6XZ3RVUDM,A2TLN8489YGY81,30OITAWPBQP2Z1DQ5HPUZCTXABIH90,,"<img src=""img/set1/S1.jpg"" width=""540"" height = ""360"">",null,,,,,,,,
null,,html-keyboard-response,363,265740,0.0-363.0,3NKQQ8O39ZRLTXUL8Y6XT6XZ3RVUDM,A2TLN8489YGY81,30OITAWPBQP2Z1DQ5HPUZCTXABIH90,,,null,,,,,,,,
637,,image-keyboard-response,364,266377,0.0-364.0,3NKQQ8O39ZRLTXUL8Y6XT6XZ3RVUDM,A2TLN8489YGY81,30OITAWPBQP2Z1DQ5HPUZCTXABIH90,,img/set1/S2.jpg,68,2,structured_normal,68,"structured_normal,structured_incentive,random","1,2,2,3",TRUE,,
null,,html-keyboard-response,365,266738,0.0-365.0,3NKQQ8O39ZRLTXUL8Y6XT6XZ3RVUDM,A2TLN8489YGY81,30OITAWPBQP2Z1DQ5HPUZCTXABIH90,,"<img src=""img/set1/S2.jpg"" width=""540"" height = ""360"" style=""border:16px solid orange"">",null,,,,,,,,
null,,html-keyboard-response,366,266953,0.0-366.0,3NKQQ8O39ZRLTXUL8Y6XT6XZ3RVUDM,A2TLN8489YGY81,30OITAWPBQP2Z1DQ5HPUZCTXABIH90,,,null,,,,,,,,
652,,image-keyboard-response,367,267606,0.0-367.0,3NKQQ8O39ZRLTXUL8Y6XT6XZ3RVUDM,A2TLN8489YGY81,30OITAWPBQP2Z1DQ5HPUZCTXABIH90,,img/set1/S4.jpg,74,4,structured_normal,74,"structured_normal,structured_incentive,random","1,2,2,3",TRUE,,
null,,html-keyboard-response,368,267971,0.0-368.0,3NKQQ8O39ZRLTXUL8Y6XT6XZ3RVUDM,A2TLN8489YGY81,30OITAWPBQP2Z1DQ5HPUZCTXABIH90,,"<img src=""img/set1/S4.jpg"" width=""540"" height = ""360"" style=""border:16px solid orange"">",null,,,,,,,,
null,,html-keyboard-response,369,268186,0.0-369.0,3NKQQ8O39ZRLTXUL8Y6XT6XZ3RVUDM,A2TLN8489YGY81,30OITAWPBQP2Z1DQ5HPUZCTXABIH90,,,null,,,,,,,,
748,,image-keyboard-response,370,268935,0.0-370.0,3NKQQ8O39ZRLTXUL8Y6XT6XZ3RVUDM,A2TLN8489YGY81,30OITAWPBQP2Z1DQ5HPUZCTXABIH90,,img/set1/S3.jpg,72,3,structured_normal,72,"structured_normal,structured_incentive,random","1,2,2,3",TRUE,,
null,,html-keyboard-response,371,269300,0.0-371.0,3NKQQ8O39ZRLTXUL8Y6XT6XZ3RVUDM,A2TLN8489YGY81,30OITAWPBQP2Z1DQ5HPUZCTXABIH90,,"<img src=""img/set1/S3.jpg"" width=""540"" height = ""360"" style=""border:16px solid orange"">",null,,,,,,,,
null,,html-keyboard-response,372,269504,0.0-372.0,3NKQQ8O39ZRLTXUL8Y6XT6XZ3RVUDM,A2TLN8489YGY81,30OITAWPBQP2Z1DQ5HPUZCTXABIH90,,,null,,,,,,,,
393,,image-keyboard-response,373,269897,0.0-373.0,3NKQQ8O39ZRLTXUL8Y6XT6XZ3RVUDM,A2TLN8489YGY81,30OITAWPBQP2Z1DQ5HPUZCTXABIH90,,img/set1/S3.jpg,72,3,structured_normal,72,"structured_normal,structured_incentive,random","1,2,2,3",TRUE,,
null,,html-keyboard-response,374,270255,0.0-374.0,3NKQQ8O39ZRLTXUL8Y6XT6XZ3RVUDM,A2TLN8489YGY81,30OITAWPBQP2Z1DQ5HPUZCTXABIH90,,"<img src=""img/set1/S3.jpg"" width=""540"" height = ""360"" style=""border:16px solid orange"">",null,,,,,,,,
null,,html-keyboard-response,375,270457,0.0-375.0,3NKQQ8O39ZRLTXUL8Y6XT6XZ3RVUDM,A2TLN8489YGY81,30OITAWPBQP2Z1DQ5HPUZCTXABIH90,,,null,,,,,,,,
382,,image-keyboard-response,376,270838,0.0-376.0,3NKQQ8O39ZRLTXUL8Y6XT6XZ3RVUDM,A2TLN8489YGY81,30OITAWPBQP2Z1DQ5HPUZCTXABIH90,,img/set1/S3.jpg,72,3,structured_normal,72,"structured_normal,structured_incentive,random","1,2,2,3",TRUE,,
null,,html-keyboard-response,377,271204,0.0-377.0,3NKQQ8O39ZRLTXUL8Y6XT6XZ3RVUDM,A2TLN8489YGY81,30OITAWPBQP2Z1DQ5HPUZCTXABIH90,,"<img src=""img/set1/S3.jpg"" width=""540"" height = ""360"" style=""border:16px solid orange"">",null,,,,,,,,
null,,html-keyboard-response,378,271404,0.0-378.0,3NKQQ8O39ZRLTXUL8Y6XT6XZ3RVUDM,A2TLN8489YGY81,30OITAWPBQP2Z1DQ5HPUZCTXABIH90,,,null,,,,,,,,
732,,image-keyboard-response,379,272137,0.0-379.0,3NKQQ8O39ZRLTXUL8Y6XT6XZ3RVUDM,A2TLN8489YGY81,30OITAWPBQP2Z1DQ5HPUZCTXABIH90,,img/set1/S4.jpg,74,4,structured_normal,74,"structured_normal,structured_incentive,random","1,2,2,3",TRUE,,
null,,html-keyboard-response,380,272492,0.0-380.0,3NKQQ8O39ZRLTXUL8Y6XT6XZ3RVUDM,A2TLN8489YGY81,30OITAWPBQP2Z1DQ5HPUZCTXABIH90,,"<img src=""img/set1/S4.jpg"" width=""540"" height = ""360"" style=""border:16px solid orange"">",null,,,,,,,,
null,,html-keyboard-response,381,272694,0.0-381.0,3NKQQ8O39ZRLTXUL8Y6XT6XZ3RVUDM,A2TLN8489YGY81,30OITAWPBQP2Z1DQ5HPUZCTXABIH90,,,null,,,,,,,,
646,,image-keyboard-response,382,273342,0.0-382.0,3NKQQ8O39ZRLTXUL8Y6XT6XZ3RVUDM,A2TLN8489YGY81,30OITAWPBQP2Z1DQ5HPUZCTXABIH90,,img/set1/S1.jpg,83,1,structured_normal,83,"structured_normal,structured_incentive,random","1,2,2,3",TRUE,,
null,,html-keyboard-response,383,273705,0.0-383.0,3NKQQ8O39ZRLTXUL8Y6XT6XZ3RVUDM,A2TLN8489YGY81,30OITAWPBQP2Z1DQ5HPUZCTXABIH90,,"<img src=""img/set1/S1.jpg"" width=""540"" height = ""360"" style=""border:16px solid orange"">",null,,,,,,,,
null,,html-keyboard-response,384,273910,0.0-384.0,3NKQQ8O39ZRLTXUL8Y6XT6XZ3RVUDM,A2TLN8489YGY81,30OITAWPBQP2Z1DQ5HPUZCTXABIH90,,,null,,,,,,,,
682,,image-keyboard-response,385,274592,0.0-385.0,3NKQQ8O39ZRLTXUL8Y6XT6XZ3RVUDM,A2TLN8489YGY81,30OITAWPBQP2Z1DQ5HPUZCTXABIH90,,img/set1/S3.jpg,72,3,structured_normal,72,"structured_normal,structured_incentive,random","1,2,2,3",TRUE,,
null,,html-keyboard-response,386,274951,0.0-386.0,3NKQQ8O39ZRLTXUL8Y6XT6XZ3RVUDM,A2TLN8489YGY81,30OITAWPBQP2Z1DQ5HPUZCTXABIH90,,"<img src=""img/set1/S3.jpg"" width=""540"" height = ""360"" style=""border:16px solid orange"">",null,,,,,,,,
null,,html-keyboard-response,387,275168,0.0-387.0,3NKQQ8O39ZRLTXUL8Y6XT6XZ3RVUDM,A2TLN8489YGY81,30OITAWPBQP2Z1DQ5HPUZCTXABIH90,,,null,,,,,,,,
634,,image-keyboard-response,388,275804,0.0-388.0,3NKQQ8O39ZRLTXUL8Y6XT6XZ3RVUDM,A2TLN8489YGY81,30OITAWPBQP2Z1DQ5HPUZCTXABIH90,,img/set1/S4.jpg,74,4,structured_normal,74,"structured_normal,structured_incentive,random","1,2,2,3",TRUE,,
null,,html-keyboard-response,389,276155,0.0-389.0,3NKQQ8O39ZRLTXUL8Y6XT6XZ3RVUDM,A2TLN8489YGY81,30OITAWPBQP2Z1DQ5HPUZCTXABIH90,,"<img src=""img/set1/S4.jpg"" width=""540"" height = ""360"" style=""border:16px solid orange"">",null,,,,,,,,
null,,html-keyboard-response,390,276356,0.0-390.0,3NKQQ8O39ZRLTXUL8Y6XT6XZ3RVUDM,A2TLN8489YGY81,30OITAWPBQP2Z1DQ5HPUZCTXABIH90,,,null,,,,,,,,
751,,image-keyboard-response,391,277108,0.0-391.0,3NKQQ8O39ZRLTXUL8Y6XT6XZ3RVUDM,A2TLN8489YGY81,30OITAWPBQP2Z1DQ5HPUZCTXABIH90,,img/set1/S3.jpg,72,3,structured_normal,72,"structured_normal,structured_incentive,random","1,2,2,3",TRUE,,
null,,html-keyboard-response,392,277462,0.0-392.0,3NKQQ8O39ZRLTXUL8Y6XT6XZ3RVUDM,A2TLN8489YGY81,30OITAWPBQP2Z1DQ5HPUZCTXABIH90,,"<img src=""img/set1/S3.jpg"" width=""540"" height = ""360"" style=""border:16px solid orange"">",null,,,,,,,,
null,,html-keyboard-response,393,277663,0.0-393.0,3NKQQ8O39ZRLTXUL8Y6XT6XZ3RVUDM,A2TLN8489YGY81,30OITAWPBQP2Z1DQ5HPUZCTXABIH90,,,null,,,,,,,,
648,,image-keyboard-response,394,278312,0.0-394.0,3NKQQ8O39ZRLTXUL8Y6XT6XZ3RVUDM,A2TLN8489YGY81,30OITAWPBQP2Z1DQ5HPUZCTXABIH90,,img/set1/S1.jpg,83,1,structured_normal,83,"structured_normal,structured_incentive,random","1,2,2,3",TRUE,,
null,,html-keyboard-response,395,278676,0.0-395.0,3NKQQ8O39ZRLTXUL8Y6XT6XZ3RVUDM,A2TLN8489YGY81,30OITAWPBQP2Z1DQ5HPUZCTXABIH90,,"<img src=""img/set1/S1.jpg"" width=""540"" height = ""360"" style=""border:16px solid orange"">",null,,,,,,,,
null,,html-keyboard-response,396,278877,0.0-396.0,3NKQQ8O39ZRLTXUL8Y6XT6XZ3RVUDM,A2TLN8489YGY81,30OITAWPBQP2Z1DQ5HPUZCTXABIH90,,,null,,,,,,,,
771,,image-keyboard-response,397,279649,0.0-397.0,3NKQQ8O39ZRLTXUL8Y6XT6XZ3RVUDM,A2TLN8489YGY81,30OITAWPBQP2Z1DQ5HPUZCTXABIH90,,img/set1/S3.jpg,72,3,structured_normal,72,"structured_normal,structured_incentive,random","1,2,2,3",TRUE,,
null,,html-keyboard-response,398,280003,0.0-398.0,3NKQQ8O39ZRLTXUL8Y6XT6XZ3RVUDM,A2TLN8489YGY81,30OITAWPBQP2Z1DQ5HPUZCTXABIH90,,"<img src=""img/set1/S3.jpg"" width=""540"" height = ""360"" style=""border:16px solid orange"">",null,,,,,,,,
null,,html-keyboard-response,399,280207,0.0-399.0,3NKQQ8O39ZRLTXUL8Y6XT6XZ3RVUDM,A2TLN8489YGY81,30OITAWPBQP2Z1DQ5HPUZCTXABIH90,,,null,,,,,,,,
423,,image-keyboard-response,400,280632,0.0-400.0,3NKQQ8O39ZRLTXUL8Y6XT6XZ3RVUDM,A2TLN8489YGY81,30OITAWPBQP2Z1DQ5HPUZCTXABIH90,,img/set1/S3.jpg,72,3,structured_normal,72,"structured_normal,structured_incentive,random","1,2,2,3",TRUE,,
null,,html-keyboard-response,401,280985,0.0-401.0,3NKQQ8O39ZRLTXUL8Y6XT6XZ3RVUDM,A2TLN8489YGY81,30OITAWPBQP2Z1DQ5HPUZCTXABIH90,,"<img src=""img/set1/S3.jpg"" width=""540"" height = ""360"" style=""border:16px solid orange"">",null,,,,,,,,
null,,html-keyboard-response,402,281188,0.0-402.0,3NKQQ8O39ZRLTXUL8Y6XT6XZ3RVUDM,A2TLN8489YGY81,30OITAWPBQP2Z1DQ5HPUZCTXABIH90,,,null,,,,,,,,
829,,image-keyboard-response,403,282018,0.0-403.0,3NKQQ8O39ZRLTXUL8Y6XT6XZ3RVUDM,A2TLN8489YGY81,30OITAWPBQP2Z1DQ5HPUZCTXABIH90,,img/set1/S1.jpg,83,1,structured_normal,83,"structured_normal,structured_incentive,random","1,2,2,3",TRUE,,
null,,html-keyboard-response,404,282378,0.0-404.0,3NKQQ8O39ZRLTXUL8Y6XT6XZ3RVUDM,A2TLN8489YGY81,30OITAWPBQP2Z1DQ5HPUZCTXABIH90,,"<img src=""img/set1/S1.jpg"" width=""540"" height = ""360"" style=""border:16px solid orange"">",null,,,,,,,,
null,,html-keyboard-response,405,282580,0.0-405.0,3NKQQ8O39ZRLTXUL8Y6XT6XZ3RVUDM,A2TLN8489YGY81,30OITAWPBQP2Z1DQ5HPUZCTXABIH90,,,null,,,,,,,,
684,,image-keyboard-response,406,283265,0.0-406.0,3NKQQ8O39ZRLTXUL8Y6XT6XZ3RVUDM,A2TLN8489YGY81,30OITAWPBQP2Z1DQ5HPUZCTXABIH90,,img/set1/S2.jpg,68,2,structured_normal,68,"structured_normal,structured_incentive,random","1,2,2,3",TRUE,,
null,,html-keyboard-response,407,283621,0.0-407.0,3NKQQ8O39ZRLTXUL8Y6XT6XZ3RVUDM,A2TLN8489YGY81,30OITAWPBQP2Z1DQ5HPUZCTXABIH90,,"<img src=""img/set1/S2.jpg"" width=""540"" height = ""360"" style=""border:16px solid orange"">",null,,,,,,,,
null,,html-keyboard-response,408,283825,0.0-408.0,3NKQQ8O39ZRLTXUL8Y6XT6XZ3RVUDM,A2TLN8489YGY81,30OITAWPBQP2Z1DQ5HPUZCTXABIH90,,,null,,,,,,,,
855,,image-keyboard-response,409,284681,0.0-409.0,3NKQQ8O39ZRLTXUL8Y6XT6XZ3RVUDM,A2TLN8489YGY81,30OITAWPBQP2Z1DQ5HPUZCTXABIH90,,img/set1/S3.jpg,72,3,structured_normal,72,"structured_normal,structured_incentive,random","1,2,2,3",TRUE,,
null,,html-keyboard-response,410,285036,0.0-410.0,3NKQQ8O39ZRLTXUL8Y6XT6XZ3RVUDM,A2TLN8489YGY81,30OITAWPBQP2Z1DQ5HPUZCTXABIH90,,"<img src=""img/set1/S3.jpg"" width=""540"" height = ""360"" style=""border:16px solid orange"">",null,,,,,,,,
null,,html-keyboard-response,411,285239,0.0-411.0,3NKQQ8O39ZRLTXUL8Y6XT6XZ3RVUDM,A2TLN8489YGY81,30OITAWPBQP2Z1DQ5HPUZCTXABIH90,,,null,,,,,,,,
386,,image-keyboard-response,412,285626,0.0-412.0,3NKQQ8O39ZRLTXUL8Y6XT6XZ3RVUDM,A2TLN8489YGY81,30OITAWPBQP2Z1DQ5HPUZCTXABIH90,,img/set1/S3.jpg,72,3,structured_normal,72,"structured_normal,structured_incentive,random","1,2,2,3",TRUE,,
null,,html-keyboard-response,413,285979,0.0-413.0,3NKQQ8O39ZRLTXUL8Y6XT6XZ3RVUDM,A2TLN8489YGY81,30OITAWPBQP2Z1DQ5HPUZCTXABIH90,,"<img src=""img/set1/S3.jpg"" width=""540"" height = ""360"" style=""border:16px solid orange"">",null,,,,,,,,
null,,html-keyboard-response,414,286185,0.0-414.0,3NKQQ8O39ZRLTXUL8Y6XT6XZ3RVUDM,A2TLN8489YGY81,30OITAWPBQP2Z1DQ5HPUZCTXABIH90,,,null,,,,,,,,
561,,image-keyboard-response,415,286747,0.0-415.0,3NKQQ8O39ZRLTXUL8Y6XT6XZ3RVUDM,A2TLN8489YGY81,30OITAWPBQP2Z1DQ5HPUZCTXABIH90,,img/set1/S4.jpg,74,4,structured_normal,74,"structured_normal,structured_incentive,random","1,2,2,3",TRUE,,
null,,html-keyboard-response,416,287103,0.0-416.0,3NKQQ8O39ZRLTXUL8Y6XT6XZ3RVUDM,A2TLN8489YGY81,30OITAWPBQP2Z1DQ5HPUZCTXABIH90,,"<img src=""img/set1/S4.jpg"" width=""540"" height = ""360"" style=""border:16px solid orange"">",null,,,,,,,,
null,,html-keyboard-response,417,287307,0.0-417.0,3NKQQ8O39ZRLTXUL8Y6XT6XZ3RVUDM,A2TLN8489YGY81,30OITAWPBQP2Z1DQ5HPUZCTXABIH90,,,null,,,,,,,,
758,,image-keyboard-response,418,288067,0.0-418.0,3NKQQ8O39ZRLTXUL8Y6XT6XZ3RVUDM,A2TLN8489YGY81,30OITAWPBQP2Z1DQ5HPUZCTXABIH90,,img/set1/S1.jpg,83,1,structured_normal,83,"structured_normal,structured_incentive,random","1,2,2,3",TRUE,,
null,,html-keyboard-response,419,288427,0.0-419.0,3NKQQ8O39ZRLTXUL8Y6XT6XZ3RVUDM,A2TLN8489YGY81,30OITAWPBQP2Z1DQ5HPUZCTXABIH90,,"<img src=""img/set1/S1.jpg"" width=""540"" height = ""360"" style=""border:16px solid orange"">",null,,,,,,,,
null,,html-keyboard-response,420,288631,0.0-420.0,3NKQQ8O39ZRLTXUL8Y6XT6XZ3RVUDM,A2TLN8489YGY81,30OITAWPBQP2Z1DQ5HPUZCTXABIH90,,,null,,,,,,,,
706,,image-keyboard-response,421,289338,0.0-421.0,3NKQQ8O39ZRLTXUL8Y6XT6XZ3RVUDM,A2TLN8489YGY81,30OITAWPBQP2Z1DQ5HPUZCTXABIH90,,img/set1/S2.jpg,68,2,structured_normal,68,"structured_normal,structured_incentive,random","1,2,2,3",TRUE,,
null,,html-keyboard-response,422,289693,0.0-422.0,3NKQQ8O39ZRLTXUL8Y6XT6XZ3RVUDM,A2TLN8489YGY81,30OITAWPBQP2Z1DQ5HPUZCTXABIH90,,"<img src=""img/set1/S2.jpg"" width=""540"" height = ""360"" style=""border:16px solid orange"">",null,,,,,,,,
null,,html-keyboard-response,423,289898,0.0-423.0,3NKQQ8O39ZRLTXUL8Y6XT6XZ3RVUDM,A2TLN8489YGY81,30OITAWPBQP2Z1DQ5HPUZCTXABIH90,,,null,,,,,,,,
680,,image-keyboard-response,424,290579,0.0-424.0,3NKQQ8O39ZRLTXUL8Y6XT6XZ3RVUDM,A2TLN8489YGY81,30OITAWPBQP2Z1DQ5HPUZCTXABIH90,,img/set1/S4.jpg,74,4,structured_normal,74,"structured_normal,structured_incentive,random","1,2,2,3",TRUE,,
null,,html-keyboard-response,425,290942,0.0-425.0,3NKQQ8O39ZRLTXUL8Y6XT6XZ3RVUDM,A2TLN8489YGY81,30OITAWPBQP2Z1DQ5HPUZCTXABIH90,,"<img src=""img/set1/S4.jpg"" width=""540"" height = ""360"" style=""border:16px solid orange"">",null,,,,,,,,
null,,html-keyboard-response,426,291143,0.0-426.0,3NKQQ8O39ZRLTXUL8Y6XT6XZ3RVUDM,A2TLN8489YGY81,30OITAWPBQP2Z1DQ5HPUZCTXABIH90,,,null,,,,,,,,
434,,image-keyboard-response,427,291579,0.0-427.0,3NKQQ8O39ZRLTXUL8Y6XT6XZ3RVUDM,A2TLN8489YGY81,30OITAWPBQP2Z1DQ5HPUZCTXABIH90,,img/set1/S4.jpg,74,4,structured_normal,74,"structured_normal,structured_incentive,random","1,2,2,3",TRUE,,
null,,html-keyboard-response,428,291934,0.0-428.0,3NKQQ8O39ZRLTXUL8Y6XT6XZ3RVUDM,A2TLN8489YGY81,30OITAWPBQP2Z1DQ5HPUZCTXABIH90,,"<img src=""img/set1/S4.jpg"" width=""540"" height = ""360"" style=""border:16px solid orange"">",null,,,,,,,,
null,,html-keyboard-response,429,292140,0.0-429.0,3NKQQ8O39ZRLTXUL8Y6XT6XZ3RVUDM,A2TLN8489YGY81,30OITAWPBQP2Z1DQ5HPUZCTXABIH90,,,null,,,,,,,,
404,,image-keyboard-response,430,292545,0.0-430.0,3NKQQ8O39ZRLTXUL8Y6XT6XZ3RVUDM,A2TLN8489YGY81,30OITAWPBQP2Z1DQ5HPUZCTXABIH90,,img/set1/S4.jpg,74,4,structured_normal,74,"structured_normal,structured_incentive,random","1,2,2,3",TRUE,,
null,,html-keyboard-response,431,292900,0.0-431.0,3NKQQ8O39ZRLTXUL8Y6XT6XZ3RVUDM,A2TLN8489YGY81,30OITAWPBQP2Z1DQ5HPUZCTXABIH90,,"<img src=""img/set1/S4.jpg"" width=""540"" height = ""360"" style=""border:16px solid orange"">",null,,,,,,,,
null,,html-keyboard-response,432,293107,0.0-432.0,3NKQQ8O39ZRLTXUL8Y6XT6XZ3RVUDM,A2TLN8489YGY81,30OITAWPBQP2Z1DQ5HPUZCTXABIH90,,,null,,,,,,,,
891,,image-keyboard-response,433,293998,0.0-433.0,3NKQQ8O39ZRLTXUL8Y6XT6XZ3RVUDM,A2TLN8489YGY81,30OITAWPBQP2Z1DQ5HPUZCTXABIH90,,img/set1/S2.jpg,68,2,structured_normal,68,"structured_normal,structured_incentive,random","1,2,2,3",TRUE,,
null,,html-keyboard-response,434,294357,0.0-434.0,3NKQQ8O39ZRLTXUL8Y6XT6XZ3RVUDM,A2TLN8489YGY81,30OITAWPBQP2Z1DQ5HPUZCTXABIH90,,"<img src=""img/set1/S2.jpg"" width=""540"" height = ""360"" style=""border:16px solid orange"">",null,,,,,,,,
null,,html-keyboard-response,435,294562,0.0-435.0,3NKQQ8O39ZRLTXUL8Y6XT6XZ3RVUDM,A2TLN8489YGY81,30OITAWPBQP2Z1DQ5HPUZCTXABIH90,,,null,,,,,,,,
781,,image-keyboard-response,436,295345,0.0-436.0,3NKQQ8O39ZRLTXUL8Y6XT6XZ3RVUDM,A2TLN8489YGY81,30OITAWPBQP2Z1DQ5HPUZCTXABIH90,,img/set1/S4.jpg,74,4,structured_normal,74,"structured_normal,structured_incentive,random","1,2,2,3",TRUE,,
null,,html-keyboard-response,437,295698,0.0-437.0,3NKQQ8O39ZRLTXUL8Y6XT6XZ3RVUDM,A2TLN8489YGY81,30OITAWPBQP2Z1DQ5HPUZCTXABIH90,,"<img src=""img/set1/S4.jpg"" width=""540"" height = ""360"" style=""border:16px solid orange"">",null,,,,,,,,
null,,html-keyboard-response,438,295904,0.0-438.0,3NKQQ8O39ZRLTXUL8Y6XT6XZ3RVUDM,A2TLN8489YGY81,30OITAWPBQP2Z1DQ5HPUZCTXABIH90,,,null,,,,,,,,
575,,image-keyboard-response,439,296481,0.0-439.0,3NKQQ8O39ZRLTXUL8Y6XT6XZ3RVUDM,A2TLN8489YGY81,30OITAWPBQP2Z1DQ5HPUZCTXABIH90,,img/set1/S4.jpg,74,4,structured_normal,74,"structured_normal,structured_incentive,random","1,2,2,3",TRUE,,
null,,html-keyboard-response,440,296846,0.0-440.0,3NKQQ8O39ZRLTXUL8Y6XT6XZ3RVUDM,A2TLN8489YGY81,30OITAWPBQP2Z1DQ5HPUZCTXABIH90,,"<img src=""img/set1/S4.jpg"" width=""540"" height = ""360"" style=""border:16px solid orange"">",null,,,,,,,,
null,,html-keyboard-response,441,297051,0.0-441.0,3NKQQ8O39ZRLTXUL8Y6XT6XZ3RVUDM,A2TLN8489YGY81,30OITAWPBQP2Z1DQ5HPUZCTXABIH90,,,null,,,,,,,,
742,,image-keyboard-response,442,297793,0.0-442.0,3NKQQ8O39ZRLTXUL8Y6XT6XZ3RVUDM,A2TLN8489YGY81,30OITAWPBQP2Z1DQ5HPUZCTXABIH90,,img/set1/S1.jpg,83,1,structured_normal,83,"structured_normal,structured_incentive,random","1,2,2,3",TRUE,,
null,,html-keyboard-response,443,298155,0.0-443.0,3NKQQ8O39ZRLTXUL8Y6XT6XZ3RVUDM,A2TLN8489YGY81,30OITAWPBQP2Z1DQ5HPUZCTXABIH90,,"<img src=""img/set1/S1.jpg"" width=""540"" height = ""360"" style=""border:16px solid orange"">",null,,,,,,,,
null,,html-keyboard-response,444,298360,0.0-444.0,3NKQQ8O39ZRLTXUL8Y6XT6XZ3RVUDM,A2TLN8489YGY81,30OITAWPBQP2Z1DQ5HPUZCTXABIH90,,,null,,,,,,,,
665,,image-keyboard-response,445,299026,0.0-445.0,3NKQQ8O39ZRLTXUL8Y6XT6XZ3RVUDM,A2TLN8489YGY81,30OITAWPBQP2Z1DQ5HPUZCTXABIH90,,img/set1/S2.jpg,68,2,structured_normal,68,"structured_normal,structured_incentive,random","1,2,2,3",TRUE,,
null,,html-keyboard-response,446,299387,0.0-446.0,3NKQQ8O39ZRLTXUL8Y6XT6XZ3RVUDM,A2TLN8489YGY81,30OITAWPBQP2Z1DQ5HPUZCTXABIH90,,"<img src=""img/set1/S2.jpg"" width=""540"" height = ""360"" style=""border:16px solid orange"">",null,,,,,,,,
null,,html-keyboard-response,447,299590,0.0-447.0,3NKQQ8O39ZRLTXUL8Y6XT6XZ3RVUDM,A2TLN8489YGY81,30OITAWPBQP2Z1DQ5HPUZCTXABIH90,,,null,,,,,,,,
1047,,image-keyboard-response,448,300638,0.0-448.0,3NKQQ8O39ZRLTXUL8Y6XT6XZ3RVUDM,A2TLN8489YGY81,30OITAWPBQP2Z1DQ5HPUZCTXABIH90,,img/set1/S1.jpg,83,1,structured_normal,83,"structured_normal,structured_incentive,random","1,2,2,3",TRUE,,
null,,html-keyboard-response,449,300993,0.0-449.0,3NKQQ8O39ZRLTXUL8Y6XT6XZ3RVUDM,A2TLN8489YGY81,30OITAWPBQP2Z1DQ5HPUZCTXABIH90,,"<img src=""img/set1/S1.jpg"" width=""540"" height = ""360"" style=""border:16px solid orange"">",null,,,,,,,,
null,,html-keyboard-response,450,301193,0.0-450.0,3NKQQ8O39ZRLTXUL8Y6XT6XZ3RVUDM,A2TLN8489YGY81,30OITAWPBQP2Z1DQ5HPUZCTXABIH90,,,null,,,,,,,,
773,,image-keyboard-response,451,301967,0.0-451.0,3NKQQ8O39ZRLTXUL8Y6XT6XZ3RVUDM,A2TLN8489YGY81,30OITAWPBQP2Z1DQ5HPUZCTXABIH90,,img/set1/S2.jpg,68,2,structured_normal,68,"structured_normal,structured_incentive,random","1,2,2,3",TRUE,,
null,,html-keyboard-response,452,302319,0.0-452.0,3NKQQ8O39ZRLTXUL8Y6XT6XZ3RVUDM,A2TLN8489YGY81,30OITAWPBQP2Z1DQ5HPUZCTXABIH90,,"<img src=""img/set1/S2.jpg"" width=""540"" height = ""360"" style=""border:16px solid orange"">",null,,,,,,,,
null,,html-keyboard-response,453,302525,0.0-453.0,3NKQQ8O39ZRLTXUL8Y6XT6XZ3RVUDM,A2TLN8489YGY81,30OITAWPBQP2Z1DQ5HPUZCTXABIH90,,,null,,,,,,,,
674,,image-keyboard-response,454,303200,0.0-454.0,3NKQQ8O39ZRLTXUL8Y6XT6XZ3RVUDM,A2TLN8489YGY81,30OITAWPBQP2Z1DQ5HPUZCTXABIH90,,img/set1/S3.jpg,72,3,structured_normal,72,"structured_normal,structured_incentive,random","1,2,2,3",TRUE,,
null,,html-keyboard-response,455,303554,0.0-455.0,3NKQQ8O39ZRLTXUL8Y6XT6XZ3RVUDM,A2TLN8489YGY81,30OITAWPBQP2Z1DQ5HPUZCTXABIH90,,"<img src=""img/set1/S3.jpg"" width=""540"" height = ""360"" style=""border:16px solid orange"">",null,,,,,,,,
null,,html-keyboard-response,456,303756,0.0-456.0,3NKQQ8O39ZRLTXUL8Y6XT6XZ3RVUDM,A2TLN8489YGY81,30OITAWPBQP2Z1DQ5HPUZCTXABIH90,,,null,,,,,,,,
656,,image-keyboard-response,457,304413,0.0-457.0,3NKQQ8O39ZRLTXUL8Y6XT6XZ3RVUDM,A2TLN8489YGY81,30OITAWPBQP2Z1DQ5HPUZCTXABIH90,,img/set1/S1.jpg,83,1,structured_normal,83,"structured_normal,structured_incentive,random","1,2,2,3",TRUE,,
null,,html-keyboard-response,458,304767,0.0-458.0,3NKQQ8O39ZRLTXUL8Y6XT6XZ3RVUDM,A2TLN8489YGY81,30OITAWPBQP2Z1DQ5HPUZCTXABIH90,,"<img src=""img/set1/S1.jpg"" width=""540"" height = ""360"" style=""border:16px solid orange"">",null,,,,,,,,
null,,html-keyboard-response,459,304967,0.0-459.0,3NKQQ8O39ZRLTXUL8Y6XT6XZ3RVUDM,A2TLN8489YGY81,30OITAWPBQP2Z1DQ5HPUZCTXABIH90,,,null,,,,,,,,
790,,image-keyboard-response,460,305758,0.0-460.0,3NKQQ8O39ZRLTXUL8Y6XT6XZ3RVUDM,A2TLN8489YGY81,30OITAWPBQP2Z1DQ5HPUZCTXABIH90,,img/set1/S2.jpg,68,2,structured_normal,68,"structured_normal,structured_incentive,random","1,2,2,3",TRUE,,
null,,html-keyboard-response,461,306124,0.0-461.0,3NKQQ8O39ZRLTXUL8Y6XT6XZ3RVUDM,A2TLN8489YGY81,30OITAWPBQP2Z1DQ5HPUZCTXABIH90,,"<img src=""img/set1/S2.jpg"" width=""540"" height = ""360"" style=""border:16px solid orange"">",null,,,,,,,,
null,,html-keyboard-response,462,306330,0.0-462.0,3NKQQ8O39ZRLTXUL8Y6XT6XZ3RVUDM,A2TLN8489YGY81,30OITAWPBQP2Z1DQ5HPUZCTXABIH90,,,null,,,,,,,,
664,,image-keyboard-response,463,306995,0.0-463.0,3NKQQ8O39ZRLTXUL8Y6XT6XZ3RVUDM,A2TLN8489YGY81,30OITAWPBQP2Z1DQ5HPUZCTXABIH90,,img/set1/S3.jpg,72,3,structured_normal,72,"structured_normal,structured_incentive,random","1,2,2,3",TRUE,,
null,,html-keyboard-response,464,307354,0.0-464.0,3NKQQ8O39ZRLTXUL8Y6XT6XZ3RVUDM,A2TLN8489YGY81,30OITAWPBQP2Z1DQ5HPUZCTXABIH90,,"<img src=""img/set1/S3.jpg"" width=""540"" height = ""360"" style=""border:16px solid orange"">",null,,,,,,,,
null,,html-keyboard-response,465,307555,0.0-465.0,3NKQQ8O39ZRLTXUL8Y6XT6XZ3RVUDM,A2TLN8489YGY81,30OITAWPBQP2Z1DQ5HPUZCTXABIH90,,,null,,,,,,,,
509,,image-keyboard-response,466,308066,0.0-466.0,3NKQQ8O39ZRLTXUL8Y6XT6XZ3RVUDM,A2TLN8489YGY81,30OITAWPBQP2Z1DQ5HPUZCTXABIH90,,img/set1/S4.jpg,74,4,structured_normal,74,"structured_normal,structured_incentive,random","1,2,2,3",TRUE,,
null,,html-keyboard-response,467,308419,0.0-467.0,3NKQQ8O39ZRLTXUL8Y6XT6XZ3RVUDM,A2TLN8489YGY81,30OITAWPBQP2Z1DQ5HPUZCTXABIH90,,"<img src=""img/set1/S4.jpg"" width=""540"" height = ""360"" style=""border:16px solid orange"">",null,,,,,,,,
null,,html-keyboard-response,468,308624,0.0-468.0,3NKQQ8O39ZRLTXUL8Y6XT6XZ3RVUDM,A2TLN8489YGY81,30OITAWPBQP2Z1DQ5HPUZCTXABIH90,,,null,,,,,,,,
1313,,image-keyboard-response,469,309937,0.0-469.0,3NKQQ8O39ZRLTXUL8Y6XT6XZ3RVUDM,A2TLN8489YGY81,30OITAWPBQP2Z1DQ5HPUZCTXABIH90,,img/set1/S3.jpg,72,3,structured_normal,72,"structured_normal,structured_incentive,random","1,2,2,3",TRUE,,
null,,html-keyboard-response,470,310288,0.0-470.0,3NKQQ8O39ZRLTXUL8Y6XT6XZ3RVUDM,A2TLN8489YGY81,30OITAWPBQP2Z1DQ5HPUZCTXABIH90,,"<img src=""img/set1/S3.jpg"" width=""540"" height = ""360"" style=""border:16px solid orange"">",null,,,,,,,,
null,,html-keyboard-response,471,310492,0.0-471.0,3NKQQ8O39ZRLTXUL8Y6XT6XZ3RVUDM,A2TLN8489YGY81,30OITAWPBQP2Z1DQ5HPUZCTXABIH90,,,null,,,,,,,,
1346,,image-keyboard-response,472,311838,0.0-472.0,3NKQQ8O39ZRLTXUL8Y6XT6XZ3RVUDM,A2TLN8489YGY81,30OITAWPBQP2Z1DQ5HPUZCTXABIH90,,img/set1/S1.jpg,83,1,structured_normal,83,"structured_normal,structured_incentive,random","1,2,2,3",TRUE,,
null,,html-keyboard-response,473,312191,0.0-473.0,3NKQQ8O39ZRLTXUL8Y6XT6XZ3RVUDM,A2TLN8489YGY81,30OITAWPBQP2Z1DQ5HPUZCTXABIH90,,"<img src=""img/set1/S1.jpg"" width=""540"" height = ""360"" style=""border:16px solid orange"">",null,,,,,,,,
null,,html-keyboard-response,474,312398,0.0-474.0,3NKQQ8O39ZRLTXUL8Y6XT6XZ3RVUDM,A2TLN8489YGY81,30OITAWPBQP2Z1DQ5HPUZCTXABIH90,,,null,,,,,,,,
524,,image-keyboard-response,475,312924,0.0-475.0,3NKQQ8O39ZRLTXUL8Y6XT6XZ3RVUDM,A2TLN8489YGY81,30OITAWPBQP2Z1DQ5HPUZCTXABIH90,,img/set1/S2.jpg,68,2,structured_normal,68,"structured_normal,structured_incentive,random","1,2,2,3",TRUE,,
null,,html-keyboard-response,476,313286,0.0-476.0,3NKQQ8O39ZRLTXUL8Y6XT6XZ3RVUDM,A2TLN8489YGY81,30OITAWPBQP2Z1DQ5HPUZCTXABIH90,,"<img src=""img/set1/S2.jpg"" width=""540"" height = ""360"" style=""border:16px solid orange"">",null,,,,,,,,
null,,html-keyboard-response,477,313488,0.0-477.0,3NKQQ8O39ZRLTXUL8Y6XT6XZ3RVUDM,A2TLN8489YGY81,30OITAWPBQP2Z1DQ5HPUZCTXABIH90,,,null,,,,,,,,
705,,image-keyboard-response,478,314195,0.0-478.0,3NKQQ8O39ZRLTXUL8Y6XT6XZ3RVUDM,A2TLN8489YGY81,30OITAWPBQP2Z1DQ5HPUZCTXABIH90,,img/set1/S4.jpg,74,4,structured_normal,74,"structured_normal,structured_incentive,random","1,2,2,3",TRUE,,
null,,html-keyboard-response,479,314546,0.0-479.0,3NKQQ8O39ZRLTXUL8Y6XT6XZ3RVUDM,A2TLN8489YGY81,30OITAWPBQP2Z1DQ5HPUZCTXABIH90,,"<img src=""img/set1/S4.jpg"" width=""540"" height = ""360"" style=""border:16px solid orange"">",null,,,,,,,,
null,,html-keyboard-response,480,314762,0.0-480.0,3NKQQ8O39ZRLTXUL8Y6XT6XZ3RVUDM,A2TLN8489YGY81,30OITAWPBQP2Z1DQ5HPUZCTXABIH90,,,null,,,,,,,,
856,,image-keyboard-response,481,315619,0.0-481.0,3NKQQ8O39ZRLTXUL8Y6XT6XZ3RVUDM,A2TLN8489YGY81,30OITAWPBQP2Z1DQ5HPUZCTXABIH90,,img/set1/S1.jpg,83,1,structured_normal,83,"structured_normal,structured_incentive,random","1,2,2,3",TRUE,,
null,,html-keyboard-response,482,315974,0.0-482.0,3NKQQ8O39ZRLTXUL8Y6XT6XZ3RVUDM,A2TLN8489YGY81,30OITAWPBQP2Z1DQ5HPUZCTXABIH90,,"<img src=""img/set1/S1.jpg"" width=""540"" height = ""360"" style=""border:16px solid orange"">",null,,,,,,,,
null,,html-keyboard-response,483,316175,0.0-483.0,3NKQQ8O39ZRLTXUL8Y6XT6XZ3RVUDM,A2TLN8489YGY81,30OITAWPBQP2Z1DQ5HPUZCTXABIH90,,,null,,,,,,,,
692,,image-keyboard-response,484,316869,0.0-484.0,3NKQQ8O39ZRLTXUL8Y6XT6XZ3RVUDM,A2TLN8489YGY81,30OITAWPBQP2Z1DQ5HPUZCTXABIH90,,img/set1/S2.jpg,68,2,structured_normal,68,"structured_normal,structured_incentive,random","1,2,2,3",TRUE,,
null,,html-keyboard-response,485,317222,0.0-485.0,3NKQQ8O39ZRLTXUL8Y6XT6XZ3RVUDM,A2TLN8489YGY81,30OITAWPBQP2Z1DQ5HPUZCTXABIH90,,"<img src=""img/set1/S2.jpg"" width=""540"" height = ""360"" style=""border:16px solid orange"">",null,,,,,,,,
