"rt","url","trial_type","trial_index","time_elapsed","internal_node_id","view_history","stimulus","key_press","state","test_part","correct_response","order_block","order_chunk","correct","responses","bonus"
"343203.09999999404","consent.html","external-html","0","343311","0.0-0.0","","","","","","","","","","",""
"81251.80000001192","","instructions","1","424564","0.0-1.0","[{""page_index"":0,""viewing_time"":5036.200000017881},{""page_index"":1,""viewing_time"":7935},{""page_index"":2,""viewing_time"":15304.199999988079},{""page_index"":3,""viewing_time"":11303.90000000596},{""page_index"":4,""viewing_time"":7176},{""page_index"":5,""viewing_time"":16832.19999998808},{""page_index"":6,""viewing_time"":17663.90000000596}]","","","","","","","","","",""
"12263.40000000596","","instructions","2","436828","0.0-2.0","[{""page_index"":0,""viewing_time"":12263.09999999404}]","","","","","","","","","",""
"4815.5","","instructions","3","441644","0.0-3.0","[{""page_index"":0,""viewing_time"":4815.0999999940395}]","","","","","","","","","",""
"1026.5","","image-keyboard-response","4","442672","0.0-4.0","","img/set1/S1.jpg","83","1","random","83","random,structured_normal,structured_incentive,structured_load","2,1,2,3,3,4","true","",""
"null","","html-keyboard-response","5","443024","0.0-5.0","","<img src=""img/set1/S1.jpg"" width=""540"" height = ""360"" style=""border:16px solid orange"">","null","","","","","","","",""
"null","","html-keyboard-response","6","443226","0.0-6.0","","","null","","","","","","","",""
"1129","","image-keyboard-response","7","444356","0.0-7.0","","img/set1/S2.jpg","68","2","random","68","random,structured_normal,structured_incentive,structured_load","2,1,2,3,3,4","true","",""
"null","","html-keyboard-response","8","444709","0.0-8.0","","<img src=""img/set1/S2.jpg"" width=""540"" height = ""360"" style=""border:16px solid orange"">","null","","","","","","","",""
"null","","html-keyboard-response","9","444910","0.0-9.0","","","null","","","","","","","",""
"689.6999999880791","","image-keyboard-response","10","445600","0.0-10.0","","img/set1/S4.jpg","72","4","random","74","random,structured_normal,structured_incentive,structured_load","2,1,2,3,3,4","false","",""
"null","","html-keyboard-response","11","445952","0.0-11.0","","<img src=""img/set1/S4.jpg"" width=""540"" height = ""360"">","null","","","","","","","",""
"null","","html-keyboard-response","12","446154","0.0-12.0","","","null","","","","","","","",""
"886.1999999880791","","image-keyboard-response","13","447040","0.0-13.0","","img/set1/S3.jpg","72","3","random","72","random,structured_normal,structured_incentive,structured_load","2,1,2,3,3,4","true","",""
"null","","html-keyboard-response","14","447392","0.0-14.0","","<img src=""img/set1/S3.jpg"" width=""540"" height = ""360"" style=""border:16px solid orange"">","null","","","","","","","",""
"null","","html-keyboard-response","15","447593","0.0-15.0","","","null","","","","","","","",""
"662.3000000119209","","image-keyboard-response","16","448256","0.0-16.0","","img/set1/S2.jpg","68","2","random","68","random,structured_normal,structured_incentive,structured_load","2,1,2,3,3,4","true","",""
"null","","html-keyboard-response","17","448608","0.0-17.0","","<img src=""img/set1/S2.jpg"" width=""540"" height = ""360"" style=""border:16px solid orange"">","null","","","","","","","",""
"null","","html-keyboard-response","18","448809","0.0-18.0","","","null","","","","","","","",""
"947.5999999940395","","image-keyboard-response","19","449757","0.0-19.0","","img/set1/S4.jpg","68","4","random","74","random,structured_normal,structured_incentive,structured_load","2,1,2,3,3,4","false","",""
"null","","html-keyboard-response","20","450109","0.0-20.0","","<img src=""img/set1/S4.jpg"" width=""540"" height = ""360"">","null","","","","","","","",""
"null","","html-keyboard-response","21","450310","0.0-21.0","","","null","","","","","","","",""
"645.7000000178814","","image-keyboard-response","22","450957","0.0-22.0","","img/set1/S4.jpg","68","4","random","74","random,structured_normal,structured_incentive,structured_load","2,1,2,3,3,4","false","",""
"null","","html-keyboard-response","23","451308","0.0-23.0","","<img src=""img/set1/S4.jpg"" width=""540"" height = ""360"">","null","","","","","","","",""
"null","","html-keyboard-response","24","451510","0.0-24.0","","","null","","","","","","","",""
"726.8000000119209","","image-keyboard-response","25","452237","0.0-25.0","","img/set1/S1.jpg","74","1","random","83","random,structured_normal,structured_incentive,structured_load","2,1,2,3,3,4","false","",""
"null","","html-keyboard-response","26","452588","0.0-26.0","","<img src=""img/set1/S1.jpg"" width=""540"" height = ""360"">","null","","","","","","","",""
"null","","html-keyboard-response","27","452790","0.0-27.0","","","null","","","","","","","",""
"698.6999999880791","","image-keyboard-response","28","453489","0.0-28.0","","img/set1/S1.jpg","83","1","random","83","random,structured_normal,structured_incentive,structured_load","2,1,2,3,3,4","true","",""
"null","","html-keyboard-response","29","453841","0.0-29.0","","<img src=""img/set1/S1.jpg"" width=""540"" height = ""360"" style=""border:16px solid orange"">","null","","","","","","","",""
"null","","html-keyboard-response","30","454042","0.0-30.0","","","null","","","","","","","",""
"879.1999999880791","","image-keyboard-response","31","454922","0.0-31.0","","img/set1/S4.jpg","72","4","random","74","random,structured_normal,structured_incentive,structured_load","2,1,2,3,3,4","false","",""
"null","","html-keyboard-response","32","455274","0.0-32.0","","<img src=""img/set1/S4.jpg"" width=""540"" height = ""360"">","null","","","","","","","",""
"null","","html-keyboard-response","33","455474","0.0-33.0","","","null","","","","","","","",""
"610.9000000059605","","image-keyboard-response","34","456086","0.0-34.0","","img/set1/S4.jpg","74","4","random","74","random,structured_normal,structured_incentive,structured_load","2,1,2,3,3,4","true","",""
"null","","html-keyboard-response","35","456437","0.0-35.0","","<img src=""img/set1/S4.jpg"" width=""540"" height = ""360"" style=""border:16px solid orange"">","null","","","","","","","",""
"null","","html-keyboard-response","36","456639","0.0-36.0","","","null","","","","","","","",""
"643.2999999821186","","image-keyboard-response","37","457283","0.0-37.0","","img/set1/S4.jpg","74","4","random","74","random,structured_normal,structured_incentive,structured_load","2,1,2,3,3,4","true","",""
"null","","html-keyboard-response","38","457634","0.0-38.0","","<img src=""img/set1/S4.jpg"" width=""540"" height = ""360"" style=""border:16px solid orange"">","null","","","","","","","",""
"null","","html-keyboard-response","39","457835","0.0-39.0","","","null","","","","","","","",""
"735.1999999880791","","image-keyboard-response","40","458571","0.0-40.0","","img/set1/S3.jpg","68","3","random","72","random,structured_normal,structured_incentive,structured_load","2,1,2,3,3,4","false","",""
"null","","html-keyboard-response","41","458922","0.0-41.0","","<img src=""img/set1/S3.jpg"" width=""540"" height = ""360"">","null","","","","","","","",""
"null","","html-keyboard-response","42","459124","0.0-42.0","","","null","","","","","","","",""
"718.5999999940395","","image-keyboard-response","43","459843","0.0-43.0","","img/set1/S2.jpg","83","2","random","68","random,structured_normal,structured_incentive,structured_load","2,1,2,3,3,4","false","",""
"null","","html-keyboard-response","44","460196","0.0-44.0","","<img src=""img/set1/S2.jpg"" width=""540"" height = ""360"">","null","","","","","","","",""
"null","","html-keyboard-response","45","460397","0.0-45.0","","","null","","","","","","","",""
"1009.7999999821186","","image-keyboard-response","46","461407","0.0-46.0","","img/set1/S2.jpg","68","2","random","68","random,structured_normal,structured_incentive,structured_load","2,1,2,3,3,4","true","",""
"null","","html-keyboard-response","47","461759","0.0-47.0","","<img src=""img/set1/S2.jpg"" width=""540"" height = ""360"" style=""border:16px solid orange"">","null","","","","","","","",""
"null","","html-keyboard-response","48","461960","0.0-48.0","","","null","","","","","","","",""
"594.3999999761581","","image-keyboard-response","49","462555","0.0-49.0","","img/set1/S2.jpg","68","2","random","68","random,structured_normal,structured_incentive,structured_load","2,1,2,3,3,4","true","",""
"null","","html-keyboard-response","50","462906","0.0-50.0","","<img src=""img/set1/S2.jpg"" width=""540"" height = ""360"" style=""border:16px solid orange"">","null","","","","","","","",""
"null","","html-keyboard-response","51","463107","0.0-51.0","","","null","","","","","","","",""
"1112.4000000059605","","image-keyboard-response","52","464220","0.0-52.0","","img/set1/S1.jpg","72","1","random","83","random,structured_normal,structured_incentive,structured_load","2,1,2,3,3,4","false","",""
"null","","html-keyboard-response","53","464573","0.0-53.0","","<img src=""img/set1/S1.jpg"" width=""540"" height = ""360"">","null","","","","","","","",""
"null","","html-keyboard-response","54","464774","0.0-54.0","","","null","","","","","","","",""
"781.2000000178814","","image-keyboard-response","55","465556","0.0-55.0","","img/set1/S4.jpg","74","4","random","74","random,structured_normal,structured_incentive,structured_load","2,1,2,3,3,4","true","",""
"null","","html-keyboard-response","56","465910","0.0-56.0","","<img src=""img/set1/S4.jpg"" width=""540"" height = ""360"" style=""border:16px solid orange"">","null","","","","","","","",""
"null","","html-keyboard-response","57","466119","0.0-57.0","","","null","","","","","","","",""
"1186","","image-keyboard-response","58","467306","0.0-58.0","","img/set1/S3.jpg","74","3","random","72","random,structured_normal,structured_incentive,structured_load","2,1,2,3,3,4","false","",""
"null","","html-keyboard-response","59","467658","0.0-59.0","","<img src=""img/set1/S3.jpg"" width=""540"" height = ""360"">","null","","","","","","","",""
"null","","html-keyboard-response","60","467859","0.0-60.0","","","null","","","","","","","",""
"937.0999999940395","","image-keyboard-response","61","468797","0.0-61.0","","img/set1/S1.jpg","68","1","random","83","random,structured_normal,structured_incentive,structured_load","2,1,2,3,3,4","false","",""
"null","","html-keyboard-response","62","469148","0.0-62.0","","<img src=""img/set1/S1.jpg"" width=""540"" height = ""360"">","null","","","","","","","",""
"null","","html-keyboard-response","63","469349","0.0-63.0","","","null","","","","","","","",""
"543.4000000059605","","image-keyboard-response","64","469893","0.0-64.0","","img/set1/S1.jpg","72","1","random","83","random,structured_normal,structured_incentive,structured_load","2,1,2,3,3,4","false","",""
"null","","html-keyboard-response","65","470244","0.0-65.0","","<img src=""img/set1/S1.jpg"" width=""540"" height = ""360"">","null","","","","","","","",""
"null","","html-keyboard-response","66","470445","0.0-66.0","","","null","","","","","","","",""
"683.0999999940395","","image-keyboard-response","67","471129","0.0-67.0","","img/set1/S4.jpg","74","4","random","74","random,structured_normal,structured_incentive,structured_load","2,1,2,3,3,4","true","",""
"null","","html-keyboard-response","68","471481","0.0-68.0","","<img src=""img/set1/S4.jpg"" width=""540"" height = ""360"" style=""border:16px solid orange"">","null","","","","","","","",""
"null","","html-keyboard-response","69","471682","0.0-69.0","","","null","","","","","","","",""
"675.2999999821186","","image-keyboard-response","70","472359","0.0-70.0","","img/set1/S1.jpg","83","1","random","83","random,structured_normal,structured_incentive,structured_load","2,1,2,3,3,4","true","",""
"null","","html-keyboard-response","71","472711","0.0-71.0","","<img src=""img/set1/S1.jpg"" width=""540"" height = ""360"" style=""border:16px solid orange"">","null","","","","","","","",""
"null","","html-keyboard-response","72","472912","0.0-72.0","","","null","","","","","","","",""
"945.2999999821186","","image-keyboard-response","73","473858","0.0-73.0","","img/set1/S2.jpg","74","2","random","68","random,structured_normal,structured_incentive,structured_load","2,1,2,3,3,4","false","",""
"null","","html-keyboard-response","74","474211","0.0-74.0","","<img src=""img/set1/S2.jpg"" width=""540"" height = ""360"">","null","","","","","","","",""
"null","","html-keyboard-response","75","474413","0.0-75.0","","","null","","","","","","","",""
"688.9000000059605","","image-keyboard-response","76","475102","0.0-76.0","","img/set1/S4.jpg","72","4","random","74","random,structured_normal,structured_incentive,structured_load","2,1,2,3,3,4","false","",""
"null","","html-keyboard-response","77","475453","0.0-77.0","","<img src=""img/set1/S4.jpg"" width=""540"" height = ""360"">","null","","","","","","","",""
"null","","html-keyboard-response","78","475654","0.0-78.0","","","null","","","","","","","",""
"536.0999999940395","","image-keyboard-response","79","476191","0.0-79.0","","img/set1/S2.jpg","74","2","random","68","random,structured_normal,structured_incentive,structured_load","2,1,2,3,3,4","false","",""
"null","","html-keyboard-response","80","476543","0.0-80.0","","<img src=""img/set1/S2.jpg"" width=""540"" height = ""360"">","null","","","","","","","",""
"null","","html-keyboard-response","81","476744","0.0-81.0","","","null","","","","","","","",""
"662.7000000178814","","image-keyboard-response","82","477407","0.0-82.0","","img/set1/S1.jpg","83","1","random","83","random,structured_normal,structured_incentive,structured_load","2,1,2,3,3,4","true","",""
"null","","html-keyboard-response","83","477759","0.0-83.0","","<img src=""img/set1/S1.jpg"" width=""540"" height = ""360"" style=""border:16px solid orange"">","null","","","","","","","",""
"null","","html-keyboard-response","84","477960","0.0-84.0","","","null","","","","","","","",""
"866","","image-keyboard-response","85","478827","0.0-85.0","","img/set1/S2.jpg","74","2","random","68","random,structured_normal,structured_incentive,structured_load","2,1,2,3,3,4","false","",""
"null","","html-keyboard-response","86","479178","0.0-86.0","","<img src=""img/set1/S2.jpg"" width=""540"" height = ""360"">","null","","","","","","","",""
"null","","html-keyboard-response","87","479380","0.0-87.0","","","null","","","","","","","",""
"807.7999999821186","","image-keyboard-response","88","480188","0.0-88.0","","img/set1/S2.jpg","72","2","random","68","random,structured_normal,structured_incentive,structured_load","2,1,2,3,3,4","false","",""
"null","","html-keyboard-response","89","480540","0.0-89.0","","<img src=""img/set1/S2.jpg"" width=""540"" height = ""360"">","null","","","","","","","",""
"null","","html-keyboard-response","90","480741","0.0-90.0","","","null","","","","","","","",""
"918.3000000119209","","image-keyboard-response","91","481660","0.0-91.0","","img/set1/S3.jpg","74","3","random","72","random,structured_normal,structured_incentive,structured_load","2,1,2,3,3,4","false","",""
"null","","html-keyboard-response","92","482012","0.0-92.0","","<img src=""img/set1/S3.jpg"" width=""540"" height = ""360"">","null","","","","","","","",""
"null","","html-keyboard-response","93","482212","0.0-93.0","","","null","","","","","","","",""
"839.9000000059605","","image-keyboard-response","94","483053","0.0-94.0","","img/set1/S1.jpg","83","1","random","83","random,structured_normal,structured_incentive,structured_load","2,1,2,3,3,4","true","",""
"null","","html-keyboard-response","95","483405","0.0-95.0","","<img src=""img/set1/S1.jpg"" width=""540"" height = ""360"" style=""border:16px solid orange"">","null","","","","","","","",""
"null","","html-keyboard-response","96","483606","0.0-96.0","","","null","","","","","","","",""
"794.6999999880791","","image-keyboard-response","97","484401","0.0-97.0","","img/set1/S4.jpg","72","4","random","74","random,structured_normal,structured_incentive,structured_load","2,1,2,3,3,4","false","",""
"null","","html-keyboard-response","98","484753","0.0-98.0","","<img src=""img/set1/S4.jpg"" width=""540"" height = ""360"">","null","","","","","","","",""
"null","","html-keyboard-response","99","484954","0.0-99.0","","","null","","","","","","","",""
"786.2999999821186","","image-keyboard-response","100","485741","0.0-100.0","","img/set1/S1.jpg","83","1","random","83","random,structured_normal,structured_incentive,structured_load","2,1,2,3,3,4","true","",""
"null","","html-keyboard-response","101","486093","0.0-101.0","","<img src=""img/set1/S1.jpg"" width=""540"" height = ""360"" style=""border:16px solid orange"">","null","","","","","","","",""
"null","","html-keyboard-response","102","486293","0.0-102.0","","","null","","","","","","","",""
"716","","image-keyboard-response","103","487010","0.0-103.0","","img/set1/S1.jpg","83","1","random","83","random,structured_normal,structured_incentive,structured_load","2,1,2,3,3,4","true","",""
"null","","html-keyboard-response","104","487362","0.0-104.0","","<img src=""img/set1/S1.jpg"" width=""540"" height = ""360"" style=""border:16px solid orange"">","null","","","","","","","",""
"null","","html-keyboard-response","105","487562","0.0-105.0","","","null","","","","","","","",""
"660.6000000238419","","image-keyboard-response","106","488224","0.0-106.0","","img/set1/S1.jpg","83","1","random","83","random,structured_normal,structured_incentive,structured_load","2,1,2,3,3,4","true","",""
"null","","html-keyboard-response","107","488576","0.0-107.0","","<img src=""img/set1/S1.jpg"" width=""540"" height = ""360"" style=""border:16px solid orange"">","null","","","","","","","",""
"null","","html-keyboard-response","108","488778","0.0-108.0","","","null","","","","","","","",""
"671.8999999761581","","image-keyboard-response","109","489450","0.0-109.0","","img/set1/S1.jpg","83","1","random","83","random,structured_normal,structured_incentive,structured_load","2,1,2,3,3,4","true","",""
"null","","html-keyboard-response","110","489802","0.0-110.0","","<img src=""img/set1/S1.jpg"" width=""540"" height = ""360"" style=""border:16px solid orange"">","null","","","","","","","",""
"null","","html-keyboard-response","111","490003","0.0-111.0","","","null","","","","","","","",""
"775.6999999880791","","image-keyboard-response","112","490779","0.0-112.0","","img/set1/S2.jpg","68","2","random","68","random,structured_normal,structured_incentive,structured_load","2,1,2,3,3,4","true","",""
"null","","html-keyboard-response","113","491130","0.0-113.0","","<img src=""img/set1/S2.jpg"" width=""540"" height = ""360"" style=""border:16px solid orange"">","null","","","","","","","",""
"null","","html-keyboard-response","114","491332","0.0-114.0","","","null","","","","","","","",""
"1022.0999999940395","","image-keyboard-response","115","492355","0.0-115.0","","img/set1/S3.jpg","72","3","random","72","random,structured_normal,structured_incentive,structured_load","2,1,2,3,3,4","true","",""
"null","","html-keyboard-response","116","492706","0.0-116.0","","<img src=""img/set1/S3.jpg"" width=""540"" height = ""360"" style=""border:16px solid orange"">","null","","","","","","","",""
"null","","html-keyboard-response","117","492908","0.0-117.0","","","null","","","","","","","",""
"942.8999999761581","","image-keyboard-response","118","493851","0.0-118.0","","img/set1/S2.jpg","68","2","random","68","random,structured_normal,structured_incentive,structured_load","2,1,2,3,3,4","true","",""
"null","","html-keyboard-response","119","494202","0.0-119.0","","<img src=""img/set1/S2.jpg"" width=""540"" height = ""360"" style=""border:16px solid orange"">","null","","","","","","","",""
"null","","html-keyboard-response","120","494403","0.0-120.0","","","null","","","","","","","",""
"544","","image-keyboard-response","121","494948","0.0-121.0","","img/set1/S3.jpg","72","3","random","72","random,structured_normal,structured_incentive,structured_load","2,1,2,3,3,4","true","",""
"null","","html-keyboard-response","122","495299","0.0-122.0","","<img src=""img/set1/S3.jpg"" width=""540"" height = ""360"" style=""border:16px solid orange"">","null","","","","","","","",""
"null","","html-keyboard-response","123","495500","0.0-123.0","","","null","","","","","","","",""
"543.2999999821186","","image-keyboard-response","124","496044","0.0-124.0","","img/set1/S3.jpg","72","3","random","72","random,structured_normal,structured_incentive,structured_load","2,1,2,3,3,4","true","",""
"null","","html-keyboard-response","125","496396","0.0-125.0","","<img src=""img/set1/S3.jpg"" width=""540"" height = ""360"" style=""border:16px solid orange"">","null","","","","","","","",""
"null","","html-keyboard-response","126","496597","0.0-126.0","","","null","","","","","","","",""
"439.59999999403954","","image-keyboard-response","127","497037","0.0-127.0","","img/set1/S3.jpg","72","3","random","72","random,structured_normal,structured_incentive,structured_load","2,1,2,3,3,4","true","",""
"null","","html-keyboard-response","128","497389","0.0-128.0","","<img src=""img/set1/S3.jpg"" width=""540"" height = ""360"" style=""border:16px solid orange"">","null","","","","","","","",""
"null","","html-keyboard-response","129","497590","0.0-129.0","","","null","","","","","","","",""
"408.40000000596046","","image-keyboard-response","130","498000","0.0-130.0","","img/set1/S3.jpg","72","3","random","72","random,structured_normal,structured_incentive,structured_load","2,1,2,3,3,4","true","",""
"null","","html-keyboard-response","131","498351","0.0-131.0","","<img src=""img/set1/S3.jpg"" width=""540"" height = ""360"" style=""border:16px solid orange"">","null","","","","","","","",""
"null","","html-keyboard-response","132","498552","0.0-132.0","","","null","","","","","","","",""
"688.5","","image-keyboard-response","133","499241","0.0-133.0","","img/set1/S4.jpg","68","4","random","74","random,structured_normal,structured_incentive,structured_load","2,1,2,3,3,4","false","",""
"null","","html-keyboard-response","134","499593","0.0-134.0","","<img src=""img/set1/S4.jpg"" width=""540"" height = ""360"">","null","","","","","","","",""
"null","","html-keyboard-response","135","499794","0.0-135.0","","","null","","","","","","","",""
"678.5999999940395","","image-keyboard-response","136","500473","0.0-136.0","","img/set1/S3.jpg","72","3","random","72","random,structured_normal,structured_incentive,structured_load","2,1,2,3,3,4","true","",""
"null","","html-keyboard-response","137","500833","0.0-137.0","","<img src=""img/set1/S3.jpg"" width=""540"" height = ""360"" style=""border:16px solid orange"">","null","","","","","","","",""
"null","","html-keyboard-response","138","501033","0.0-138.0","","","null","","","","","","","",""
"694.9000000059605","","image-keyboard-response","139","501729","0.0-139.0","","img/set1/S2.jpg","68","2","random","68","random,structured_normal,structured_incentive,structured_load","2,1,2,3,3,4","true","",""
"null","","html-keyboard-response","140","502080","0.0-140.0","","<img src=""img/set1/S2.jpg"" width=""540"" height = ""360"" style=""border:16px solid orange"">","null","","","","","","","",""
"null","","html-keyboard-response","141","502282","0.0-141.0","","","null","","","","","","","",""
"475.7999999821186","","image-keyboard-response","142","502758","0.0-142.0","","img/set1/S3.jpg","83","3","random","72","random,structured_normal,structured_incentive,structured_load","2,1,2,3,3,4","false","",""
"null","","html-keyboard-response","143","503110","0.0-143.0","","<img src=""img/set1/S3.jpg"" width=""540"" height = ""360"">","null","","","","","","","",""
"null","","html-keyboard-response","144","503311","0.0-144.0","","","null","","","","","","","",""
"898.8999999761581","","image-keyboard-response","145","504210","0.0-145.0","","img/set1/S4.jpg","72","4","random","74","random,structured_normal,structured_incentive,structured_load","2,1,2,3,3,4","false","",""
"null","","html-keyboard-response","146","504562","0.0-146.0","","<img src=""img/set1/S4.jpg"" width=""540"" height = ""360"">","null","","","","","","","",""
"null","","html-keyboard-response","147","504762","0.0-147.0","","","null","","","","","","","",""
"467.19999998807907","","image-keyboard-response","148","505230","0.0-148.0","","img/set1/S4.jpg","72","4","random","74","random,structured_normal,structured_incentive,structured_load","2,1,2,3,3,4","false","",""
"null","","html-keyboard-response","149","505582","0.0-149.0","","<img src=""img/set1/S4.jpg"" width=""540"" height = ""360"">","null","","","","","","","",""
"null","","html-keyboard-response","150","505783","0.0-150.0","","","null","","","","","","","",""
"538","","image-keyboard-response","151","506322","0.0-151.0","","img/set1/S4.jpg","74","4","random","74","random,structured_normal,structured_incentive,structured_load","2,1,2,3,3,4","true","",""
"null","","html-keyboard-response","152","506675","0.0-152.0","","<img src=""img/set1/S4.jpg"" width=""540"" height = ""360"" style=""border:16px solid orange"">","null","","","","","","","",""
"null","","html-keyboard-response","153","506876","0.0-153.0","","","null","","","","","","","",""
"657.9000000059605","","image-keyboard-response","154","507534","0.0-154.0","","img/set1/S2.jpg","68","2","random","68","random,structured_normal,structured_incentive,structured_load","2,1,2,3,3,4","true","",""
"null","","html-keyboard-response","155","507887","0.0-155.0","","<img src=""img/set1/S2.jpg"" width=""540"" height = ""360"" style=""border:16px solid orange"">","null","","","","","","","",""
"null","","html-keyboard-response","156","508088","0.0-156.0","","","null","","","","","","","",""
"504.90000000596046","","image-keyboard-response","157","508594","0.0-157.0","","img/set1/S2.jpg","68","2","random","68","random,structured_normal,structured_incentive,structured_load","2,1,2,3,3,4","true","",""
"null","","html-keyboard-response","158","508946","0.0-158.0","","<img src=""img/set1/S2.jpg"" width=""540"" height = ""360"" style=""border:16px solid orange"">","null","","","","","","","",""
"null","","html-keyboard-response","159","509147","0.0-159.0","","","null","","","","","","","",""
"511.30000001192093","","image-keyboard-response","160","509659","0.0-160.0","","img/set1/S2.jpg","68","2","random","68","random,structured_normal,structured_incentive,structured_load","2,1,2,3,3,4","true","",""
"null","","html-keyboard-response","161","510011","0.0-161.0","","<img src=""img/set1/S2.jpg"" width=""540"" height = ""360"" style=""border:16px solid orange"">","null","","","","","","","",""
"null","","html-keyboard-response","162","510213","0.0-162.0","","","null","","","","","","","",""
"805.1000000238419","","image-keyboard-response","163","511019","0.0-163.0","","img/set1/S4.jpg","74","4","random","74","random,structured_normal,structured_incentive,structured_load","2,1,2,3,3,4","true","",""
"null","","html-keyboard-response","164","511372","0.0-164.0","","<img src=""img/set1/S4.jpg"" width=""540"" height = ""360"" style=""border:16px solid orange"">","null","","","","","","","",""
"null","","html-keyboard-response","165","511573","0.0-165.0","","","null","","","","","","","",""
"637","","image-keyboard-response","166","512211","0.0-166.0","","img/set1/S1.jpg","83","1","random","83","random,structured_normal,structured_incentive,structured_load","2,1,2,3,3,4","true","",""
"null","","html-keyboard-response","167","512562","0.0-167.0","","<img src=""img/set1/S1.jpg"" width=""540"" height = ""360"" style=""border:16px solid orange"">","null","","","","","","","",""
"null","","html-keyboard-response","168","512764","0.0-168.0","","","null","","","","","","","",""
"642.6000000238419","","image-keyboard-response","169","513407","0.0-169.0","","img/set1/S3.jpg","72","3","random","72","random,structured_normal,structured_incentive,structured_load","2,1,2,3,3,4","true","",""
"null","","html-keyboard-response","170","513759","0.0-170.0","","<img src=""img/set1/S3.jpg"" width=""540"" height = ""360"" style=""border:16px solid orange"">","null","","","","","","","",""
"null","","html-keyboard-response","171","513961","0.0-171.0","","","null","","","","","","","",""
"597.2999999821186","","image-keyboard-response","172","514559","0.0-172.0","","img/set1/S2.jpg","68","2","random","68","random,structured_normal,structured_incentive,structured_load","2,1,2,3,3,4","true","",""
"null","","html-keyboard-response","173","514910","0.0-173.0","","<img src=""img/set1/S2.jpg"" width=""540"" height = ""360"" style=""border:16px solid orange"">","null","","","","","","","",""
"null","","html-keyboard-response","174","515133","0.0-174.0","","","null","","","","","","","",""
"492.40000000596046","","image-keyboard-response","175","515627","0.0-175.0","","img/set1/S2.jpg","68","2","random","68","random,structured_normal,structured_incentive,structured_load","2,1,2,3,3,4","true","",""
"null","","html-keyboard-response","176","515979","0.0-176.0","","<img src=""img/set1/S2.jpg"" width=""540"" height = ""360"" style=""border:16px solid orange"">","null","","","","","","","",""
"null","","html-keyboard-response","177","516181","0.0-177.0","","","null","","","","","","","",""
"589.2999999821186","","image-keyboard-response","178","516771","0.0-178.0","","img/set1/S3.jpg","72","3","random","72","random,structured_normal,structured_incentive,structured_load","2,1,2,3,3,4","true","",""
"null","","html-keyboard-response","179","517123","0.0-179.0","","<img src=""img/set1/S3.jpg"" width=""540"" height = ""360"" style=""border:16px solid orange"">","null","","","","","","","",""
"null","","html-keyboard-response","180","517324","0.0-180.0","","","null","","","","","","","",""
"679.1999999880791","","image-keyboard-response","181","518004","0.0-181.0","","img/set1/S1.jpg","83","1","random","83","random,structured_normal,structured_incentive,structured_load","2,1,2,3,3,4","true","",""
"null","","html-keyboard-response","182","518356","0.0-182.0","","<img src=""img/set1/S1.jpg"" width=""540"" height = ""360"" style=""border:16px solid orange"">","null","","","","","","","",""
"null","","html-keyboard-response","183","518557","0.0-183.0","","","null","","","","","","","",""
"506.09999999403954","","image-keyboard-response","184","519064","0.0-184.0","","img/set1/S1.jpg","83","1","random","83","random,structured_normal,structured_incentive,structured_load","2,1,2,3,3,4","true","",""
"null","","html-keyboard-response","185","519416","0.0-185.0","","<img src=""img/set1/S1.jpg"" width=""540"" height = ""360"" style=""border:16px solid orange"">","null","","","","","","","",""
"null","","html-keyboard-response","186","519617","0.0-186.0","","","null","","","","","","","",""
"591.2000000178814","","image-keyboard-response","187","520208","0.0-187.0","","img/set1/S2.jpg","72","2","random","68","random,structured_normal,structured_incentive,structured_load","2,1,2,3,3,4","false","",""
"null","","html-keyboard-response","188","520560","0.0-188.0","","<img src=""img/set1/S2.jpg"" width=""540"" height = ""360"">","null","","","","","","","",""
"null","","html-keyboard-response","189","520761","0.0-189.0","","","null","","","","","","","",""
"463.5","","image-keyboard-response","190","521225","0.0-190.0","","img/set1/S2.jpg","68","2","random","68","random,structured_normal,structured_incentive,structured_load","2,1,2,3,3,4","true","",""
"null","","html-keyboard-response","191","521576","0.0-191.0","","<img src=""img/set1/S2.jpg"" width=""540"" height = ""360"" style=""border:16px solid orange"">","null","","","","","","","",""
"null","","html-keyboard-response","192","521779","0.0-192.0","","","null","","","","","","","",""
"370","","image-keyboard-response","193","522149","0.0-193.0","","img/set1/S1.jpg","68","1","random","83","random,structured_normal,structured_incentive,structured_load","2,1,2,3,3,4","false","",""
"null","","html-keyboard-response","194","522501","0.0-194.0","","<img src=""img/set1/S1.jpg"" width=""540"" height = ""360"">","null","","","","","","","",""
"null","","html-keyboard-response","195","522702","0.0-195.0","","","null","","","","","","","",""
"710.7000000178814","","image-keyboard-response","196","523413","0.0-196.0","","img/set1/S4.jpg","74","4","random","74","random,structured_normal,structured_incentive,structured_load","2,1,2,3,3,4","true","",""
"null","","html-keyboard-response","197","523765","0.0-197.0","","<img src=""img/set1/S4.jpg"" width=""540"" height = ""360"" style=""border:16px solid orange"">","null","","","","","","","",""
"null","","html-keyboard-response","198","523967","0.0-198.0","","","null","","","","","","","",""
"628.9000000059605","","image-keyboard-response","199","524597","0.0-199.0","","img/set1/S3.jpg","68","3","random","72","random,structured_normal,structured_incentive,structured_load","2,1,2,3,3,4","false","",""
"null","","html-keyboard-response","200","524949","0.0-200.0","","<img src=""img/set1/S3.jpg"" width=""540"" height = ""360"">","null","","","","","","","",""
"null","","html-keyboard-response","201","525152","0.0-201.0","","","null","","","","","","","",""
"884.7999999821186","","image-keyboard-response","202","526037","0.0-202.0","","img/set1/S4.jpg","74","4","random","74","random,structured_normal,structured_incentive,structured_load","2,1,2,3,3,4","true","",""
"null","","html-keyboard-response","203","526389","0.0-203.0","","<img src=""img/set1/S4.jpg"" width=""540"" height = ""360"" style=""border:16px solid orange"">","null","","","","","","","",""
"null","","html-keyboard-response","204","526595","0.0-204.0","","","null","","","","","","","",""
"495.40000000596046","","image-keyboard-response","205","527091","0.0-205.0","","img/set1/S4.jpg","74","4","random","74","random,structured_normal,structured_incentive,structured_load","2,1,2,3,3,4","true","",""
"null","","html-keyboard-response","206","527469","0.0-206.0","","<img src=""img/set1/S4.jpg"" width=""540"" height = ""360"" style=""border:16px solid orange"">","null","","","","","","","",""
"null","","html-keyboard-response","207","527670","0.0-207.0","","","null","","","","","","","",""
"503.59999999403954","","image-keyboard-response","208","528174","0.0-208.0","","img/set1/S4.jpg","74","4","random","74","random,structured_normal,structured_incentive,structured_load","2,1,2,3,3,4","true","",""
"null","","html-keyboard-response","209","528527","0.0-209.0","","<img src=""img/set1/S4.jpg"" width=""540"" height = ""360"" style=""border:16px solid orange"">","null","","","","","","","",""
"null","","html-keyboard-response","210","528728","0.0-210.0","","","null","","","","","","","",""
"713.5999999940395","","image-keyboard-response","211","529443","0.0-211.0","","img/set1/S3.jpg","72","3","random","72","random,structured_normal,structured_incentive,structured_load","2,1,2,3,3,4","true","",""
"null","","html-keyboard-response","212","529794","0.0-212.0","","<img src=""img/set1/S3.jpg"" width=""540"" height = ""360"" style=""border:16px solid orange"">","null","","","","","","","",""
"null","","html-keyboard-response","213","529996","0.0-213.0","","","null","","","","","","","",""
"521.7000000178814","","image-keyboard-response","214","530518","0.0-214.0","","img/set1/S3.jpg","72","3","random","72","random,structured_normal,structured_incentive,structured_load","2,1,2,3,3,4","true","",""
"null","","html-keyboard-response","215","530870","0.0-215.0","","<img src=""img/set1/S3.jpg"" width=""540"" height = ""360"" style=""border:16px solid orange"">","null","","","","","","","",""
"null","","html-keyboard-response","216","531071","0.0-216.0","","","null","","","","","","","",""
"679.3999999761581","","image-keyboard-response","217","531751","0.0-217.0","","img/set1/S4.jpg","68","4","random","74","random,structured_normal,structured_incentive,structured_load","2,1,2,3,3,4","false","",""
"null","","html-keyboard-response","218","532102","0.0-218.0","","<img src=""img/set1/S4.jpg"" width=""540"" height = ""360"">","null","","","","","","","",""
"null","","html-keyboard-response","219","532304","0.0-219.0","","","null","","","","","","","",""
"606.6000000238419","","image-keyboard-response","220","532911","0.0-220.0","","img/set1/S1.jpg","83","1","random","83","random,structured_normal,structured_incentive,structured_load","2,1,2,3,3,4","true","",""
"null","","html-keyboard-response","221","533263","0.0-221.0","","<img src=""img/set1/S1.jpg"" width=""540"" height = ""360"" style=""border:16px solid orange"">","null","","","","","","","",""
"null","","html-keyboard-response","222","533464","0.0-222.0","","","null","","","","","","","",""
"658.0999999940395","","image-keyboard-response","223","534123","0.0-223.0","","img/set1/S4.jpg","74","4","random","74","random,structured_normal,structured_incentive,structured_load","2,1,2,3,3,4","true","",""
"null","","html-keyboard-response","224","534475","0.0-224.0","","<img src=""img/set1/S4.jpg"" width=""540"" height = ""360"" style=""border:16px solid orange"">","null","","","","","","","",""
"null","","html-keyboard-response","225","534688","0.0-225.0","","","null","","","","","","","",""
"626.1999999880791","","image-keyboard-response","226","535315","0.0-226.0","","img/set1/S2.jpg","68","2","random","68","random,structured_normal,structured_incentive,structured_load","2,1,2,3,3,4","true","",""
"null","","html-keyboard-response","227","535667","0.0-227.0","","<img src=""img/set1/S2.jpg"" width=""540"" height = ""360"" style=""border:16px solid orange"">","null","","","","","","","",""
"null","","html-keyboard-response","228","535868","0.0-228.0","","","null","","","","","","","",""
"636.2000000178814","","image-keyboard-response","229","536505","0.0-229.0","","img/set1/S4.jpg","74","4","random","74","random,structured_normal,structured_incentive,structured_load","2,1,2,3,3,4","true","",""
"null","","html-keyboard-response","230","536856","0.0-230.0","","<img src=""img/set1/S4.jpg"" width=""540"" height = ""360"" style=""border:16px solid orange"">","null","","","","","","","",""
"null","","html-keyboard-response","231","537057","0.0-231.0","","","null","","","","","","","",""
"678.2999999821186","","image-keyboard-response","232","537736","0.0-232.0","","img/set1/S2.jpg","68","2","random","68","random,structured_normal,structured_incentive,structured_load","2,1,2,3,3,4","true","",""
"null","","html-keyboard-response","233","538089","0.0-233.0","","<img src=""img/set1/S2.jpg"" width=""540"" height = ""360"" style=""border:16px solid orange"">","null","","","","","","","",""
"null","","html-keyboard-response","234","538291","0.0-234.0","","","null","","","","","","","",""
"781.5","","image-keyboard-response","235","539073","0.0-235.0","","img/set1/S4.jpg","74","4","random","74","random,structured_normal,structured_incentive,structured_load","2,1,2,3,3,4","true","",""
"null","","html-keyboard-response","236","539424","0.0-236.0","","<img src=""img/set1/S4.jpg"" width=""540"" height = ""360"" style=""border:16px solid orange"">","null","","","","","","","",""
"null","","html-keyboard-response","237","539625","0.0-237.0","","","null","","","","","","","",""
"587.0999999940395","","image-keyboard-response","238","540213","0.0-238.0","","img/set1/S3.jpg","72","3","random","72","random,structured_normal,structured_incentive,structured_load","2,1,2,3,3,4","true","",""
"null","","html-keyboard-response","239","540569","0.0-239.0","","<img src=""img/set1/S3.jpg"" width=""540"" height = ""360"" style=""border:16px solid orange"">","null","","","","","","","",""
"null","","html-keyboard-response","240","540770","0.0-240.0","","","null","","","","","","","",""
"550.5999999940395","","image-keyboard-response","241","541321","0.0-241.0","","img/set1/S1.jpg","83","1","random","83","random,structured_normal,structured_incentive,structured_load","2,1,2,3,3,4","true","",""
"null","","html-keyboard-response","242","541674","0.0-242.0","","<img src=""img/set1/S1.jpg"" width=""540"" height = ""360"" style=""border:16px solid orange"">","null","","","","","","","",""
"null","","html-keyboard-response","243","541875","0.0-243.0","","","null","","","","","","","",""
"809.7000000178814","","image-keyboard-response","244","542685","0.0-244.0","","img/set1/S2.jpg","68","2","random","68","random,structured_normal,structured_incentive,structured_load","2,1,2,3,3,4","true","",""
"null","","html-keyboard-response","245","543045","0.0-245.0","","<img src=""img/set1/S2.jpg"" width=""540"" height = ""360"" style=""border:16px solid orange"">","null","","","","","","","",""
"null","","html-keyboard-response","246","543245","0.0-246.0","","","null","","","","","","","",""
"800.2000000178814","","image-keyboard-response","247","544046","0.0-247.0","","img/set1/S1.jpg","83","1","random","83","random,structured_normal,structured_incentive,structured_load","2,1,2,3,3,4","true","",""
"null","","html-keyboard-response","248","544399","0.0-248.0","","<img src=""img/set1/S1.jpg"" width=""540"" height = ""360"" style=""border:16px solid orange"">","null","","","","","","","",""
"null","","html-keyboard-response","249","544600","0.0-249.0","","","null","","","","","","","",""
"653.1999999880791","","image-keyboard-response","250","545254","0.0-250.0","","img/set1/S3.jpg","74","3","random","72","random,structured_normal,structured_incentive,structured_load","2,1,2,3,3,4","false","",""
"null","","html-keyboard-response","251","545606","0.0-251.0","","<img src=""img/set1/S3.jpg"" width=""540"" height = ""360"">","null","","","","","","","",""
"null","","html-keyboard-response","252","545807","0.0-252.0","","","null","","","","","","","",""
"694.2000000178814","","image-keyboard-response","253","546502","0.0-253.0","","img/set1/S1.jpg","83","1","random","83","random,structured_normal,structured_incentive,structured_load","2,1,2,3,3,4","true","",""
"null","","html-keyboard-response","254","546854","0.0-254.0","","<img src=""img/set1/S1.jpg"" width=""540"" height = ""360"" style=""border:16px solid orange"">","null","","","","","","","",""
"null","","html-keyboard-response","255","547056","0.0-255.0","","","null","","","","","","","",""
"665.8000000119209","","image-keyboard-response","256","547722","0.0-256.0","","img/set1/S2.jpg","68","2","random","68","random,structured_normal,structured_incentive,structured_load","2,1,2,3,3,4","true","",""
"null","","html-keyboard-response","257","548074","0.0-257.0","","<img src=""img/set1/S2.jpg"" width=""540"" height = ""360"" style=""border:16px solid orange"">","null","","","","","","","",""
"null","","html-keyboard-response","258","548276","0.0-258.0","","","null","","","","","","","",""
"606.4000000059605","","image-keyboard-response","259","548883","0.0-259.0","","img/set1/S1.jpg","83","1","random","83","random,structured_normal,structured_incentive,structured_load","2,1,2,3,3,4","true","",""
"null","","html-keyboard-response","260","549235","0.0-260.0","","<img src=""img/set1/S1.jpg"" width=""540"" height = ""360"" style=""border:16px solid orange"">","null","","","","","","","",""
"null","","html-keyboard-response","261","549437","0.0-261.0","","","null","","","","","","","",""
"701.5","","image-keyboard-response","262","550139","0.0-262.0","","img/set1/S4.jpg","74","4","random","74","random,structured_normal,structured_incentive,structured_load","2,1,2,3,3,4","true","",""
"null","","html-keyboard-response","263","550491","0.0-263.0","","<img src=""img/set1/S4.jpg"" width=""540"" height = ""360"" style=""border:16px solid orange"">","null","","","","","","","",""
"null","","html-keyboard-response","264","550693","0.0-264.0","","","null","","","","","","","",""
"700.6999999880791","","image-keyboard-response","265","551395","0.0-265.0","","img/set1/S4.jpg","72","4","random","74","random,structured_normal,structured_incentive,structured_load","2,1,2,3,3,4","false","",""
"null","","html-keyboard-response","266","551746","0.0-266.0","","<img src=""img/set1/S4.jpg"" width=""540"" height = ""360"">","null","","","","","","","",""
"null","","html-keyboard-response","267","551947","0.0-267.0","","","null","","","","","","","",""
"520.2999999821186","","image-keyboard-response","268","552468","0.0-268.0","","img/set1/S4.jpg","74","4","random","74","random,structured_normal,structured_incentive,structured_load","2,1,2,3,3,4","true","",""
"null","","html-keyboard-response","269","552819","0.0-269.0","","<img src=""img/set1/S4.jpg"" width=""540"" height = ""360"" style=""border:16px solid orange"">","null","","","","","","","",""
"null","","html-keyboard-response","270","553020","0.0-270.0","","","null","","","","","","","",""
"599.2999999821186","","image-keyboard-response","271","553620","0.0-271.0","","img/set1/S3.jpg","72","3","random","72","random,structured_normal,structured_incentive,structured_load","2,1,2,3,3,4","true","",""
"null","","html-keyboard-response","272","553997","0.0-272.0","","<img src=""img/set1/S3.jpg"" width=""540"" height = ""360"" style=""border:16px solid orange"">","null","","","","","","","",""
"null","","html-keyboard-response","273","554199","0.0-273.0","","","null","","","","","","","",""
"520.4000000059605","","image-keyboard-response","274","554720","0.0-274.0","","img/set1/S3.jpg","72","3","random","72","random,structured_normal,structured_incentive,structured_load","2,1,2,3,3,4","true","",""
"null","","html-keyboard-response","275","555071","0.0-275.0","","<img src=""img/set1/S3.jpg"" width=""540"" height = ""360"" style=""border:16px solid orange"">","null","","","","","","","",""
"null","","html-keyboard-response","276","555273","0.0-276.0","","","null","","","","","","","",""
"414.7999999821186","","image-keyboard-response","277","555688","0.0-277.0","","img/set1/S3.jpg","72","3","random","72","random,structured_normal,structured_incentive,structured_load","2,1,2,3,3,4","true","",""
"null","","html-keyboard-response","278","556039","0.0-278.0","","<img src=""img/set1/S3.jpg"" width=""540"" height = ""360"" style=""border:16px solid orange"">","null","","","","","","","",""
"null","","html-keyboard-response","279","556241","0.0-279.0","","","null","","","","","","","",""
"699.0999999940395","","image-keyboard-response","280","556940","0.0-280.0","","img/set1/S1.jpg","83","1","random","83","random,structured_normal,structured_incentive,structured_load","2,1,2,3,3,4","true","",""
"null","","html-keyboard-response","281","557292","0.0-281.0","","<img src=""img/set1/S1.jpg"" width=""540"" height = ""360"" style=""border:16px solid orange"">","null","","","","","","","",""
"null","","html-keyboard-response","282","557529","0.0-282.0","","","null","","","","","","","",""
"623.5","","image-keyboard-response","283","558154","0.0-283.0","","img/set1/S3.jpg","72","3","random","72","random,structured_normal,structured_incentive,structured_load","2,1,2,3,3,4","true","",""
"null","","html-keyboard-response","284","558509","0.0-284.0","","<img src=""img/set1/S3.jpg"" width=""540"" height = ""360"" style=""border:16px solid orange"">","null","","","","","","","",""
"null","","html-keyboard-response","285","558710","0.0-285.0","","","null","","","","","","","",""
"670.8000000119209","","image-keyboard-response","286","559382","0.0-286.0","","img/set1/S4.jpg","74","4","random","74","random,structured_normal,structured_incentive,structured_load","2,1,2,3,3,4","true","",""
"null","","html-keyboard-response","287","559737","0.0-287.0","","<img src=""img/set1/S4.jpg"" width=""540"" height = ""360"" style=""border:16px solid orange"">","null","","","","","","","",""
"null","","html-keyboard-response","288","559938","0.0-288.0","","","null","","","","","","","",""
"742.5999999940395","","image-keyboard-response","289","560681","0.0-289.0","","img/set1/S1.jpg","83","1","random","83","random,structured_normal,structured_incentive,structured_load","2,1,2,3,3,4","true","",""
"null","","html-keyboard-response","290","561032","0.0-290.0","","<img src=""img/set1/S1.jpg"" width=""540"" height = ""360"" style=""border:16px solid orange"">","null","","","","","","","",""
"null","","html-keyboard-response","291","561234","0.0-291.0","","","null","","","","","","","",""
"772.0999999940395","","image-keyboard-response","292","562007","0.0-292.0","","img/set1/S2.jpg","74","2","random","68","random,structured_normal,structured_incentive,structured_load","2,1,2,3,3,4","false","",""
"null","","html-keyboard-response","293","562359","0.0-293.0","","<img src=""img/set1/S2.jpg"" width=""540"" height = ""360"">","null","","","","","","","",""
"null","","html-keyboard-response","294","562560","0.0-294.0","","","null","","","","","","","",""
"889.4000000059605","","image-keyboard-response","295","563450","0.0-295.0","","img/set1/S3.jpg","74","3","random","72","random,structured_normal,structured_incentive,structured_load","2,1,2,3,3,4","false","",""
"null","","html-keyboard-response","296","563802","0.0-296.0","","<img src=""img/set1/S3.jpg"" width=""540"" height = ""360"">","null","","","","","","","",""
"null","","html-keyboard-response","297","564004","0.0-297.0","","","null","","","","","","","",""
"642","","image-keyboard-response","298","564646","0.0-298.0","","img/set1/S2.jpg","68","2","random","68","random,structured_normal,structured_incentive,structured_load","2,1,2,3,3,4","true","",""
"null","","html-keyboard-response","299","564999","0.0-299.0","","<img src=""img/set1/S2.jpg"" width=""540"" height = ""360"" style=""border:16px solid orange"">","null","","","","","","","",""
"null","","html-keyboard-response","300","565204","0.0-300.0","","","null","","","","","","","",""
"589.3000000119209","","image-keyboard-response","301","565795","0.0-301.0","","img/set1/S4.jpg","74","4","random","74","random,structured_normal,structured_incentive,structured_load","2,1,2,3,3,4","true","",""
"null","","html-keyboard-response","302","566147","0.0-302.0","","<img src=""img/set1/S4.jpg"" width=""540"" height = ""360"" style=""border:16px solid orange"">","null","","","","","","","",""
"null","","html-keyboard-response","303","566347","0.0-303.0","","","null","","","","","","","",""
"559.4000000059605","","image-keyboard-response","304","566907","0.0-304.0","","img/set1/S2.jpg","68","2","random","68","random,structured_normal,structured_incentive,structured_load","2,1,2,3,3,4","true","",""
"null","","html-keyboard-response","305","567259","0.0-305.0","","<img src=""img/set1/S2.jpg"" width=""540"" height = ""360"" style=""border:16px solid orange"">","null","","","","","","","",""
"null","","html-keyboard-response","306","567461","0.0-306.0","","","null","","","","","","","",""
"644","","image-keyboard-response","307","568106","0.0-307.0","","img/set1/S1.jpg","83","1","random","83","random,structured_normal,structured_incentive,structured_load","2,1,2,3,3,4","true","",""
"null","","html-keyboard-response","308","568457","0.0-308.0","","<img src=""img/set1/S1.jpg"" width=""540"" height = ""360"" style=""border:16px solid orange"">","null","","","","","","","",""
"null","","html-keyboard-response","309","568659","0.0-309.0","","","null","","","","","","","",""
"627.2000000178814","","image-keyboard-response","310","569287","0.0-310.0","","img/set1/S3.jpg","72","3","random","72","random,structured_normal,structured_incentive,structured_load","2,1,2,3,3,4","true","",""
"null","","html-keyboard-response","311","569639","0.0-311.0","","<img src=""img/set1/S3.jpg"" width=""540"" height = ""360"" style=""border:16px solid orange"">","null","","","","","","","",""
"null","","html-keyboard-response","312","569840","0.0-312.0","","","null","","","","","","","",""
"551.8999999761581","","image-keyboard-response","313","570392","0.0-313.0","","img/set1/S2.jpg","68","2","random","68","random,structured_normal,structured_incentive,structured_load","2,1,2,3,3,4","true","",""
"null","","html-keyboard-response","314","570743","0.0-314.0","","<img src=""img/set1/S2.jpg"" width=""540"" height = ""360"" style=""border:16px solid orange"">","null","","","","","","","",""
"null","","html-keyboard-response","315","570944","0.0-315.0","","","null","","","","","","","",""
"651.3000000119209","","image-keyboard-response","316","571596","0.0-316.0","","img/set1/S4.jpg","74","4","random","74","random,structured_normal,structured_incentive,structured_load","2,1,2,3,3,4","true","",""
"null","","html-keyboard-response","317","571947","0.0-317.0","","<img src=""img/set1/S4.jpg"" width=""540"" height = ""360"" style=""border:16px solid orange"">","null","","","","","","","",""
"null","","html-keyboard-response","318","572149","0.0-318.0","","","null","","","","","","","",""
"606.5999999940395","","image-keyboard-response","319","572756","0.0-319.0","","img/set1/S2.jpg","68","2","random","68","random,structured_normal,structured_incentive,structured_load","2,1,2,3,3,4","true","",""
"null","","html-keyboard-response","320","573108","0.0-320.0","","<img src=""img/set1/S2.jpg"" width=""540"" height = ""360"" style=""border:16px solid orange"">","null","","","","","","","",""
"null","","html-keyboard-response","321","573309","0.0-321.0","","","null","","","","","","","",""
"582.2000000178814","","image-keyboard-response","322","573892","0.0-322.0","","img/set1/S3.jpg","74","3","random","72","random,structured_normal,structured_incentive,structured_load","2,1,2,3,3,4","false","",""
"null","","html-keyboard-response","323","574243","0.0-323.0","","<img src=""img/set1/S3.jpg"" width=""540"" height = ""360"">","null","","","","","","","",""
"null","","html-keyboard-response","324","574444","0.0-324.0","","","null","","","","","","","",""
"491.5","","image-keyboard-response","325","574936","0.0-325.0","","img/set1/S3.jpg","72","3","random","72","random,structured_normal,structured_incentive,structured_load","2,1,2,3,3,4","true","",""
"null","","html-keyboard-response","326","575287","0.0-326.0","","<img src=""img/set1/S3.jpg"" width=""540"" height = ""360"" style=""border:16px solid orange"">","null","","","","","","","",""
"null","","html-keyboard-response","327","575488","0.0-327.0","","","null","","","","","","","",""
"588.4000000059605","","image-keyboard-response","328","576077","0.0-328.0","","img/set1/S1.jpg","68","1","random","83","random,structured_normal,structured_incentive,structured_load","2,1,2,3,3,4","false","",""
"null","","html-keyboard-response","329","576428","0.0-329.0","","<img src=""img/set1/S1.jpg"" width=""540"" height = ""360"">","null","","","","","","","",""
"null","","html-keyboard-response","330","576629","0.0-330.0","","","null","","","","","","","",""
"470.59999999403954","","image-keyboard-response","331","577101","0.0-331.0","","img/set1/S1.jpg","83","1","random","83","random,structured_normal,structured_incentive,structured_load","2,1,2,3,3,4","true","",""
"null","","html-keyboard-response","332","577452","0.0-332.0","","<img src=""img/set1/S1.jpg"" width=""540"" height = ""360"" style=""border:16px solid orange"">","null","","","","","","","",""
"null","","html-keyboard-response","333","577653","0.0-333.0","","","null","","","","","","","",""
"511.5","","image-keyboard-response","334","578165","0.0-334.0","","img/set1/S2.jpg","68","2","random","68","random,structured_normal,structured_incentive,structured_load","2,1,2,3,3,4","true","",""
"null","","html-keyboard-response","335","578517","0.0-335.0","","<img src=""img/set1/S2.jpg"" width=""540"" height = ""360"" style=""border:16px solid orange"">","null","","","","","","","",""
"null","","html-keyboard-response","336","578718","0.0-336.0","","","null","","","","","","","",""
"694.3000000119209","","image-keyboard-response","337","579413","0.0-337.0","","img/set1/S3.jpg","72","3","random","72","random,structured_normal,structured_incentive,structured_load","2,1,2,3,3,4","true","",""
"null","","html-keyboard-response","338","579764","0.0-338.0","","<img src=""img/set1/S3.jpg"" width=""540"" height = ""360"" style=""border:16px solid orange"">","null","","","","","","","",""
"null","","html-keyboard-response","339","579966","0.0-339.0","","","null","","","","","","","",""
"591.8000000119209","","image-keyboard-response","340","580558","0.0-340.0","","img/set1/S1.jpg","83","1","random","83","random,structured_normal,structured_incentive,structured_load","2,1,2,3,3,4","true","",""
"null","","html-keyboard-response","341","580910","0.0-341.0","","<img src=""img/set1/S1.jpg"" width=""540"" height = ""360"" style=""border:16px solid orange"">","null","","","","","","","",""
"null","","html-keyboard-response","342","581111","0.0-342.0","","","null","","","","","","","",""
"594.0999999940395","","image-keyboard-response","343","581706","0.0-343.0","","img/set1/S4.jpg","72","4","random","74","random,structured_normal,structured_incentive,structured_load","2,1,2,3,3,4","false","",""
"null","","html-keyboard-response","344","582060","0.0-344.0","","<img src=""img/set1/S4.jpg"" width=""540"" height = ""360"">","null","","","","","","","",""
"null","","html-keyboard-response","345","582261","0.0-345.0","","","null","","","","","","","",""
"636.5999999940395","","image-keyboard-response","346","582898","0.0-346.0","","img/set1/S3.jpg","72","3","random","72","random,structured_normal,structured_incentive,structured_load","2,1,2,3,3,4","true","",""
"null","","html-keyboard-response","347","583251","0.0-347.0","","<img src=""img/set1/S3.jpg"" width=""540"" height = ""360"" style=""border:16px solid orange"">","null","","","","","","","",""
"null","","html-keyboard-response","348","583452","0.0-348.0","","","null","","","","","","","",""
"418.7000000178814","","image-keyboard-response","349","583871","0.0-349.0","","img/set1/S3.jpg","72","3","random","72","random,structured_normal,structured_incentive,structured_load","2,1,2,3,3,4","true","",""
"null","","html-keyboard-response","350","584225","0.0-350.0","","<img src=""img/set1/S3.jpg"" width=""540"" height = ""360"" style=""border:16px solid orange"">","null","","","","","","","",""
"null","","html-keyboard-response","351","584427","0.0-351.0","","","null","","","","","","","",""
"731.6000000238419","","image-keyboard-response","352","585159","0.0-352.0","","img/set1/S2.jpg","68","2","random","68","random,structured_normal,structured_incentive,structured_load","2,1,2,3,3,4","true","",""
"null","","html-keyboard-response","353","585511","0.0-353.0","","<img src=""img/set1/S2.jpg"" width=""540"" height = ""360"" style=""border:16px solid orange"">","null","","","","","","","",""
"null","","html-keyboard-response","354","585712","0.0-354.0","","","null","","","","","","","",""
"590.8000000119209","","image-keyboard-response","355","586303","0.0-355.0","","img/set1/S3.jpg","83","3","random","72","random,structured_normal,structured_incentive,structured_load","2,1,2,3,3,4","false","",""
"null","","html-keyboard-response","356","586655","0.0-356.0","","<img src=""img/set1/S3.jpg"" width=""540"" height = ""360"">","null","","","","","","","",""
"null","","html-keyboard-response","357","586867","0.0-357.0","","","null","","","","","","","",""
"467.59999999403954","","image-keyboard-response","358","587336","0.0-358.0","","img/set1/S1.jpg","83","1","random","83","random,structured_normal,structured_incentive,structured_load","2,1,2,3,3,4","true","",""
"null","","html-keyboard-response","359","587688","0.0-359.0","","<img src=""img/set1/S1.jpg"" width=""540"" height = ""360"" style=""border:16px solid orange"">","null","","","","","","","",""
"null","","html-keyboard-response","360","587889","0.0-360.0","","","null","","","","","","","",""
"734.5","","image-keyboard-response","361","588624","0.0-361.0","","img/set1/S1.jpg","83","1","random","83","random,structured_normal,structured_incentive,structured_load","2,1,2,3,3,4","true","",""
"null","","html-keyboard-response","362","588979","0.0-362.0","","<img src=""img/set1/S1.jpg"" width=""540"" height = ""360"" style=""border:16px solid orange"">","null","","","","","","","",""
"null","","html-keyboard-response","363","589181","0.0-363.0","","","null","","","","","","","",""
"8797.09999999404","","html-keyboard-response","364","597978","0.0-364.0","","<p class=""center-content"">You have completed a block! </p><p class=""center-content"">Press any key on the keyboard to continue, </p><p class=""center-content"">or wait for the automatic progression to the next block after one minute.</p>","32","","","","","","","",""
"8609.199999988079","","instructions","365","606588","0.0-365.0","[{""page_index"":0,""viewing_time"":8608.59999999404}]","","","","","","","","","",""
"4247.799999982119","","instructions","366","610836","0.0-366.0","[{""page_index"":0,""viewing_time"":4247.4000000059605}]","","","","","","","","","",""
"943.5","","image-keyboard-response","367","611781","0.0-367.0","","img/set2/S4.jpg","83","4","structured_normal","74","random,structured_normal,structured_incentive,structured_load","2,1,2,3,3,4","false","",""
"null","","html-keyboard-response","368","612132","0.0-368.0","","<img src=""img/set2/S4.jpg"" width=""540"" height = ""360"">","null","","","","","","","",""
"null","","html-keyboard-response","369","612334","0.0-369.0","","","null","","","","","","","",""
"714.4000000059605","","image-keyboard-response","370","613049","0.0-370.0","","img/set2/S4.jpg","68","4","structured_normal","74","random,structured_normal,structured_incentive,structured_load","2,1,2,3,3,4","false","",""
"null","","html-keyboard-response","371","613410","0.0-371.0","","<img src=""img/set2/S4.jpg"" width=""540"" height = ""360"">","null","","","","","","","",""
"null","","html-keyboard-response","372","613619","0.0-372.0","","","null","","","","","","","",""
"1657.9000000059605","","image-keyboard-response","373","615278","0.0-373.0","","img/set2/S2.jpg","72","2","structured_normal","68","random,structured_normal,structured_incentive,structured_load","2,1,2,3,3,4","false","",""
"null","","html-keyboard-response","374","615630","0.0-374.0","","<img src=""img/set2/S2.jpg"" width=""540"" height = ""360"">","null","","","","","","","",""
"null","","html-keyboard-response","375","615832","0.0-375.0","","","null","","","","","","","",""
"917.4000000059605","","image-keyboard-response","376","616750","0.0-376.0","","img/set2/S1.jpg","72","1","structured_normal","83","random,structured_normal,structured_incentive,structured_load","2,1,2,3,3,4","false","",""
"null","","html-keyboard-response","377","617102","0.0-377.0","","<img src=""img/set2/S1.jpg"" width=""540"" height = ""360"">","null","","","","","","","",""
"null","","html-keyboard-response","378","617303","0.0-378.0","","","null","","","","","","","",""
"838.3000000119209","","image-keyboard-response","379","618142","0.0-379.0","","img/set2/S2.jpg","74","2","structured_normal","68","random,structured_normal,structured_incentive,structured_load","2,1,2,3,3,4","false","",""
"null","","html-keyboard-response","380","618494","0.0-380.0","","<img src=""img/set2/S2.jpg"" width=""540"" height = ""360"">","null","","","","","","","",""
"null","","html-keyboard-response","381","618696","0.0-381.0","","","null","","","","","","","",""
"926","","image-keyboard-response","382","619623","0.0-382.0","","img/set2/S1.jpg","68","1","structured_normal","83","random,structured_normal,structured_incentive,structured_load","2,1,2,3,3,4","false","",""
"null","","html-keyboard-response","383","619975","0.0-383.0","","<img src=""img/set2/S1.jpg"" width=""540"" height = ""360"">","null","","","","","","","",""
"null","","html-keyboard-response","384","620183","0.0-384.0","","","null","","","","","","","",""
"935.5","","image-keyboard-response","385","621119","0.0-385.0","","img/set2/S4.jpg","72","4","structured_normal","74","random,structured_normal,structured_incentive,structured_load","2,1,2,3,3,4","false","",""
"null","","html-keyboard-response","386","621476","0.0-386.0","","<img src=""img/set2/S4.jpg"" width=""540"" height = ""360"">","null","","","","","","","",""
"null","","html-keyboard-response","387","621677","0.0-387.0","","","null","","","","","","","",""
"873.5","","image-keyboard-response","388","622551","0.0-388.0","","img/set2/S2.jpg","83","2","structured_normal","68","random,structured_normal,structured_incentive,structured_load","2,1,2,3,3,4","false","",""
"null","","html-keyboard-response","389","622903","0.0-389.0","","<img src=""img/set2/S2.jpg"" width=""540"" height = ""360"">","null","","","","","","","",""
"null","","html-keyboard-response","390","623104","0.0-390.0","","","null","","","","","","","",""
"590.4000000059605","","image-keyboard-response","391","623695","0.0-391.0","","img/set2/S1.jpg","74","1","structured_normal","83","random,structured_normal,structured_incentive,structured_load","2,1,2,3,3,4","false","",""
"null","","html-keyboard-response","392","624047","0.0-392.0","","<img src=""img/set2/S1.jpg"" width=""540"" height = ""360"">","null","","","","","","","",""
"null","","html-keyboard-response","393","624248","0.0-393.0","","","null","","","","","","","",""
"2169.9000000059605","","image-keyboard-response","394","626419","0.0-394.0","","img/set2/S3.jpg","83","3","structured_normal","72","random,structured_normal,structured_incentive,structured_load","2,1,2,3,3,4","false","",""
"null","","html-keyboard-response","395","626770","0.0-395.0","","<img src=""img/set2/S3.jpg"" width=""540"" height = ""360"">","null","","","","","","","",""
"null","","html-keyboard-response","396","626971","0.0-396.0","","","null","","","","","","","",""
"660.8000000119209","","image-keyboard-response","397","627632","0.0-397.0","","img/set2/S3.jpg","68","3","structured_normal","72","random,structured_normal,structured_incentive,structured_load","2,1,2,3,3,4","false","",""
"null","","html-keyboard-response","398","627984","0.0-398.0","","<img src=""img/set2/S3.jpg"" width=""540"" height = ""360"">","null","","","","","","","",""
"null","","html-keyboard-response","399","628185","0.0-399.0","","","null","","","","","","","",""
"570.2000000178814","","image-keyboard-response","400","628756","0.0-400.0","","img/set2/S3.jpg","74","3","structured_normal","72","random,structured_normal,structured_incentive,structured_load","2,1,2,3,3,4","false","",""
"null","","html-keyboard-response","401","629108","0.0-401.0","","<img src=""img/set2/S3.jpg"" width=""540"" height = ""360"">","null","","","","","","","",""
"null","","html-keyboard-response","402","629308","0.0-402.0","","","null","","","","","","","",""
"495.30000001192093","","image-keyboard-response","403","629804","0.0-403.0","","img/set2/S3.jpg","72","3","structured_normal","72","random,structured_normal,structured_incentive,structured_load","2,1,2,3,3,4","true","",""
"null","","html-keyboard-response","404","630157","0.0-404.0","","<img src=""img/set2/S3.jpg"" width=""540"" height = ""360"" style=""border:16px solid orange"">","null","","","","","","","",""
"null","","html-keyboard-response","405","630358","0.0-405.0","","","null","","","","","","","",""
"825.6999999880791","","image-keyboard-response","406","631184","0.0-406.0","","img/set2/S2.jpg","74","2","structured_normal","68","random,structured_normal,structured_incentive,structured_load","2,1,2,3,3,4","false","",""
"null","","html-keyboard-response","407","631536","0.0-407.0","","<img src=""img/set2/S2.jpg"" width=""540"" height = ""360"">","null","","","","","","","",""
"null","","html-keyboard-response","408","631738","0.0-408.0","","","null","","","","","","","",""
"546.5999999940395","","image-keyboard-response","409","632285","0.0-409.0","","img/set2/S1.jpg","72","1","structured_normal","83","random,structured_normal,structured_incentive,structured_load","2,1,2,3,3,4","false","",""
"null","","html-keyboard-response","410","632638","0.0-410.0","","<img src=""img/set2/S1.jpg"" width=""540"" height = ""360"">","null","","","","","","","",""
"null","","html-keyboard-response","411","632839","0.0-411.0","","","null","","","","","","","",""
"717.8000000119209","","image-keyboard-response","412","633557","0.0-412.0","","img/set2/S2.jpg","72","2","structured_normal","68","random,structured_normal,structured_incentive,structured_load","2,1,2,3,3,4","false","",""
"null","","html-keyboard-response","413","633909","0.0-413.0","","<img src=""img/set2/S2.jpg"" width=""540"" height = ""360"">","null","","","","","","","",""
"null","","html-keyboard-response","414","634111","0.0-414.0","","","null","","","","","","","",""
"753.7000000178814","","image-keyboard-response","415","634865","0.0-415.0","","img/set2/S1.jpg","68","1","structured_normal","83","random,structured_normal,structured_incentive,structured_load","2,1,2,3,3,4","false","",""
"null","","html-keyboard-response","416","635216","0.0-416.0","","<img src=""img/set2/S1.jpg"" width=""540"" height = ""360"">","null","","","","","","","",""
"null","","html-keyboard-response","417","635418","0.0-417.0","","","null","","","","","","","",""
"963.3000000119209","","image-keyboard-response","418","636382","0.0-418.0","","img/set2/S4.jpg","74","4","structured_normal","74","random,structured_normal,structured_incentive,structured_load","2,1,2,3,3,4","true","",""
"null","","html-keyboard-response","419","636733","0.0-419.0","","<img src=""img/set2/S4.jpg"" width=""540"" height = ""360"" style=""border:16px solid orange"">","null","","","","","","","",""
"null","","html-keyboard-response","420","636935","0.0-420.0","","","null","","","","","","","",""
"842.5999999940395","","image-keyboard-response","421","637778","0.0-421.0","","img/set2/S2.jpg","72","2","structured_normal","68","random,structured_normal,structured_incentive,structured_load","2,1,2,3,3,4","false","",""
"null","","html-keyboard-response","422","638130","0.0-422.0","","<img src=""img/set2/S2.jpg"" width=""540"" height = ""360"">","null","","","","","","","",""
"null","","html-keyboard-response","423","638331","0.0-423.0","","","null","","","","","","","",""
"1116.9000000059605","","image-keyboard-response","424","639450","0.0-424.0","","img/set2/S1.jpg","68","1","structured_normal","83","random,structured_normal,structured_incentive,structured_load","2,1,2,3,3,4","false","",""
"null","","html-keyboard-response","425","639802","0.0-425.0","","<img src=""img/set2/S1.jpg"" width=""540"" height = ""360"">","null","","","","","","","",""
"null","","html-keyboard-response","426","640004","0.0-426.0","","","null","","","","","","","",""
"710.8000000119209","","image-keyboard-response","427","640715","0.0-427.0","","img/set2/S2.jpg","83","2","structured_normal","68","random,structured_normal,structured_incentive,structured_load","2,1,2,3,3,4","false","",""
"null","","html-keyboard-response","428","641067","0.0-428.0","","<img src=""img/set2/S2.jpg"" width=""540"" height = ""360"">","null","","","","","","","",""
"null","","html-keyboard-response","429","641268","0.0-429.0","","","null","","","","","","","",""
"1026.7999999821186","","image-keyboard-response","430","642295","0.0-430.0","","img/set2/S1.jpg","72","1","structured_normal","83","random,structured_normal,structured_incentive,structured_load","2,1,2,3,3,4","false","",""
"null","","html-keyboard-response","431","642647","0.0-431.0","","<img src=""img/set2/S1.jpg"" width=""540"" height = ""360"">","null","","","","","","","",""
"null","","html-keyboard-response","432","642849","0.0-432.0","","","null","","","","","","","",""
"997.9000000059605","","image-keyboard-response","433","643847","0.0-433.0","","img/set2/S2.jpg","74","2","structured_normal","68","random,structured_normal,structured_incentive,structured_load","2,1,2,3,3,4","false","",""
"null","","html-keyboard-response","434","644198","0.0-434.0","","<img src=""img/set2/S2.jpg"" width=""540"" height = ""360"">","null","","","","","","","",""
"null","","html-keyboard-response","435","644400","0.0-435.0","","","null","","","","","","","",""
"1066.5999999940395","","image-keyboard-response","436","645467","0.0-436.0","","img/set2/S1.jpg","68","1","structured_normal","83","random,structured_normal,structured_incentive,structured_load","2,1,2,3,3,4","false","",""
"null","","html-keyboard-response","437","645819","0.0-437.0","","<img src=""img/set2/S1.jpg"" width=""540"" height = ""360"">","null","","","","","","","",""
"null","","html-keyboard-response","438","646020","0.0-438.0","","","null","","","","","","","",""
"906.9000000059605","","image-keyboard-response","439","646927","0.0-439.0","","img/set2/S3.jpg","83","3","structured_normal","72","random,structured_normal,structured_incentive,structured_load","2,1,2,3,3,4","false","",""
"null","","html-keyboard-response","440","647279","0.0-440.0","","<img src=""img/set2/S3.jpg"" width=""540"" height = ""360"">","null","","","","","","","",""
"null","","html-keyboard-response","441","647480","0.0-441.0","","","null","","","","","","","",""
"870.0999999940395","","image-keyboard-response","442","648351","0.0-442.0","","img/set2/S4.jpg","74","4","structured_normal","74","random,structured_normal,structured_incentive,structured_load","2,1,2,3,3,4","true","",""
"null","","html-keyboard-response","443","648703","0.0-443.0","","<img src=""img/set2/S4.jpg"" width=""540"" height = ""360"" style=""border:16px solid orange"">","null","","","","","","","",""
"null","","html-keyboard-response","444","648905","0.0-444.0","","","null","","","","","","","",""
"706.5","","image-keyboard-response","445","649613","0.0-445.0","","img/set2/S4.jpg","74","4","structured_normal","74","random,structured_normal,structured_incentive,structured_load","2,1,2,3,3,4","true","",""
"null","","html-keyboard-response","446","649977","0.0-446.0","","<img src=""img/set2/S4.jpg"" width=""540"" height = ""360"" style=""border:16px solid orange"">","null","","","","","","","",""
"null","","html-keyboard-response","447","650201","0.0-447.0","","","null","","","","","","","",""
"974.9000000059605","","image-keyboard-response","448","651177","0.0-448.0","","img/set2/S2.jpg","72","2","structured_normal","68","random,structured_normal,structured_incentive,structured_load","2,1,2,3,3,4","false","",""
"null","","html-keyboard-response","449","651537","0.0-449.0","","<img src=""img/set2/S2.jpg"" width=""540"" height = ""360"">","null","","","","","","","",""
"null","","html-keyboard-response","450","651740","0.0-450.0","","","null","","","","","","","",""
"1159.7999999821186","","image-keyboard-response","451","652900","0.0-451.0","","img/set2/S1.jpg","83","1","structured_normal","83","random,structured_normal,structured_incentive,structured_load","2,1,2,3,3,4","true","",""
"null","","html-keyboard-response","452","653253","0.0-452.0","","<img src=""img/set2/S1.jpg"" width=""540"" height = ""360"" style=""border:16px solid orange"">","null","","","","","","","",""
"null","","html-keyboard-response","453","653454","0.0-453.0","","","null","","","","","","","",""
"1321.5","","image-keyboard-response","454","654776","0.0-454.0","","img/set2/S4.jpg","72","4","structured_normal","74","random,structured_normal,structured_incentive,structured_load","2,1,2,3,3,4","false","",""
"null","","html-keyboard-response","455","655128","0.0-455.0","","<img src=""img/set2/S4.jpg"" width=""540"" height = ""360"">","null","","","","","","","",""
"null","","html-keyboard-response","456","655329","0.0-456.0","","","null","","","","","","","",""
"1228.199999988079","","image-keyboard-response","457","656557","0.0-457.0","","img/set2/S2.jpg","68","2","structured_normal","68","random,structured_normal,structured_incentive,structured_load","2,1,2,3,3,4","true","",""
"null","","html-keyboard-response","458","656909","0.0-458.0","","<img src=""img/set2/S2.jpg"" width=""540"" height = ""360"" style=""border:16px solid orange"">","null","","","","","","","",""
"null","","html-keyboard-response","459","657111","0.0-459.0","","","null","","","","","","","",""
"702","","image-keyboard-response","460","657813","0.0-460.0","","img/set2/S1.jpg","83","1","structured_normal","83","random,structured_normal,structured_incentive,structured_load","2,1,2,3,3,4","true","",""
"null","","html-keyboard-response","461","658165","0.0-461.0","","<img src=""img/set2/S1.jpg"" width=""540"" height = ""360"" style=""border:16px solid orange"">","null","","","","","","","",""
"null","","html-keyboard-response","462","658367","0.0-462.0","","","null","","","","","","","",""
"421.59999999403954","","image-keyboard-response","463","658789","0.0-463.0","","img/set2/S2.jpg","68","2","structured_normal","68","random,structured_normal,structured_incentive,structured_load","2,1,2,3,3,4","true","",""
"null","","html-keyboard-response","464","659140","0.0-464.0","","<img src=""img/set2/S2.jpg"" width=""540"" height = ""360"" style=""border:16px solid orange"">","null","","","","","","","",""
"null","","html-keyboard-response","465","659342","0.0-465.0","","","null","","","","","","","",""
"864.0999999940395","","image-keyboard-response","466","660206","0.0-466.0","","img/set2/S1.jpg","83","1","structured_normal","83","random,structured_normal,structured_incentive,structured_load","2,1,2,3,3,4","true","",""
"null","","html-keyboard-response","467","660559","0.0-467.0","","<img src=""img/set2/S1.jpg"" width=""540"" height = ""360"" style=""border:16px solid orange"">","null","","","","","","","",""
"null","","html-keyboard-response","468","660762","0.0-468.0","","","null","","","","","","","",""
"676","","image-keyboard-response","469","661438","0.0-469.0","","img/set2/S3.jpg","72","3","structured_normal","72","random,structured_normal,structured_incentive,structured_load","2,1,2,3,3,4","true","",""
"null","","html-keyboard-response","470","661791","0.0-470.0","","<img src=""img/set2/S3.jpg"" width=""540"" height = ""360"" style=""border:16px solid orange"">","null","","","","","","","",""
"null","","html-keyboard-response","471","661992","0.0-471.0","","","null","","","","","","","",""
"825.4000000059605","","image-keyboard-response","472","662818","0.0-472.0","","img/set2/S2.jpg","68","2","structured_normal","68","random,structured_normal,structured_incentive,structured_load","2,1,2,3,3,4","true","",""
"null","","html-keyboard-response","473","663170","0.0-473.0","","<img src=""img/set2/S2.jpg"" width=""540"" height = ""360"" style=""border:16px solid orange"">","null","","","","","","","",""
"null","","html-keyboard-response","474","663370","0.0-474.0","","","null","","","","","","","",""
"479.90000000596046","","image-keyboard-response","475","663851","0.0-475.0","","img/set2/S1.jpg","83","1","structured_normal","83","random,structured_normal,structured_incentive,structured_load","2,1,2,3,3,4","true","",""
"null","","html-keyboard-response","476","664202","0.0-476.0","","<img src=""img/set2/S1.jpg"" width=""540"" height = ""360"" style=""border:16px solid orange"">","null","","","","","","","",""
"null","","html-keyboard-response","477","664404","0.0-477.0","","","null","","","","","","","",""
"770.7000000178814","","image-keyboard-response","478","665176","0.0-478.0","","img/set2/S3.jpg","72","3","structured_normal","72","random,structured_normal,structured_incentive,structured_load","2,1,2,3,3,4","true","",""
"null","","html-keyboard-response","479","665527","0.0-479.0","","<img src=""img/set2/S3.jpg"" width=""540"" height = ""360"" style=""border:16px solid orange"">","null","","","","","","","",""
"null","","html-keyboard-response","480","665728","0.0-480.0","","","null","","","","","","","",""
"550.4000000059605","","image-keyboard-response","481","666279","0.0-481.0","","img/set2/S4.jpg","74","4","structured_normal","74","random,structured_normal,structured_incentive,structured_load","2,1,2,3,3,4","true","",""
"null","","html-keyboard-response","482","666630","0.0-482.0","","<img src=""img/set2/S4.jpg"" width=""540"" height = ""360"" style=""border:16px solid orange"">","null","","","","","","","",""
"null","","html-keyboard-response","483","666832","0.0-483.0","","","null","","","","","","","",""
"655","","image-keyboard-response","484","667487","0.0-484.0","","img/set2/S3.jpg","68","3","structured_normal","72","random,structured_normal,structured_incentive,structured_load","2,1,2,3,3,4","false","",""
"null","","html-keyboard-response","485","667839","0.0-485.0","","<img src=""img/set2/S3.jpg"" width=""540"" height = ""360"">","null","","","","","","","",""
"null","","html-keyboard-response","486","668041","0.0-486.0","","","null","","","","","","","",""
"466.09999999403954","","image-keyboard-response","487","668508","0.0-487.0","","img/set2/S3.jpg","72","3","structured_normal","72","random,structured_normal,structured_incentive,structured_load","2,1,2,3,3,4","true","",""
"null","","html-keyboard-response","488","668861","0.0-488.0","","<img src=""img/set2/S3.jpg"" width=""540"" height = ""360"" style=""border:16px solid orange"">","null","","","","","","","",""
"null","","html-keyboard-response","489","669062","0.0-489.0","","","null","","","","","","","",""
"465.19999998807907","","image-keyboard-response","490","669528","0.0-490.0","","img/set2/S3.jpg","72","3","structured_normal","72","random,structured_normal,structured_incentive,structured_load","2,1,2,3,3,4","true","",""
"null","","html-keyboard-response","491","669880","0.0-491.0","","<img src=""img/set2/S3.jpg"" width=""540"" height = ""360"" style=""border:16px solid orange"">","null","","","","","","","",""
"null","","html-keyboard-response","492","670082","0.0-492.0","","","null","","","","","","","",""
"778","","image-keyboard-response","493","670861","0.0-493.0","","img/set2/S4.jpg","74","4","structured_normal","74","random,structured_normal,structured_incentive,structured_load","2,1,2,3,3,4","true","",""
"null","","html-keyboard-response","494","671212","0.0-494.0","","<img src=""img/set2/S4.jpg"" width=""540"" height = ""360"" style=""border:16px solid orange"">","null","","","","","","","",""
"null","","html-keyboard-response","495","671413","0.0-495.0","","","null","","","","","","","",""
"586.3000000119209","","image-keyboard-response","496","672000","0.0-496.0","","img/set2/S3.jpg","72","3","structured_normal","72","random,structured_normal,structured_incentive,structured_load","2,1,2,3,3,4","true","",""
"null","","html-keyboard-response","497","672352","0.0-497.0","","<img src=""img/set2/S3.jpg"" width=""540"" height = ""360"" style=""border:16px solid orange"">","null","","","","","","","",""
"null","","html-keyboard-response","498","672553","0.0-498.0","","","null","","","","","","","",""
"455.19999998807907","","image-keyboard-response","499","673009","0.0-499.0","","img/set2/S3.jpg","72","3","structured_normal","72","random,structured_normal,structured_incentive,structured_load","2,1,2,3,3,4","true","",""
"null","","html-keyboard-response","500","673361","0.0-500.0","","<img src=""img/set2/S3.jpg"" width=""540"" height = ""360"" style=""border:16px solid orange"">","null","","","","","","","",""
"null","","html-keyboard-response","501","673562","0.0-501.0","","","null","","","","","","","",""
"782.6000000238419","","image-keyboard-response","502","674346","0.0-502.0","","img/set2/S4.jpg","74","4","structured_normal","74","random,structured_normal,structured_incentive,structured_load","2,1,2,3,3,4","true","",""
"null","","html-keyboard-response","503","674697","0.0-503.0","","<img src=""img/set2/S4.jpg"" width=""540"" height = ""360"" style=""border:16px solid orange"">","null","","","","","","","",""
"null","","html-keyboard-response","504","674898","0.0-504.0","","","null","","","","","","","",""
"542.7999999821186","","image-keyboard-response","505","675441","0.0-505.0","","img/set2/S2.jpg","72","2","structured_normal","68","random,structured_normal,structured_incentive,structured_load","2,1,2,3,3,4","false","",""
"null","","html-keyboard-response","506","675793","0.0-506.0","","<img src=""img/set2/S2.jpg"" width=""540"" height = ""360"">","null","","","","","","","",""
"null","","html-keyboard-response","507","675994","0.0-507.0","","","null","","","","","","","",""
"659.5999999940395","","image-keyboard-response","508","676654","0.0-508.0","","img/set2/S1.jpg","83","1","structured_normal","83","random,structured_normal,structured_incentive,structured_load","2,1,2,3,3,4","true","",""
"null","","html-keyboard-response","509","677007","0.0-509.0","","<img src=""img/set2/S1.jpg"" width=""540"" height = ""360"" style=""border:16px solid orange"">","null","","","","","","","",""
"null","","html-keyboard-response","510","677209","0.0-510.0","","","null","","","","","","","",""
"668.7999999821186","","image-keyboard-response","511","677878","0.0-511.0","","img/set2/S4.jpg","74","4","structured_normal","74","random,structured_normal,structured_incentive,structured_load","2,1,2,3,3,4","true","",""
"null","","html-keyboard-response","512","678230","0.0-512.0","","<img src=""img/set2/S4.jpg"" width=""540"" height = ""360"" style=""border:16px solid orange"">","null","","","","","","","",""
"null","","html-keyboard-response","513","678431","0.0-513.0","","","null","","","","","","","",""
"1066.4000000059605","","image-keyboard-response","514","679498","0.0-514.0","","img/set2/S2.jpg","68","2","structured_normal","68","random,structured_normal,structured_incentive,structured_load","2,1,2,3,3,4","true","",""
"null","","html-keyboard-response","515","679852","0.0-515.0","","<img src=""img/set2/S2.jpg"" width=""540"" height = ""360"" style=""border:16px solid orange"">","null","","","","","","","",""
"null","","html-keyboard-response","516","680072","0.0-516.0","","","null","","","","","","","",""
"703.8000000119209","","image-keyboard-response","517","680777","0.0-517.0","","img/set2/S1.jpg","83","1","structured_normal","83","random,structured_normal,structured_incentive,structured_load","2,1,2,3,3,4","true","",""
"null","","html-keyboard-response","518","681129","0.0-518.0","","<img src=""img/set2/S1.jpg"" width=""540"" height = ""360"" style=""border:16px solid orange"">","null","","","","","","","",""
"null","","html-keyboard-response","519","681333","0.0-519.0","","","null","","","","","","","",""
"589.7000000178814","","image-keyboard-response","520","681924","0.0-520.0","","img/set2/S2.jpg","83","2","structured_normal","68","random,structured_normal,structured_incentive,structured_load","2,1,2,3,3,4","false","",""
"null","","html-keyboard-response","521","682276","0.0-521.0","","<img src=""img/set2/S2.jpg"" width=""540"" height = ""360"">","null","","","","","","","",""
"null","","html-keyboard-response","522","682477","0.0-522.0","","","null","","","","","","","",""
"489.5","","image-keyboard-response","523","682967","0.0-523.0","","img/set2/S1.jpg","83","1","structured_normal","83","random,structured_normal,structured_incentive,structured_load","2,1,2,3,3,4","true","",""
"null","","html-keyboard-response","524","683320","0.0-524.0","","<img src=""img/set2/S1.jpg"" width=""540"" height = ""360"" style=""border:16px solid orange"">","null","","","","","","","",""
"null","","html-keyboard-response","525","683521","0.0-525.0","","","null","","","","","","","",""
"733.6999999880791","","image-keyboard-response","526","684255","0.0-526.0","","img/set2/S4.jpg","74","4","structured_normal","74","random,structured_normal,structured_incentive,structured_load","2,1,2,3,3,4","true","",""
"null","","html-keyboard-response","527","684607","0.0-527.0","","<img src=""img/set2/S4.jpg"" width=""540"" height = ""360"" style=""border:16px solid orange"">","null","","","","","","","",""
"null","","html-keyboard-response","528","684808","0.0-528.0","","","null","","","","","","","",""
"602.7000000178814","","image-keyboard-response","529","685412","0.0-529.0","","img/set2/S3.jpg","72","3","structured_normal","72","random,structured_normal,structured_incentive,structured_load","2,1,2,3,3,4","true","",""
"null","","html-keyboard-response","530","685763","0.0-530.0","","<img src=""img/set2/S3.jpg"" width=""540"" height = ""360"" style=""border:16px solid orange"">","null","","","","","","","",""
"null","","html-keyboard-response","531","685964","0.0-531.0","","","null","","","","","","","",""
"487.19999998807907","","image-keyboard-response","532","686452","0.0-532.0","","img/set2/S3.jpg","72","3","structured_normal","72","random,structured_normal,structured_incentive,structured_load","2,1,2,3,3,4","true","",""
"null","","html-keyboard-response","533","686804","0.0-533.0","","<img src=""img/set2/S3.jpg"" width=""540"" height = ""360"" style=""border:16px solid orange"">","null","","","","","","","",""
"null","","html-keyboard-response","534","687006","0.0-534.0","","","null","","","","","","","",""
"522","","image-keyboard-response","535","687528","0.0-535.0","","img/set2/S3.jpg","72","3","structured_normal","72","random,structured_normal,structured_incentive,structured_load","2,1,2,3,3,4","true","",""
"null","","html-keyboard-response","536","687880","0.0-536.0","","<img src=""img/set2/S3.jpg"" width=""540"" height = ""360"" style=""border:16px solid orange"">","null","","","","","","","",""
"null","","html-keyboard-response","537","688081","0.0-537.0","","","null","","","","","","","",""
"582.9000000059605","","image-keyboard-response","538","688664","0.0-538.0","","img/set2/S4.jpg","74","4","structured_normal","74","random,structured_normal,structured_incentive,structured_load","2,1,2,3,3,4","true","",""
"null","","html-keyboard-response","539","689017","0.0-539.0","","<img src=""img/set2/S4.jpg"" width=""540"" height = ""360"" style=""border:16px solid orange"">","null","","","","","","","",""
"null","","html-keyboard-response","540","689218","0.0-540.0","","","null","","","","","","","",""
"594.5999999940395","","image-keyboard-response","541","689813","0.0-541.0","","img/set2/S4.jpg","74","4","structured_normal","74","random,structured_normal,structured_incentive,structured_load","2,1,2,3,3,4","true","",""
"null","","html-keyboard-response","542","690165","0.0-542.0","","<img src=""img/set2/S4.jpg"" width=""540"" height = ""360"" style=""border:16px solid orange"">","null","","","","","","","",""
"null","","html-keyboard-response","543","690365","0.0-543.0","","","null","","","","","","","",""
"679","","image-keyboard-response","544","691045","0.0-544.0","","img/set2/S3.jpg","72","3","structured_normal","72","random,structured_normal,structured_incentive,structured_load","2,1,2,3,3,4","true","",""
"null","","html-keyboard-response","545","691397","0.0-545.0","","<img src=""img/set2/S3.jpg"" width=""540"" height = ""360"" style=""border:16px solid orange"">","null","","","","","","","",""
"null","","html-keyboard-response","546","691599","0.0-546.0","","","null","","","","","","","",""
"571","","image-keyboard-response","547","692171","0.0-547.0","","img/set2/S3.jpg","72","3","structured_normal","72","random,structured_normal,structured_incentive,structured_load","2,1,2,3,3,4","true","",""
"null","","html-keyboard-response","548","692523","0.0-548.0","","<img src=""img/set2/S3.jpg"" width=""540"" height = ""360"" style=""border:16px solid orange"">","null","","","","","","","",""
"null","","html-keyboard-response","549","692725","0.0-549.0","","","null","","","","","","","",""
"500.5","","image-keyboard-response","550","693226","0.0-550.0","","img/set2/S3.jpg","72","3","structured_normal","72","random,structured_normal,structured_incentive,structured_load","2,1,2,3,3,4","true","",""
"null","","html-keyboard-response","551","693579","0.0-551.0","","<img src=""img/set2/S3.jpg"" width=""540"" height = ""360"" style=""border:16px solid orange"">","null","","","","","","","",""
"null","","html-keyboard-response","552","693780","0.0-552.0","","","null","","","","","","","",""
"521.1999999880791","","image-keyboard-response","553","694302","0.0-553.0","","img/set2/S3.jpg","72","3","structured_normal","72","random,structured_normal,structured_incentive,structured_load","2,1,2,3,3,4","true","",""
"null","","html-keyboard-response","554","694653","0.0-554.0","","<img src=""img/set2/S3.jpg"" width=""540"" height = ""360"" style=""border:16px solid orange"">","null","","","","","","","",""
"null","","html-keyboard-response","555","694855","0.0-555.0","","","null","","","","","","","",""
"816.0999999940395","","image-keyboard-response","556","695672","0.0-556.0","","img/set2/S2.jpg","68","2","structured_normal","68","random,structured_normal,structured_incentive,structured_load","2,1,2,3,3,4","true","",""
"null","","html-keyboard-response","557","696024","0.0-557.0","","<img src=""img/set2/S2.jpg"" width=""540"" height = ""360"" style=""border:16px solid orange"">","null","","","","","","","",""
"null","","html-keyboard-response","558","696226","0.0-558.0","","","null","","","","","","","",""
"528.7999999821186","","image-keyboard-response","559","696755","0.0-559.0","","img/set2/S1.jpg","83","1","structured_normal","83","random,structured_normal,structured_incentive,structured_load","2,1,2,3,3,4","true","",""
"null","","html-keyboard-response","560","697107","0.0-560.0","","<img src=""img/set2/S1.jpg"" width=""540"" height = ""360"" style=""border:16px solid orange"">","null","","","","","","","",""
"null","","html-keyboard-response","561","697308","0.0-561.0","","","null","","","","","","","",""
"734.2999999821186","","image-keyboard-response","562","698043","0.0-562.0","","img/set2/S4.jpg","74","4","structured_normal","74","random,structured_normal,structured_incentive,structured_load","2,1,2,3,3,4","true","",""
"null","","html-keyboard-response","563","698394","0.0-563.0","","<img src=""img/set2/S4.jpg"" width=""540"" height = ""360"" style=""border:16px solid orange"">","null","","","","","","","",""
"null","","html-keyboard-response","564","698595","0.0-564.0","","","null","","","","","","","",""
"528.4000000059605","","image-keyboard-response","565","699125","0.0-565.0","","img/set2/S3.jpg","72","3","structured_normal","72","random,structured_normal,structured_incentive,structured_load","2,1,2,3,3,4","true","",""
"null","","html-keyboard-response","566","699476","0.0-566.0","","<img src=""img/set2/S3.jpg"" width=""540"" height = ""360"" style=""border:16px solid orange"">","null","","","","","","","",""
"null","","html-keyboard-response","567","699677","0.0-567.0","","","null","","","","","","","",""
"538","","image-keyboard-response","568","700216","0.0-568.0","","img/set2/S4.jpg","83","4","structured_normal","74","random,structured_normal,structured_incentive,structured_load","2,1,2,3,3,4","false","",""
"null","","html-keyboard-response","569","700567","0.0-569.0","","<img src=""img/set2/S4.jpg"" width=""540"" height = ""360"">","null","","","","","","","",""
"null","","html-keyboard-response","570","700768","0.0-570.0","","","null","","","","","","","",""
"431.60000002384186","","image-keyboard-response","571","701200","0.0-571.0","","img/set2/S4.jpg","74","4","structured_normal","74","random,structured_normal,structured_incentive,structured_load","2,1,2,3,3,4","true","",""
"null","","html-keyboard-response","572","701552","0.0-572.0","","<img src=""img/set2/S4.jpg"" width=""540"" height = ""360"" style=""border:16px solid orange"">","null","","","","","","","",""
"null","","html-keyboard-response","573","701753","0.0-573.0","","","null","","","","","","","",""
"774.5999999940395","","image-keyboard-response","574","702528","0.0-574.0","","img/set2/S2.jpg","68","2","structured_normal","68","random,structured_normal,structured_incentive,structured_load","2,1,2,3,3,4","true","",""
"null","","html-keyboard-response","575","702879","0.0-575.0","","<img src=""img/set2/S2.jpg"" width=""540"" height = ""360"" style=""border:16px solid orange"">","null","","","","","","","",""
"null","","html-keyboard-response","576","703080","0.0-576.0","","","null","","","","","","","",""
"440","","image-keyboard-response","577","703521","0.0-577.0","","img/set2/S1.jpg","83","1","structured_normal","83","random,structured_normal,structured_incentive,structured_load","2,1,2,3,3,4","true","",""
"null","","html-keyboard-response","578","703872","0.0-578.0","","<img src=""img/set2/S1.jpg"" width=""540"" height = ""360"" style=""border:16px solid orange"">","null","","","","","","","",""
"null","","html-keyboard-response","579","704074","0.0-579.0","","","null","","","","","","","",""
"655","","image-keyboard-response","580","704729","0.0-580.0","","img/set2/S2.jpg","72","2","structured_normal","68","random,structured_normal,structured_incentive,structured_load","2,1,2,3,3,4","false","",""
"null","","html-keyboard-response","581","705081","0.0-581.0","","<img src=""img/set2/S2.jpg"" width=""540"" height = ""360"">","null","","","","","","","",""
"null","","html-keyboard-response","582","705282","0.0-582.0","","","null","","","","","","","",""
"666.4000000059605","","image-keyboard-response","583","705949","0.0-583.0","","img/set2/S1.jpg","83","1","structured_normal","83","random,structured_normal,structured_incentive,structured_load","2,1,2,3,3,4","true","",""
"null","","html-keyboard-response","584","706301","0.0-584.0","","<img src=""img/set2/S1.jpg"" width=""540"" height = ""360"" style=""border:16px solid orange"">","null","","","","","","","",""
"null","","html-keyboard-response","585","706501","0.0-585.0","","","null","","","","","","","",""
"568.1999999880791","","image-keyboard-response","586","707070","0.0-586.0","","img/set2/S3.jpg","72","3","structured_normal","72","random,structured_normal,structured_incentive,structured_load","2,1,2,3,3,4","true","",""
"null","","html-keyboard-response","587","707422","0.0-587.0","","<img src=""img/set2/S3.jpg"" width=""540"" height = ""360"" style=""border:16px solid orange"">","null","","","","","","","",""
"null","","html-keyboard-response","588","707622","0.0-588.0","","","null","","","","","","","",""
"667.0999999940395","","image-keyboard-response","589","708290","0.0-589.0","","img/set2/S4.jpg","74","4","structured_normal","74","random,structured_normal,structured_incentive,structured_load","2,1,2,3,3,4","true","",""
"null","","html-keyboard-response","590","708642","0.0-590.0","","<img src=""img/set2/S4.jpg"" width=""540"" height = ""360"" style=""border:16px solid orange"">","null","","","","","","","",""
"null","","html-keyboard-response","591","708843","0.0-591.0","","","null","","","","","","","",""
"622.2999999821186","","image-keyboard-response","592","709466","0.0-592.0","","img/set2/S2.jpg","68","2","structured_normal","68","random,structured_normal,structured_incentive,structured_load","2,1,2,3,3,4","true","",""
"null","","html-keyboard-response","593","709819","0.0-593.0","","<img src=""img/set2/S2.jpg"" width=""540"" height = ""360"" style=""border:16px solid orange"">","null","","","","","","","",""
"null","","html-keyboard-response","594","710020","0.0-594.0","","","null","","","","","","","",""
"641.1999999880791","","image-keyboard-response","595","710662","0.0-595.0","","img/set2/S1.jpg","83","1","structured_normal","83","random,structured_normal,structured_incentive,structured_load","2,1,2,3,3,4","true","",""
"null","","html-keyboard-response","596","711071","0.0-596.0","","<img src=""img/set2/S1.jpg"" width=""540"" height = ""360"" style=""border:16px solid orange"">","null","","","","","","","",""
"null","","html-keyboard-response","597","711275","0.0-597.0","","","null","","","","","","","",""
"527","","image-keyboard-response","598","711802","0.0-598.0","","img/set2/S2.jpg","68","2","structured_normal","68","random,structured_normal,structured_incentive,structured_load","2,1,2,3,3,4","true","",""
