"rt","url","trial_type","trial_index","time_elapsed","internal_node_id","assignmentID","mturkID","hitID","view_history","stimulus","key_press","state","test_part","correct_response","order_block","order_chunk","order_freq","correct","responses","question_order","bonus"
"3690","consent.html","external-html","0","3804","0.0-0.0","3DR23U6WE60BLQTW4OR7USTIJQ3TE2","A2WWYVKGZZXBOB","3WUVMVA7OBP2V5NP3991VE8MBDEZA7","","","","","","","","","","","","",""
"37279","","instructions","1","41089","0.0-1.0","3DR23U6WE60BLQTW4OR7USTIJQ3TE2","A2WWYVKGZZXBOB","3WUVMVA7OBP2V5NP3991VE8MBDEZA7","[{""page_index"":0,""viewing_time"":3759},{""page_index"":1,""viewing_time"":4423},{""page_index"":2,""viewing_time"":3533},{""page_index"":3,""viewing_time"":6552},{""page_index"":4,""viewing_time"":5748},{""page_index"":5,""viewing_time"":4617},{""page_index"":6,""viewing_time"":8647}]","","","","","","","","","","","",""
"5304","","instructions","2","46398","0.0-2.0","3DR23U6WE60BLQTW4OR7USTIJQ3TE2","A2WWYVKGZZXBOB","3WUVMVA7OBP2V5NP3991VE8MBDEZA7","[{""page_index"":0,""viewing_time"":5304}]","","","","","","","","","","","",""
"2554","","instructions","3","48952","0.0-3.0","3DR23U6WE60BLQTW4OR7USTIJQ3TE2","A2WWYVKGZZXBOB","3WUVMVA7OBP2V5NP3991VE8MBDEZA7","[{""page_index"":0,""viewing_time"":2553}]","","","","","","","","","","","",""
"null","","image-keyboard-response","4","51457","0.0-4.0","3DR23U6WE60BLQTW4OR7USTIJQ3TE2","A2WWYVKGZZXBOB","3WUVMVA7OBP2V5NP3991VE8MBDEZA7","","img/set1/S1.jpg","null","1","structured_normal","83","structured_normal,structured_load,structured_incentive,random","4,2,2,3,1,2","3,1,2,4","false","","",""
"null","","html-keyboard-response","5","51817","0.0-5.0","3DR23U6WE60BLQTW4OR7USTIJQ3TE2","A2WWYVKGZZXBOB","3WUVMVA7OBP2V5NP3991VE8MBDEZA7","","<img src=""img/set1/S1.jpg"" width=""540"" height = ""360"">","null","","","","","","","","","",""
"null","","html-keyboard-response","6","52027","0.0-6.0","3DR23U6WE60BLQTW4OR7USTIJQ3TE2","A2WWYVKGZZXBOB","3WUVMVA7OBP2V5NP3991VE8MBDEZA7","","","null","","","","","","","","","",""
"2023","","image-keyboard-response","7","54050","0.0-7.0","3DR23U6WE60BLQTW4OR7USTIJQ3TE2","A2WWYVKGZZXBOB","3WUVMVA7OBP2V5NP3991VE8MBDEZA7","","img/set1/S3.jpg","83","3","structured_normal","72","structured_normal,structured_load,structured_incentive,random","4,2,2,3,1,2","3,1,2,4","false","","",""
"null","","html-keyboard-response","8","54408","0.0-8.0","3DR23U6WE60BLQTW4OR7USTIJQ3TE2","A2WWYVKGZZXBOB","3WUVMVA7OBP2V5NP3991VE8MBDEZA7","","<img src=""img/set1/S3.jpg"" width=""540"" height = ""360"">","null","","","","","","","","","",""
"null","","html-keyboard-response","9","54618","0.0-9.0","3DR23U6WE60BLQTW4OR7USTIJQ3TE2","A2WWYVKGZZXBOB","3WUVMVA7OBP2V5NP3991VE8MBDEZA7","","","null","","","","","","","","","",""
"191","","image-keyboard-response","10","54812","0.0-10.0","3DR23U6WE60BLQTW4OR7USTIJQ3TE2","A2WWYVKGZZXBOB","3WUVMVA7OBP2V5NP3991VE8MBDEZA7","","img/set1/S3.jpg","74","3","structured_normal","72","structured_normal,structured_load,structured_incentive,random","4,2,2,3,1,2","3,1,2,4","false","","",""
"null","","html-keyboard-response","11","55168","0.0-11.0","3DR23U6WE60BLQTW4OR7USTIJQ3TE2","A2WWYVKGZZXBOB","3WUVMVA7OBP2V5NP3991VE8MBDEZA7","","<img src=""img/set1/S3.jpg"" width=""540"" height = ""360"">","null","","","","","","","","","",""
"null","","html-keyboard-response","12","55379","0.0-12.0","3DR23U6WE60BLQTW4OR7USTIJQ3TE2","A2WWYVKGZZXBOB","3WUVMVA7OBP2V5NP3991VE8MBDEZA7","","","null","","","","","","","","","",""
"525","","image-keyboard-response","13","55906","0.0-13.0","3DR23U6WE60BLQTW4OR7USTIJQ3TE2","A2WWYVKGZZXBOB","3WUVMVA7OBP2V5NP3991VE8MBDEZA7","","img/set1/S4.jpg","74","4","structured_normal","74","structured_normal,structured_load,structured_incentive,random","4,2,2,3,1,2","3,1,2,4","true","","",""
"null","","html-keyboard-response","14","56263","0.0-14.0","3DR23U6WE60BLQTW4OR7USTIJQ3TE2","A2WWYVKGZZXBOB","3WUVMVA7OBP2V5NP3991VE8MBDEZA7","","<img src=""img/set1/S4.jpg"" width=""540"" height = ""360"" style=""border:16px solid orange"">","null","","","","","","","","","",""
"null","","html-keyboard-response","15","56472","0.0-15.0","3DR23U6WE60BLQTW4OR7USTIJQ3TE2","A2WWYVKGZZXBOB","3WUVMVA7OBP2V5NP3991VE8MBDEZA7","","","null","","","","","","","","","",""
"335","","image-keyboard-response","16","56808","0.0-16.0","3DR23U6WE60BLQTW4OR7USTIJQ3TE2","A2WWYVKGZZXBOB","3WUVMVA7OBP2V5NP3991VE8MBDEZA7","","img/set1/S2.jpg","68","2","structured_normal","68","structured_normal,structured_load,structured_incentive,random","4,2,2,3,1,2","3,1,2,4","true","","",""
"null","","html-keyboard-response","17","57163","0.0-17.0","3DR23U6WE60BLQTW4OR7USTIJQ3TE2","A2WWYVKGZZXBOB","3WUVMVA7OBP2V5NP3991VE8MBDEZA7","","<img src=""img/set1/S2.jpg"" width=""540"" height = ""360"" style=""border:16px solid orange"">","null","","","","","","","","","",""
"null","","html-keyboard-response","18","57373","0.0-18.0","3DR23U6WE60BLQTW4OR7USTIJQ3TE2","A2WWYVKGZZXBOB","3WUVMVA7OBP2V5NP3991VE8MBDEZA7","","","null","","","","","","","","","",""
"227","","image-keyboard-response","19","57602","0.0-19.0","3DR23U6WE60BLQTW4OR7USTIJQ3TE2","A2WWYVKGZZXBOB","3WUVMVA7OBP2V5NP3991VE8MBDEZA7","","img/set1/S1.jpg","68","1","structured_normal","83","structured_normal,structured_load,structured_incentive,random","4,2,2,3,1,2","3,1,2,4","false","","",""
"null","","html-keyboard-response","20","57964","0.0-20.0","3DR23U6WE60BLQTW4OR7USTIJQ3TE2","A2WWYVKGZZXBOB","3WUVMVA7OBP2V5NP3991VE8MBDEZA7","","<img src=""img/set1/S1.jpg"" width=""540"" height = ""360"">","null","","","","","","","","","",""
"null","","html-keyboard-response","21","58181","0.0-21.0","3DR23U6WE60BLQTW4OR7USTIJQ3TE2","A2WWYVKGZZXBOB","3WUVMVA7OBP2V5NP3991VE8MBDEZA7","","","null","","","","","","","","","",""
"282","","image-keyboard-response","22","58465","0.0-22.0","3DR23U6WE60BLQTW4OR7USTIJQ3TE2","A2WWYVKGZZXBOB","3WUVMVA7OBP2V5NP3991VE8MBDEZA7","","img/set1/S4.jpg","83","4","structured_normal","74","structured_normal,structured_load,structured_incentive,random","4,2,2,3,1,2","3,1,2,4","false","","",""
"null","","html-keyboard-response","23","58818","0.0-23.0","3DR23U6WE60BLQTW4OR7USTIJQ3TE2","A2WWYVKGZZXBOB","3WUVMVA7OBP2V5NP3991VE8MBDEZA7","","<img src=""img/set1/S4.jpg"" width=""540"" height = ""360"">","null","","","","","","","","","",""
"null","","html-keyboard-response","24","59019","0.0-24.0","3DR23U6WE60BLQTW4OR7USTIJQ3TE2","A2WWYVKGZZXBOB","3WUVMVA7OBP2V5NP3991VE8MBDEZA7","","","null","","","","","","","","","",""
"955","","image-keyboard-response","25","59976","0.0-25.0","3DR23U6WE60BLQTW4OR7USTIJQ3TE2","A2WWYVKGZZXBOB","3WUVMVA7OBP2V5NP3991VE8MBDEZA7","","img/set1/S2.jpg","74","2","structured_normal","68","structured_normal,structured_load,structured_incentive,random","4,2,2,3,1,2","3,1,2,4","false","","",""
"null","","html-keyboard-response","26","60328","0.0-26.0","3DR23U6WE60BLQTW4OR7USTIJQ3TE2","A2WWYVKGZZXBOB","3WUVMVA7OBP2V5NP3991VE8MBDEZA7","","<img src=""img/set1/S2.jpg"" width=""540"" height = ""360"">","null","","","","","","","","","",""
"null","","html-keyboard-response","27","60540","0.0-27.0","3DR23U6WE60BLQTW4OR7USTIJQ3TE2","A2WWYVKGZZXBOB","3WUVMVA7OBP2V5NP3991VE8MBDEZA7","","","null","","","","","","","","","",""
"580","","image-keyboard-response","28","61122","0.0-28.0","3DR23U6WE60BLQTW4OR7USTIJQ3TE2","A2WWYVKGZZXBOB","3WUVMVA7OBP2V5NP3991VE8MBDEZA7","","img/set1/S3.jpg","68","3","structured_normal","72","structured_normal,structured_load,structured_incentive,random","4,2,2,3,1,2","3,1,2,4","false","","",""
"null","","html-keyboard-response","29","61475","0.0-29.0","3DR23U6WE60BLQTW4OR7USTIJQ3TE2","A2WWYVKGZZXBOB","3WUVMVA7OBP2V5NP3991VE8MBDEZA7","","<img src=""img/set1/S3.jpg"" width=""540"" height = ""360"">","null","","","","","","","","","",""
"null","","html-keyboard-response","30","61683","0.0-30.0","3DR23U6WE60BLQTW4OR7USTIJQ3TE2","A2WWYVKGZZXBOB","3WUVMVA7OBP2V5NP3991VE8MBDEZA7","","","null","","","","","","","","","",""
"29","","image-keyboard-response","31","61713","0.0-31.0","3DR23U6WE60BLQTW4OR7USTIJQ3TE2","A2WWYVKGZZXBOB","3WUVMVA7OBP2V5NP3991VE8MBDEZA7","","img/set1/S1.jpg","83","1","structured_normal","83","structured_normal,structured_load,structured_incentive,random","4,2,2,3,1,2","3,1,2,4","true","","",""
"null","","html-keyboard-response","32","62072","0.0-32.0","3DR23U6WE60BLQTW4OR7USTIJQ3TE2","A2WWYVKGZZXBOB","3WUVMVA7OBP2V5NP3991VE8MBDEZA7","","<img src=""img/set1/S1.jpg"" width=""540"" height = ""360"" style=""border:16px solid orange"">","null","","","","","","","","","",""
"null","","html-keyboard-response","33","62283","0.0-33.0","3DR23U6WE60BLQTW4OR7USTIJQ3TE2","A2WWYVKGZZXBOB","3WUVMVA7OBP2V5NP3991VE8MBDEZA7","","","null","","","","","","","","","",""
"244","","image-keyboard-response","34","62528","0.0-34.0","3DR23U6WE60BLQTW4OR7USTIJQ3TE2","A2WWYVKGZZXBOB","3WUVMVA7OBP2V5NP3991VE8MBDEZA7","","img/set1/S3.jpg","83","3","structured_normal","72","structured_normal,structured_load,structured_incentive,random","4,2,2,3,1,2","3,1,2,4","false","","",""
"null","","html-keyboard-response","35","62889","0.0-35.0","3DR23U6WE60BLQTW4OR7USTIJQ3TE2","A2WWYVKGZZXBOB","3WUVMVA7OBP2V5NP3991VE8MBDEZA7","","<img src=""img/set1/S3.jpg"" width=""540"" height = ""360"">","null","","","","","","","","","",""
"null","","html-keyboard-response","36","63095","0.0-36.0","3DR23U6WE60BLQTW4OR7USTIJQ3TE2","A2WWYVKGZZXBOB","3WUVMVA7OBP2V5NP3991VE8MBDEZA7","","","null","","","","","","","","","",""
"425","","image-keyboard-response","37","63521","0.0-37.0","3DR23U6WE60BLQTW4OR7USTIJQ3TE2","A2WWYVKGZZXBOB","3WUVMVA7OBP2V5NP3991VE8MBDEZA7","","img/set1/S4.jpg","68","4","structured_normal","74","structured_normal,structured_load,structured_incentive,random","4,2,2,3,1,2","3,1,2,4","false","","",""
"null","","html-keyboard-response","38","63879","0.0-38.0","3DR23U6WE60BLQTW4OR7USTIJQ3TE2","A2WWYVKGZZXBOB","3WUVMVA7OBP2V5NP3991VE8MBDEZA7","","<img src=""img/set1/S4.jpg"" width=""540"" height = ""360"">","null","","","","","","","","","",""
"null","","html-keyboard-response","39","64087","0.0-39.0","3DR23U6WE60BLQTW4OR7USTIJQ3TE2","A2WWYVKGZZXBOB","3WUVMVA7OBP2V5NP3991VE8MBDEZA7","","","null","","","","","","","","","",""
"784","","image-keyboard-response","40","64873","0.0-40.0","3DR23U6WE60BLQTW4OR7USTIJQ3TE2","A2WWYVKGZZXBOB","3WUVMVA7OBP2V5NP3991VE8MBDEZA7","","img/set1/S2.jpg","74","2","structured_normal","68","structured_normal,structured_load,structured_incentive,random","4,2,2,3,1,2","3,1,2,4","false","","",""
"null","","html-keyboard-response","41","65229","0.0-41.0","3DR23U6WE60BLQTW4OR7USTIJQ3TE2","A2WWYVKGZZXBOB","3WUVMVA7OBP2V5NP3991VE8MBDEZA7","","<img src=""img/set1/S2.jpg"" width=""540"" height = ""360"">","null","","","","","","","","","",""
"null","","html-keyboard-response","42","65430","0.0-42.0","3DR23U6WE60BLQTW4OR7USTIJQ3TE2","A2WWYVKGZZXBOB","3WUVMVA7OBP2V5NP3991VE8MBDEZA7","","","null","","","","","","","","","",""
"685","","image-keyboard-response","43","66117","0.0-43.0","3DR23U6WE60BLQTW4OR7USTIJQ3TE2","A2WWYVKGZZXBOB","3WUVMVA7OBP2V5NP3991VE8MBDEZA7","","img/set1/S3.jpg","68","3","structured_normal","72","structured_normal,structured_load,structured_incentive,random","4,2,2,3,1,2","3,1,2,4","false","","",""
"null","","html-keyboard-response","44","66471","0.0-44.0","3DR23U6WE60BLQTW4OR7USTIJQ3TE2","A2WWYVKGZZXBOB","3WUVMVA7OBP2V5NP3991VE8MBDEZA7","","<img src=""img/set1/S3.jpg"" width=""540"" height = ""360"">","null","","","","","","","","","",""
"null","","html-keyboard-response","45","66681","0.0-45.0","3DR23U6WE60BLQTW4OR7USTIJQ3TE2","A2WWYVKGZZXBOB","3WUVMVA7OBP2V5NP3991VE8MBDEZA7","","","null","","","","","","","","","",""
"1063","","image-keyboard-response","46","67746","0.0-46.0","3DR23U6WE60BLQTW4OR7USTIJQ3TE2","A2WWYVKGZZXBOB","3WUVMVA7OBP2V5NP3991VE8MBDEZA7","","img/set1/S4.jpg","74","4","structured_normal","74","structured_normal,structured_load,structured_incentive,random","4,2,2,3,1,2","3,1,2,4","true","","",""
"null","","html-keyboard-response","47","68105","0.0-47.0","3DR23U6WE60BLQTW4OR7USTIJQ3TE2","A2WWYVKGZZXBOB","3WUVMVA7OBP2V5NP3991VE8MBDEZA7","","<img src=""img/set1/S4.jpg"" width=""540"" height = ""360"" style=""border:16px solid orange"">","null","","","","","","","","","",""
"null","","html-keyboard-response","48","68308","0.0-48.0","3DR23U6WE60BLQTW4OR7USTIJQ3TE2","A2WWYVKGZZXBOB","3WUVMVA7OBP2V5NP3991VE8MBDEZA7","","","null","","","","","","","","","",""
"491","","image-keyboard-response","49","68802","0.0-49.0","3DR23U6WE60BLQTW4OR7USTIJQ3TE2","A2WWYVKGZZXBOB","3WUVMVA7OBP2V5NP3991VE8MBDEZA7","","img/set1/S2.jpg","74","2","structured_normal","68","structured_normal,structured_load,structured_incentive,random","4,2,2,3,1,2","3,1,2,4","false","","",""
"null","","html-keyboard-response","50","69155","0.0-50.0","3DR23U6WE60BLQTW4OR7USTIJQ3TE2","A2WWYVKGZZXBOB","3WUVMVA7OBP2V5NP3991VE8MBDEZA7","","<img src=""img/set1/S2.jpg"" width=""540"" height = ""360"">","null","","","","","","","","","",""
"null","","html-keyboard-response","51","69367","0.0-51.0","3DR23U6WE60BLQTW4OR7USTIJQ3TE2","A2WWYVKGZZXBOB","3WUVMVA7OBP2V5NP3991VE8MBDEZA7","","","null","","","","","","","","","",""
"936","","image-keyboard-response","52","70306","0.0-52.0","3DR23U6WE60BLQTW4OR7USTIJQ3TE2","A2WWYVKGZZXBOB","3WUVMVA7OBP2V5NP3991VE8MBDEZA7","","img/set1/S4.jpg","72","4","structured_normal","74","structured_normal,structured_load,structured_incentive,random","4,2,2,3,1,2","3,1,2,4","false","","",""
"null","","html-keyboard-response","53","70668","0.0-53.0","3DR23U6WE60BLQTW4OR7USTIJQ3TE2","A2WWYVKGZZXBOB","3WUVMVA7OBP2V5NP3991VE8MBDEZA7","","<img src=""img/set1/S4.jpg"" width=""540"" height = ""360"">","null","","","","","","","","","",""
"null","","html-keyboard-response","54","70877","0.0-54.0","3DR23U6WE60BLQTW4OR7USTIJQ3TE2","A2WWYVKGZZXBOB","3WUVMVA7OBP2V5NP3991VE8MBDEZA7","","","null","","","","","","","","","",""
"233","","image-keyboard-response","55","71113","0.0-55.0","3DR23U6WE60BLQTW4OR7USTIJQ3TE2","A2WWYVKGZZXBOB","3WUVMVA7OBP2V5NP3991VE8MBDEZA7","","img/set1/S2.jpg","72","2","structured_normal","68","structured_normal,structured_load,structured_incentive,random","4,2,2,3,1,2","3,1,2,4","false","","",""
"null","","html-keyboard-response","56","71468","0.0-56.0","3DR23U6WE60BLQTW4OR7USTIJQ3TE2","A2WWYVKGZZXBOB","3WUVMVA7OBP2V5NP3991VE8MBDEZA7","","<img src=""img/set1/S2.jpg"" width=""540"" height = ""360"">","null","","","","","","","","","",""
"null","","html-keyboard-response","57","71678","0.0-57.0","3DR23U6WE60BLQTW4OR7USTIJQ3TE2","A2WWYVKGZZXBOB","3WUVMVA7OBP2V5NP3991VE8MBDEZA7","","","null","","","","","","","","","",""
"233","","image-keyboard-response","58","71913","0.0-58.0","3DR23U6WE60BLQTW4OR7USTIJQ3TE2","A2WWYVKGZZXBOB","3WUVMVA7OBP2V5NP3991VE8MBDEZA7","","img/set1/S1.jpg","83","1","structured_normal","83","structured_normal,structured_load,structured_incentive,random","4,2,2,3,1,2","3,1,2,4","true","","",""
"null","","html-keyboard-response","59","72269","0.0-59.0","3DR23U6WE60BLQTW4OR7USTIJQ3TE2","A2WWYVKGZZXBOB","3WUVMVA7OBP2V5NP3991VE8MBDEZA7","","<img src=""img/set1/S1.jpg"" width=""540"" height = ""360"" style=""border:16px solid orange"">","null","","","","","","","","","",""
"null","","html-keyboard-response","60","72479","0.0-60.0","3DR23U6WE60BLQTW4OR7USTIJQ3TE2","A2WWYVKGZZXBOB","3WUVMVA7OBP2V5NP3991VE8MBDEZA7","","","null","","","","","","","","","",""
"152","","image-keyboard-response","61","72633","0.0-61.0","3DR23U6WE60BLQTW4OR7USTIJQ3TE2","A2WWYVKGZZXBOB","3WUVMVA7OBP2V5NP3991VE8MBDEZA7","","img/set1/S1.jpg","83","1","structured_normal","83","structured_normal,structured_load,structured_incentive,random","4,2,2,3,1,2","3,1,2,4","true","","",""
"null","","html-keyboard-response","62","72989","0.0-62.0","3DR23U6WE60BLQTW4OR7USTIJQ3TE2","A2WWYVKGZZXBOB","3WUVMVA7OBP2V5NP3991VE8MBDEZA7","","<img src=""img/set1/S1.jpg"" width=""540"" height = ""360"" style=""border:16px solid orange"">","null","","","","","","","","","",""
"null","","html-keyboard-response","63","73200","0.0-63.0","3DR23U6WE60BLQTW4OR7USTIJQ3TE2","A2WWYVKGZZXBOB","3WUVMVA7OBP2V5NP3991VE8MBDEZA7","","","null","","","","","","","","","",""
"600","","image-keyboard-response","64","73801","0.0-64.0","3DR23U6WE60BLQTW4OR7USTIJQ3TE2","A2WWYVKGZZXBOB","3WUVMVA7OBP2V5NP3991VE8MBDEZA7","","img/set1/S4.jpg","68","4","structured_normal","74","structured_normal,structured_load,structured_incentive,random","4,2,2,3,1,2","3,1,2,4","false","","",""
"null","","html-keyboard-response","65","74159","0.0-65.0","3DR23U6WE60BLQTW4OR7USTIJQ3TE2","A2WWYVKGZZXBOB","3WUVMVA7OBP2V5NP3991VE8MBDEZA7","","<img src=""img/set1/S4.jpg"" width=""540"" height = ""360"">","null","","","","","","","","","",""
"null","","html-keyboard-response","66","74369","0.0-66.0","3DR23U6WE60BLQTW4OR7USTIJQ3TE2","A2WWYVKGZZXBOB","3WUVMVA7OBP2V5NP3991VE8MBDEZA7","","","null","","","","","","","","","",""
"494","","image-keyboard-response","67","74866","0.0-67.0","3DR23U6WE60BLQTW4OR7USTIJQ3TE2","A2WWYVKGZZXBOB","3WUVMVA7OBP2V5NP3991VE8MBDEZA7","","img/set1/S2.jpg","72","2","structured_normal","68","structured_normal,structured_load,structured_incentive,random","4,2,2,3,1,2","3,1,2,4","false","","",""
"null","","html-keyboard-response","68","75219","0.0-68.0","3DR23U6WE60BLQTW4OR7USTIJQ3TE2","A2WWYVKGZZXBOB","3WUVMVA7OBP2V5NP3991VE8MBDEZA7","","<img src=""img/set1/S2.jpg"" width=""540"" height = ""360"">","null","","","","","","","","","",""
"null","","html-keyboard-response","69","75428","0.0-69.0","3DR23U6WE60BLQTW4OR7USTIJQ3TE2","A2WWYVKGZZXBOB","3WUVMVA7OBP2V5NP3991VE8MBDEZA7","","","null","","","","","","","","","",""
"412","","image-keyboard-response","70","75843","0.0-70.0","3DR23U6WE60BLQTW4OR7USTIJQ3TE2","A2WWYVKGZZXBOB","3WUVMVA7OBP2V5NP3991VE8MBDEZA7","","img/set1/S2.jpg","74","2","structured_normal","68","structured_normal,structured_load,structured_incentive,random","4,2,2,3,1,2","3,1,2,4","false","","",""
"null","","html-keyboard-response","71","76205","0.0-71.0","3DR23U6WE60BLQTW4OR7USTIJQ3TE2","A2WWYVKGZZXBOB","3WUVMVA7OBP2V5NP3991VE8MBDEZA7","","<img src=""img/set1/S2.jpg"" width=""540"" height = ""360"">","null","","","","","","","","","",""
"null","","html-keyboard-response","72","76413","0.0-72.0","3DR23U6WE60BLQTW4OR7USTIJQ3TE2","A2WWYVKGZZXBOB","3WUVMVA7OBP2V5NP3991VE8MBDEZA7","","","null","","","","","","","","","",""
"337","","image-keyboard-response","73","76752","0.0-73.0","3DR23U6WE60BLQTW4OR7USTIJQ3TE2","A2WWYVKGZZXBOB","3WUVMVA7OBP2V5NP3991VE8MBDEZA7","","img/set1/S1.jpg","68","1","structured_normal","83","structured_normal,structured_load,structured_incentive,random","4,2,2,3,1,2","3,1,2,4","false","","",""
"null","","html-keyboard-response","74","77113","0.0-74.0","3DR23U6WE60BLQTW4OR7USTIJQ3TE2","A2WWYVKGZZXBOB","3WUVMVA7OBP2V5NP3991VE8MBDEZA7","","<img src=""img/set1/S1.jpg"" width=""540"" height = ""360"">","null","","","","","","","","","",""
"null","","html-keyboard-response","75","77323","0.0-75.0","3DR23U6WE60BLQTW4OR7USTIJQ3TE2","A2WWYVKGZZXBOB","3WUVMVA7OBP2V5NP3991VE8MBDEZA7","","","null","","","","","","","","","",""
"596","","image-keyboard-response","76","77920","0.0-76.0","3DR23U6WE60BLQTW4OR7USTIJQ3TE2","A2WWYVKGZZXBOB","3WUVMVA7OBP2V5NP3991VE8MBDEZA7","","img/set1/S4.jpg","83","4","structured_normal","74","structured_normal,structured_load,structured_incentive,random","4,2,2,3,1,2","3,1,2,4","false","","",""
"null","","html-keyboard-response","77","78274","0.0-77.0","3DR23U6WE60BLQTW4OR7USTIJQ3TE2","A2WWYVKGZZXBOB","3WUVMVA7OBP2V5NP3991VE8MBDEZA7","","<img src=""img/set1/S4.jpg"" width=""540"" height = ""360"">","null","","","","","","","","","",""
"null","","html-keyboard-response","78","78484","0.0-78.0","3DR23U6WE60BLQTW4OR7USTIJQ3TE2","A2WWYVKGZZXBOB","3WUVMVA7OBP2V5NP3991VE8MBDEZA7","","","null","","","","","","","","","",""
"28","","image-keyboard-response","79","78512","0.0-79.0","3DR23U6WE60BLQTW4OR7USTIJQ3TE2","A2WWYVKGZZXBOB","3WUVMVA7OBP2V5NP3991VE8MBDEZA7","","img/set1/S3.jpg","72","3","structured_normal","72","structured_normal,structured_load,structured_incentive,random","4,2,2,3,1,2","3,1,2,4","true","","",""
"null","","html-keyboard-response","80","78866","0.0-80.0","3DR23U6WE60BLQTW4OR7USTIJQ3TE2","A2WWYVKGZZXBOB","3WUVMVA7OBP2V5NP3991VE8MBDEZA7","","<img src=""img/set1/S3.jpg"" width=""540"" height = ""360"" style=""border:16px solid orange"">","null","","","","","","","","","",""
"null","","html-keyboard-response","81","79076","0.0-81.0","3DR23U6WE60BLQTW4OR7USTIJQ3TE2","A2WWYVKGZZXBOB","3WUVMVA7OBP2V5NP3991VE8MBDEZA7","","","null","","","","","","","","","",""
"329","","image-keyboard-response","82","79408","0.0-82.0","3DR23U6WE60BLQTW4OR7USTIJQ3TE2","A2WWYVKGZZXBOB","3WUVMVA7OBP2V5NP3991VE8MBDEZA7","","img/set1/S4.jpg","68","4","structured_normal","74","structured_normal,structured_load,structured_incentive,random","4,2,2,3,1,2","3,1,2,4","false","","",""
"null","","html-keyboard-response","83","79767","0.0-83.0","3DR23U6WE60BLQTW4OR7USTIJQ3TE2","A2WWYVKGZZXBOB","3WUVMVA7OBP2V5NP3991VE8MBDEZA7","","<img src=""img/set1/S4.jpg"" width=""540"" height = ""360"">","null","","","","","","","","","",""
"null","","html-keyboard-response","84","79976","0.0-84.0","3DR23U6WE60BLQTW4OR7USTIJQ3TE2","A2WWYVKGZZXBOB","3WUVMVA7OBP2V5NP3991VE8MBDEZA7","","","null","","","","","","","","","",""
"128","","image-keyboard-response","85","80104","0.0-85.0","3DR23U6WE60BLQTW4OR7USTIJQ3TE2","A2WWYVKGZZXBOB","3WUVMVA7OBP2V5NP3991VE8MBDEZA7","","img/set1/S2.jpg","72","2","structured_normal","68","structured_normal,structured_load,structured_incentive,random","4,2,2,3,1,2","3,1,2,4","false","","",""
"null","","html-keyboard-response","86","80456","0.0-86.0","3DR23U6WE60BLQTW4OR7USTIJQ3TE2","A2WWYVKGZZXBOB","3WUVMVA7OBP2V5NP3991VE8MBDEZA7","","<img src=""img/set1/S2.jpg"" width=""540"" height = ""360"">","null","","","","","","","","","",""
"null","","html-keyboard-response","87","80668","0.0-87.0","3DR23U6WE60BLQTW4OR7USTIJQ3TE2","A2WWYVKGZZXBOB","3WUVMVA7OBP2V5NP3991VE8MBDEZA7","","","null","","","","","","","","","",""
"210","","image-keyboard-response","88","80881","0.0-88.0","3DR23U6WE60BLQTW4OR7USTIJQ3TE2","A2WWYVKGZZXBOB","3WUVMVA7OBP2V5NP3991VE8MBDEZA7","","img/set1/S4.jpg","83","4","structured_normal","74","structured_normal,structured_load,structured_incentive,random","4,2,2,3,1,2","3,1,2,4","false","","",""
"null","","html-keyboard-response","89","81237","0.0-89.0","3DR23U6WE60BLQTW4OR7USTIJQ3TE2","A2WWYVKGZZXBOB","3WUVMVA7OBP2V5NP3991VE8MBDEZA7","","<img src=""img/set1/S4.jpg"" width=""540"" height = ""360"">","null","","","","","","","","","",""
"null","","html-keyboard-response","90","81448","0.0-90.0","3DR23U6WE60BLQTW4OR7USTIJQ3TE2","A2WWYVKGZZXBOB","3WUVMVA7OBP2V5NP3991VE8MBDEZA7","","","null","","","","","","","","","",""
"303","","image-keyboard-response","91","81752","0.0-91.0","3DR23U6WE60BLQTW4OR7USTIJQ3TE2","A2WWYVKGZZXBOB","3WUVMVA7OBP2V5NP3991VE8MBDEZA7","","img/set1/S3.jpg","83","3","structured_normal","72","structured_normal,structured_load,structured_incentive,random","4,2,2,3,1,2","3,1,2,4","false","","",""
"null","","html-keyboard-response","92","82112","0.0-92.0","3DR23U6WE60BLQTW4OR7USTIJQ3TE2","A2WWYVKGZZXBOB","3WUVMVA7OBP2V5NP3991VE8MBDEZA7","","<img src=""img/set1/S3.jpg"" width=""540"" height = ""360"">","null","","","","","","","","","",""
"null","","html-keyboard-response","93","82322","0.0-93.0","3DR23U6WE60BLQTW4OR7USTIJQ3TE2","A2WWYVKGZZXBOB","3WUVMVA7OBP2V5NP3991VE8MBDEZA7","","","null","","","","","","","","","",""
"502","","image-keyboard-response","94","82824","0.0-94.0","3DR23U6WE60BLQTW4OR7USTIJQ3TE2","A2WWYVKGZZXBOB","3WUVMVA7OBP2V5NP3991VE8MBDEZA7","","img/set1/S1.jpg","68","1","structured_normal","83","structured_normal,structured_load,structured_incentive,random","4,2,2,3,1,2","3,1,2,4","false","","",""
"null","","html-keyboard-response","95","83183","0.0-95.0","3DR23U6WE60BLQTW4OR7USTIJQ3TE2","A2WWYVKGZZXBOB","3WUVMVA7OBP2V5NP3991VE8MBDEZA7","","<img src=""img/set1/S1.jpg"" width=""540"" height = ""360"">","null","","","","","","","","","",""
"null","","html-keyboard-response","96","83393","0.0-96.0","3DR23U6WE60BLQTW4OR7USTIJQ3TE2","A2WWYVKGZZXBOB","3WUVMVA7OBP2V5NP3991VE8MBDEZA7","","","null","","","","","","","","","",""
"741","","image-keyboard-response","97","84136","0.0-97.0","3DR23U6WE60BLQTW4OR7USTIJQ3TE2","A2WWYVKGZZXBOB","3WUVMVA7OBP2V5NP3991VE8MBDEZA7","","img/set1/S2.jpg","74","2","structured_normal","68","structured_normal,structured_load,structured_incentive,random","4,2,2,3,1,2","3,1,2,4","false","","",""
"null","","html-keyboard-response","98","84498","0.0-98.0","3DR23U6WE60BLQTW4OR7USTIJQ3TE2","A2WWYVKGZZXBOB","3WUVMVA7OBP2V5NP3991VE8MBDEZA7","","<img src=""img/set1/S2.jpg"" width=""540"" height = ""360"">","null","","","","","","","","","",""
"null","","html-keyboard-response","99","84707","0.0-99.0","3DR23U6WE60BLQTW4OR7USTIJQ3TE2","A2WWYVKGZZXBOB","3WUVMVA7OBP2V5NP3991VE8MBDEZA7","","","null","","","","","","","","","",""
"235","","image-keyboard-response","100","84944","0.0-100.0","3DR23U6WE60BLQTW4OR7USTIJQ3TE2","A2WWYVKGZZXBOB","3WUVMVA7OBP2V5NP3991VE8MBDEZA7","","img/set1/S3.jpg","83","3","structured_normal","72","structured_normal,structured_load,structured_incentive,random","4,2,2,3,1,2","3,1,2,4","false","","",""
"null","","html-keyboard-response","101","85302","0.0-101.0","3DR23U6WE60BLQTW4OR7USTIJQ3TE2","A2WWYVKGZZXBOB","3WUVMVA7OBP2V5NP3991VE8MBDEZA7","","<img src=""img/set1/S3.jpg"" width=""540"" height = ""360"">","null","","","","","","","","","",""
"null","","html-keyboard-response","102","85523","0.0-102.0","3DR23U6WE60BLQTW4OR7USTIJQ3TE2","A2WWYVKGZZXBOB","3WUVMVA7OBP2V5NP3991VE8MBDEZA7","","","null","","","","","","","","","",""
"611","","image-keyboard-response","103","86136","0.0-103.0","3DR23U6WE60BLQTW4OR7USTIJQ3TE2","A2WWYVKGZZXBOB","3WUVMVA7OBP2V5NP3991VE8MBDEZA7","","img/set1/S1.jpg","68","1","structured_normal","83","structured_normal,structured_load,structured_incentive,random","4,2,2,3,1,2","3,1,2,4","false","","",""
"null","","html-keyboard-response","104","86488","0.0-104.0","3DR23U6WE60BLQTW4OR7USTIJQ3TE2","A2WWYVKGZZXBOB","3WUVMVA7OBP2V5NP3991VE8MBDEZA7","","<img src=""img/set1/S1.jpg"" width=""540"" height = ""360"">","null","","","","","","","","","",""
"null","","html-keyboard-response","105","86698","0.0-105.0","3DR23U6WE60BLQTW4OR7USTIJQ3TE2","A2WWYVKGZZXBOB","3WUVMVA7OBP2V5NP3991VE8MBDEZA7","","","null","","","","","","","","","",""
"277","","image-keyboard-response","106","86976","0.0-106.0","3DR23U6WE60BLQTW4OR7USTIJQ3TE2","A2WWYVKGZZXBOB","3WUVMVA7OBP2V5NP3991VE8MBDEZA7","","img/set1/S3.jpg","68","3","structured_normal","72","structured_normal,structured_load,structured_incentive,random","4,2,2,3,1,2","3,1,2,4","false","","",""
"null","","html-keyboard-response","107","87332","0.0-107.0","3DR23U6WE60BLQTW4OR7USTIJQ3TE2","A2WWYVKGZZXBOB","3WUVMVA7OBP2V5NP3991VE8MBDEZA7","","<img src=""img/set1/S3.jpg"" width=""540"" height = ""360"">","null","","","","","","","","","",""
"null","","html-keyboard-response","108","87541","0.0-108.0","3DR23U6WE60BLQTW4OR7USTIJQ3TE2","A2WWYVKGZZXBOB","3WUVMVA7OBP2V5NP3991VE8MBDEZA7","","","null","","","","","","","","","",""
"274","","image-keyboard-response","109","87816","0.0-109.0","3DR23U6WE60BLQTW4OR7USTIJQ3TE2","A2WWYVKGZZXBOB","3WUVMVA7OBP2V5NP3991VE8MBDEZA7","","img/set1/S4.jpg","68","4","structured_normal","74","structured_normal,structured_load,structured_incentive,random","4,2,2,3,1,2","3,1,2,4","false","","",""
"null","","html-keyboard-response","110","88171","0.0-110.0","3DR23U6WE60BLQTW4OR7USTIJQ3TE2","A2WWYVKGZZXBOB","3WUVMVA7OBP2V5NP3991VE8MBDEZA7","","<img src=""img/set1/S4.jpg"" width=""540"" height = ""360"">","null","","","","","","","","","",""
"null","","html-keyboard-response","111","88381","0.0-111.0","3DR23U6WE60BLQTW4OR7USTIJQ3TE2","A2WWYVKGZZXBOB","3WUVMVA7OBP2V5NP3991VE8MBDEZA7","","","null","","","","","","","","","",""
"18","","image-keyboard-response","112","88400","0.0-112.0","3DR23U6WE60BLQTW4OR7USTIJQ3TE2","A2WWYVKGZZXBOB","3WUVMVA7OBP2V5NP3991VE8MBDEZA7","","img/set1/S2.jpg","72","2","structured_normal","68","structured_normal,structured_load,structured_incentive,random","4,2,2,3,1,2","3,1,2,4","false","","",""
"null","","html-keyboard-response","113","88754","0.0-113.0","3DR23U6WE60BLQTW4OR7USTIJQ3TE2","A2WWYVKGZZXBOB","3WUVMVA7OBP2V5NP3991VE8MBDEZA7","","<img src=""img/set1/S2.jpg"" width=""540"" height = ""360"">","null","","","","","","","","","",""
"null","","html-keyboard-response","114","88962","0.0-114.0","3DR23U6WE60BLQTW4OR7USTIJQ3TE2","A2WWYVKGZZXBOB","3WUVMVA7OBP2V5NP3991VE8MBDEZA7","","","null","","","","","","","","","",""
"94","","image-keyboard-response","115","89056","0.0-115.0","3DR23U6WE60BLQTW4OR7USTIJQ3TE2","A2WWYVKGZZXBOB","3WUVMVA7OBP2V5NP3991VE8MBDEZA7","","img/set1/S3.jpg","74","3","structured_normal","72","structured_normal,structured_load,structured_incentive,random","4,2,2,3,1,2","3,1,2,4","false","","",""
"null","","html-keyboard-response","116","89411","0.0-116.0","3DR23U6WE60BLQTW4OR7USTIJQ3TE2","A2WWYVKGZZXBOB","3WUVMVA7OBP2V5NP3991VE8MBDEZA7","","<img src=""img/set1/S3.jpg"" width=""540"" height = ""360"">","null","","","","","","","","","",""
"null","","html-keyboard-response","117","89622","0.0-117.0","3DR23U6WE60BLQTW4OR7USTIJQ3TE2","A2WWYVKGZZXBOB","3WUVMVA7OBP2V5NP3991VE8MBDEZA7","","","null","","","","","","","","","",""
"106","","image-keyboard-response","118","89729","0.0-118.0","3DR23U6WE60BLQTW4OR7USTIJQ3TE2","A2WWYVKGZZXBOB","3WUVMVA7OBP2V5NP3991VE8MBDEZA7","","img/set1/S2.jpg","72","2","structured_normal","68","structured_normal,structured_load,structured_incentive,random","4,2,2,3,1,2","3,1,2,4","false","","",""
"null","","html-keyboard-response","119","90083","0.0-119.0","3DR23U6WE60BLQTW4OR7USTIJQ3TE2","A2WWYVKGZZXBOB","3WUVMVA7OBP2V5NP3991VE8MBDEZA7","","<img src=""img/set1/S2.jpg"" width=""540"" height = ""360"">","null","","","","","","","","","",""
"null","","html-keyboard-response","120","90284","0.0-120.0","3DR23U6WE60BLQTW4OR7USTIJQ3TE2","A2WWYVKGZZXBOB","3WUVMVA7OBP2V5NP3991VE8MBDEZA7","","","null","","","","","","","","","",""
"27","","image-keyboard-response","121","90313","0.0-121.0","3DR23U6WE60BLQTW4OR7USTIJQ3TE2","A2WWYVKGZZXBOB","3WUVMVA7OBP2V5NP3991VE8MBDEZA7","","img/set1/S3.jpg","83","3","structured_normal","72","structured_normal,structured_load,structured_incentive,random","4,2,2,3,1,2","3,1,2,4","false","","",""
"null","","html-keyboard-response","122","90668","0.0-122.0","3DR23U6WE60BLQTW4OR7USTIJQ3TE2","A2WWYVKGZZXBOB","3WUVMVA7OBP2V5NP3991VE8MBDEZA7","","<img src=""img/set1/S3.jpg"" width=""540"" height = ""360"">","null","","","","","","","","","",""
"null","","html-keyboard-response","123","90878","0.0-123.0","3DR23U6WE60BLQTW4OR7USTIJQ3TE2","A2WWYVKGZZXBOB","3WUVMVA7OBP2V5NP3991VE8MBDEZA7","","","null","","","","","","","","","",""
"202","","image-keyboard-response","124","91080","0.0-124.0","3DR23U6WE60BLQTW4OR7USTIJQ3TE2","A2WWYVKGZZXBOB","3WUVMVA7OBP2V5NP3991VE8MBDEZA7","","img/set1/S1.jpg","83","1","structured_normal","83","structured_normal,structured_load,structured_incentive,random","4,2,2,3,1,2","3,1,2,4","true","","",""
"null","","html-keyboard-response","125","91438","0.0-125.0","3DR23U6WE60BLQTW4OR7USTIJQ3TE2","A2WWYVKGZZXBOB","3WUVMVA7OBP2V5NP3991VE8MBDEZA7","","<img src=""img/set1/S1.jpg"" width=""540"" height = ""360"" style=""border:16px solid orange"">","null","","","","","","","","","",""
"null","","html-keyboard-response","126","91644","0.0-126.0","3DR23U6WE60BLQTW4OR7USTIJQ3TE2","A2WWYVKGZZXBOB","3WUVMVA7OBP2V5NP3991VE8MBDEZA7","","","null","","","","","","","","","",""
"293","","image-keyboard-response","127","91938","0.0-127.0","3DR23U6WE60BLQTW4OR7USTIJQ3TE2","A2WWYVKGZZXBOB","3WUVMVA7OBP2V5NP3991VE8MBDEZA7","","img/set1/S4.jpg","68","4","structured_normal","74","structured_normal,structured_load,structured_incentive,random","4,2,2,3,1,2","3,1,2,4","false","","",""
"null","","html-keyboard-response","128","92299","0.0-128.0","3DR23U6WE60BLQTW4OR7USTIJQ3TE2","A2WWYVKGZZXBOB","3WUVMVA7OBP2V5NP3991VE8MBDEZA7","","<img src=""img/set1/S4.jpg"" width=""540"" height = ""360"">","null","","","","","","","","","",""
"null","","html-keyboard-response","129","92510","0.0-129.0","3DR23U6WE60BLQTW4OR7USTIJQ3TE2","A2WWYVKGZZXBOB","3WUVMVA7OBP2V5NP3991VE8MBDEZA7","","","null","","","","","","","","","",""
"354","","image-keyboard-response","130","92865","0.0-130.0","3DR23U6WE60BLQTW4OR7USTIJQ3TE2","A2WWYVKGZZXBOB","3WUVMVA7OBP2V5NP3991VE8MBDEZA7","","img/set1/S3.jpg","83","3","structured_normal","72","structured_normal,structured_load,structured_incentive,random","4,2,2,3,1,2","3,1,2,4","false","","",""
"null","","html-keyboard-response","131","93220","0.0-131.0","3DR23U6WE60BLQTW4OR7USTIJQ3TE2","A2WWYVKGZZXBOB","3WUVMVA7OBP2V5NP3991VE8MBDEZA7","","<img src=""img/set1/S3.jpg"" width=""540"" height = ""360"">","null","","","","","","","","","",""
"null","","html-keyboard-response","132","93430","0.0-132.0","3DR23U6WE60BLQTW4OR7USTIJQ3TE2","A2WWYVKGZZXBOB","3WUVMVA7OBP2V5NP3991VE8MBDEZA7","","","null","","","","","","","","","",""
"544","","image-keyboard-response","133","93975","0.0-133.0","3DR23U6WE60BLQTW4OR7USTIJQ3TE2","A2WWYVKGZZXBOB","3WUVMVA7OBP2V5NP3991VE8MBDEZA7","","img/set1/S3.jpg","72","3","structured_normal","72","structured_normal,structured_load,structured_incentive,random","4,2,2,3,1,2","3,1,2,4","true","","",""
"null","","html-keyboard-response","134","94331","0.0-134.0","3DR23U6WE60BLQTW4OR7USTIJQ3TE2","A2WWYVKGZZXBOB","3WUVMVA7OBP2V5NP3991VE8MBDEZA7","","<img src=""img/set1/S3.jpg"" width=""540"" height = ""360"" style=""border:16px solid orange"">","null","","","","","","","","","",""
"null","","html-keyboard-response","135","94542","0.0-135.0","3DR23U6WE60BLQTW4OR7USTIJQ3TE2","A2WWYVKGZZXBOB","3WUVMVA7OBP2V5NP3991VE8MBDEZA7","","","null","","","","","","","","","",""
"257","","image-keyboard-response","136","94801","0.0-136.0","3DR23U6WE60BLQTW4OR7USTIJQ3TE2","A2WWYVKGZZXBOB","3WUVMVA7OBP2V5NP3991VE8MBDEZA7","","img/set1/S1.jpg","72","1","structured_normal","83","structured_normal,structured_load,structured_incentive,random","4,2,2,3,1,2","3,1,2,4","false","","",""
"null","","html-keyboard-response","137","95160","0.0-137.0","3DR23U6WE60BLQTW4OR7USTIJQ3TE2","A2WWYVKGZZXBOB","3WUVMVA7OBP2V5NP3991VE8MBDEZA7","","<img src=""img/set1/S1.jpg"" width=""540"" height = ""360"">","null","","","","","","","","","",""
"null","","html-keyboard-response","138","95361","0.0-138.0","3DR23U6WE60BLQTW4OR7USTIJQ3TE2","A2WWYVKGZZXBOB","3WUVMVA7OBP2V5NP3991VE8MBDEZA7","","","null","","","","","","","","","",""
"214","","image-keyboard-response","139","95576","0.0-139.0","3DR23U6WE60BLQTW4OR7USTIJQ3TE2","A2WWYVKGZZXBOB","3WUVMVA7OBP2V5NP3991VE8MBDEZA7","","img/set1/S2.jpg","83","2","structured_normal","68","structured_normal,structured_load,structured_incentive,random","4,2,2,3,1,2","3,1,2,4","false","","",""
"null","","html-keyboard-response","140","95931","0.0-140.0","3DR23U6WE60BLQTW4OR7USTIJQ3TE2","A2WWYVKGZZXBOB","3WUVMVA7OBP2V5NP3991VE8MBDEZA7","","<img src=""img/set1/S2.jpg"" width=""540"" height = ""360"">","null","","","","","","","","","",""
"null","","html-keyboard-response","141","96148","0.0-141.0","3DR23U6WE60BLQTW4OR7USTIJQ3TE2","A2WWYVKGZZXBOB","3WUVMVA7OBP2V5NP3991VE8MBDEZA7","","","null","","","","","","","","","",""
"252","","image-keyboard-response","142","96403","0.0-142.0","3DR23U6WE60BLQTW4OR7USTIJQ3TE2","A2WWYVKGZZXBOB","3WUVMVA7OBP2V5NP3991VE8MBDEZA7","","img/set1/S1.jpg","68","1","structured_normal","83","structured_normal,structured_load,structured_incentive,random","4,2,2,3,1,2","3,1,2,4","false","","",""
"null","","html-keyboard-response","143","96763","0.0-143.0","3DR23U6WE60BLQTW4OR7USTIJQ3TE2","A2WWYVKGZZXBOB","3WUVMVA7OBP2V5NP3991VE8MBDEZA7","","<img src=""img/set1/S1.jpg"" width=""540"" height = ""360"">","null","","","","","","","","","",""
"null","","html-keyboard-response","144","96983","0.0-144.0","3DR23U6WE60BLQTW4OR7USTIJQ3TE2","A2WWYVKGZZXBOB","3WUVMVA7OBP2V5NP3991VE8MBDEZA7","","","null","","","","","","","","","",""
"361","","image-keyboard-response","145","97344","0.0-145.0","3DR23U6WE60BLQTW4OR7USTIJQ3TE2","A2WWYVKGZZXBOB","3WUVMVA7OBP2V5NP3991VE8MBDEZA7","","img/set1/S2.jpg","68","2","structured_normal","68","structured_normal,structured_load,structured_incentive,random","4,2,2,3,1,2","3,1,2,4","true","","",""
"null","","html-keyboard-response","146","97704","0.0-146.0","3DR23U6WE60BLQTW4OR7USTIJQ3TE2","A2WWYVKGZZXBOB","3WUVMVA7OBP2V5NP3991VE8MBDEZA7","","<img src=""img/set1/S2.jpg"" width=""540"" height = ""360"" style=""border:16px solid orange"">","null","","","","","","","","","",""
"null","","html-keyboard-response","147","97914","0.0-147.0","3DR23U6WE60BLQTW4OR7USTIJQ3TE2","A2WWYVKGZZXBOB","3WUVMVA7OBP2V5NP3991VE8MBDEZA7","","","null","","","","","","","","","",""
"272","","image-keyboard-response","148","98187","0.0-148.0","3DR23U6WE60BLQTW4OR7USTIJQ3TE2","A2WWYVKGZZXBOB","3WUVMVA7OBP2V5NP3991VE8MBDEZA7","","img/set1/S1.jpg","68","1","structured_normal","83","structured_normal,structured_load,structured_incentive,random","4,2,2,3,1,2","3,1,2,4","false","","",""
"null","","html-keyboard-response","149","98546","0.0-149.0","3DR23U6WE60BLQTW4OR7USTIJQ3TE2","A2WWYVKGZZXBOB","3WUVMVA7OBP2V5NP3991VE8MBDEZA7","","<img src=""img/set1/S1.jpg"" width=""540"" height = ""360"">","null","","","","","","","","","",""
"null","","html-keyboard-response","150","98755","0.0-150.0","3DR23U6WE60BLQTW4OR7USTIJQ3TE2","A2WWYVKGZZXBOB","3WUVMVA7OBP2V5NP3991VE8MBDEZA7","","","null","","","","","","","","","",""
"235","","image-keyboard-response","151","98992","0.0-151.0","3DR23U6WE60BLQTW4OR7USTIJQ3TE2","A2WWYVKGZZXBOB","3WUVMVA7OBP2V5NP3991VE8MBDEZA7","","img/set1/S3.jpg","68","3","structured_normal","72","structured_normal,structured_load,structured_incentive,random","4,2,2,3,1,2","3,1,2,4","false","","",""
"null","","html-keyboard-response","152","99347","0.0-152.0","3DR23U6WE60BLQTW4OR7USTIJQ3TE2","A2WWYVKGZZXBOB","3WUVMVA7OBP2V5NP3991VE8MBDEZA7","","<img src=""img/set1/S3.jpg"" width=""540"" height = ""360"">","null","","","","","","","","","",""
"null","","html-keyboard-response","153","99556","0.0-153.0","3DR23U6WE60BLQTW4OR7USTIJQ3TE2","A2WWYVKGZZXBOB","3WUVMVA7OBP2V5NP3991VE8MBDEZA7","","","null","","","","","","","","","",""
"275","","image-keyboard-response","154","99833","0.0-154.0","3DR23U6WE60BLQTW4OR7USTIJQ3TE2","A2WWYVKGZZXBOB","3WUVMVA7OBP2V5NP3991VE8MBDEZA7","","img/set1/S1.jpg","68","1","structured_normal","83","structured_normal,structured_load,structured_incentive,random","4,2,2,3,1,2","3,1,2,4","false","","",""
"null","","html-keyboard-response","155","100186","0.0-155.0","3DR23U6WE60BLQTW4OR7USTIJQ3TE2","A2WWYVKGZZXBOB","3WUVMVA7OBP2V5NP3991VE8MBDEZA7","","<img src=""img/set1/S1.jpg"" width=""540"" height = ""360"">","null","","","","","","","","","",""
"null","","html-keyboard-response","156","100397","0.0-156.0","3DR23U6WE60BLQTW4OR7USTIJQ3TE2","A2WWYVKGZZXBOB","3WUVMVA7OBP2V5NP3991VE8MBDEZA7","","","null","","","","","","","","","",""
"241","","image-keyboard-response","157","100640","0.0-157.0","3DR23U6WE60BLQTW4OR7USTIJQ3TE2","A2WWYVKGZZXBOB","3WUVMVA7OBP2V5NP3991VE8MBDEZA7","","img/set1/S1.jpg","68","1","structured_normal","83","structured_normal,structured_load,structured_incentive,random","4,2,2,3,1,2","3,1,2,4","false","","",""
"null","","html-keyboard-response","158","100997","0.0-158.0","3DR23U6WE60BLQTW4OR7USTIJQ3TE2","A2WWYVKGZZXBOB","3WUVMVA7OBP2V5NP3991VE8MBDEZA7","","<img src=""img/set1/S1.jpg"" width=""540"" height = ""360"">","null","","","","","","","","","",""
"null","","html-keyboard-response","159","101207","0.0-159.0","3DR23U6WE60BLQTW4OR7USTIJQ3TE2","A2WWYVKGZZXBOB","3WUVMVA7OBP2V5NP3991VE8MBDEZA7","","","null","","","","","","","","","",""
"321","","image-keyboard-response","160","101529","0.0-160.0","3DR23U6WE60BLQTW4OR7USTIJQ3TE2","A2WWYVKGZZXBOB","3WUVMVA7OBP2V5NP3991VE8MBDEZA7","","img/set1/S4.jpg","83","4","structured_normal","74","structured_normal,structured_load,structured_incentive,random","4,2,2,3,1,2","3,1,2,4","false","","",""
"null","","html-keyboard-response","161","101890","0.0-161.0","3DR23U6WE60BLQTW4OR7USTIJQ3TE2","A2WWYVKGZZXBOB","3WUVMVA7OBP2V5NP3991VE8MBDEZA7","","<img src=""img/set1/S4.jpg"" width=""540"" height = ""360"">","null","","","","","","","","","",""
"null","","html-keyboard-response","162","102100","0.0-162.0","3DR23U6WE60BLQTW4OR7USTIJQ3TE2","A2WWYVKGZZXBOB","3WUVMVA7OBP2V5NP3991VE8MBDEZA7","","","null","","","","","","","","","",""
"298","","image-keyboard-response","163","102401","0.0-163.0","3DR23U6WE60BLQTW4OR7USTIJQ3TE2","A2WWYVKGZZXBOB","3WUVMVA7OBP2V5NP3991VE8MBDEZA7","","img/set1/S3.jpg","72","3","structured_normal","72","structured_normal,structured_load,structured_incentive,random","4,2,2,3,1,2","3,1,2,4","true","","",""
"null","","html-keyboard-response","164","102762","0.0-164.0","3DR23U6WE60BLQTW4OR7USTIJQ3TE2","A2WWYVKGZZXBOB","3WUVMVA7OBP2V5NP3991VE8MBDEZA7","","<img src=""img/set1/S3.jpg"" width=""540"" height = ""360"" style=""border:16px solid orange"">","null","","","","","","","","","",""
"null","","html-keyboard-response","165","102971","0.0-165.0","3DR23U6WE60BLQTW4OR7USTIJQ3TE2","A2WWYVKGZZXBOB","3WUVMVA7OBP2V5NP3991VE8MBDEZA7","","","null","","","","","","","","","",""
"252","","image-keyboard-response","166","103224","0.0-166.0","3DR23U6WE60BLQTW4OR7USTIJQ3TE2","A2WWYVKGZZXBOB","3WUVMVA7OBP2V5NP3991VE8MBDEZA7","","img/set1/S1.jpg","83","1","structured_normal","83","structured_normal,structured_load,structured_incentive,random","4,2,2,3,1,2","3,1,2,4","true","","",""
"null","","html-keyboard-response","167","103581","0.0-167.0","3DR23U6WE60BLQTW4OR7USTIJQ3TE2","A2WWYVKGZZXBOB","3WUVMVA7OBP2V5NP3991VE8MBDEZA7","","<img src=""img/set1/S1.jpg"" width=""540"" height = ""360"" style=""border:16px solid orange"">","null","","","","","","","","","",""
"null","","html-keyboard-response","168","103792","0.0-168.0","3DR23U6WE60BLQTW4OR7USTIJQ3TE2","A2WWYVKGZZXBOB","3WUVMVA7OBP2V5NP3991VE8MBDEZA7","","","null","","","","","","","","","",""
"448","","image-keyboard-response","169","104242","0.0-169.0","3DR23U6WE60BLQTW4OR7USTIJQ3TE2","A2WWYVKGZZXBOB","3WUVMVA7OBP2V5NP3991VE8MBDEZA7","","img/set1/S4.jpg","68","4","structured_normal","74","structured_normal,structured_load,structured_incentive,random","4,2,2,3,1,2","3,1,2,4","false","","",""
"null","","html-keyboard-response","170","104604","0.0-170.0","3DR23U6WE60BLQTW4OR7USTIJQ3TE2","A2WWYVKGZZXBOB","3WUVMVA7OBP2V5NP3991VE8MBDEZA7","","<img src=""img/set1/S4.jpg"" width=""540"" height = ""360"">","null","","","","","","","","","",""
"null","","html-keyboard-response","171","104814","0.0-171.0","3DR23U6WE60BLQTW4OR7USTIJQ3TE2","A2WWYVKGZZXBOB","3WUVMVA7OBP2V5NP3991VE8MBDEZA7","","","null","","","","","","","","","",""
"193","","image-keyboard-response","172","105009","0.0-172.0","3DR23U6WE60BLQTW4OR7USTIJQ3TE2","A2WWYVKGZZXBOB","3WUVMVA7OBP2V5NP3991VE8MBDEZA7","","img/set1/S2.jpg","83","2","structured_normal","68","structured_normal,structured_load,structured_incentive,random","4,2,2,3,1,2","3,1,2,4","false","","",""
"null","","html-keyboard-response","173","105366","0.0-173.0","3DR23U6WE60BLQTW4OR7USTIJQ3TE2","A2WWYVKGZZXBOB","3WUVMVA7OBP2V5NP3991VE8MBDEZA7","","<img src=""img/set1/S2.jpg"" width=""540"" height = ""360"">","null","","","","","","","","","",""
"null","","html-keyboard-response","174","105580","0.0-174.0","3DR23U6WE60BLQTW4OR7USTIJQ3TE2","A2WWYVKGZZXBOB","3WUVMVA7OBP2V5NP3991VE8MBDEZA7","","","null","","","","","","","","","",""
"97","","image-keyboard-response","175","105680","0.0-175.0","3DR23U6WE60BLQTW4OR7USTIJQ3TE2","A2WWYVKGZZXBOB","3WUVMVA7OBP2V5NP3991VE8MBDEZA7","","img/set1/S4.jpg","74","4","structured_normal","74","structured_normal,structured_load,structured_incentive,random","4,2,2,3,1,2","3,1,2,4","true","","",""
"null","","html-keyboard-response","176","106042","0.0-176.0","3DR23U6WE60BLQTW4OR7USTIJQ3TE2","A2WWYVKGZZXBOB","3WUVMVA7OBP2V5NP3991VE8MBDEZA7","","<img src=""img/set1/S4.jpg"" width=""540"" height = ""360"" style=""border:16px solid orange"">","null","","","","","","","","","",""
"null","","html-keyboard-response","177","106246","0.0-177.0","3DR23U6WE60BLQTW4OR7USTIJQ3TE2","A2WWYVKGZZXBOB","3WUVMVA7OBP2V5NP3991VE8MBDEZA7","","","null","","","","","","","","","",""
"296","","image-keyboard-response","178","106544","0.0-178.0","3DR23U6WE60BLQTW4OR7USTIJQ3TE2","A2WWYVKGZZXBOB","3WUVMVA7OBP2V5NP3991VE8MBDEZA7","","img/set1/S2.jpg","74","2","structured_normal","68","structured_normal,structured_load,structured_incentive,random","4,2,2,3,1,2","3,1,2,4","false","","",""
"null","","html-keyboard-response","179","106898","0.0-179.0","3DR23U6WE60BLQTW4OR7USTIJQ3TE2","A2WWYVKGZZXBOB","3WUVMVA7OBP2V5NP3991VE8MBDEZA7","","<img src=""img/set1/S2.jpg"" width=""540"" height = ""360"">","null","","","","","","","","","",""
"null","","html-keyboard-response","180","107107","0.0-180.0","3DR23U6WE60BLQTW4OR7USTIJQ3TE2","A2WWYVKGZZXBOB","3WUVMVA7OBP2V5NP3991VE8MBDEZA7","","","null","","","","","","","","","",""
"485","","image-keyboard-response","181","107594","0.0-181.0","3DR23U6WE60BLQTW4OR7USTIJQ3TE2","A2WWYVKGZZXBOB","3WUVMVA7OBP2V5NP3991VE8MBDEZA7","","img/set1/S3.jpg","72","3","structured_normal","72","structured_normal,structured_load,structured_incentive,random","4,2,2,3,1,2","3,1,2,4","true","","",""
"null","","html-keyboard-response","182","107950","0.0-182.0","3DR23U6WE60BLQTW4OR7USTIJQ3TE2","A2WWYVKGZZXBOB","3WUVMVA7OBP2V5NP3991VE8MBDEZA7","","<img src=""img/set1/S3.jpg"" width=""540"" height = ""360"" style=""border:16px solid orange"">","null","","","","","","","","","",""
"null","","html-keyboard-response","183","108159","0.0-183.0","3DR23U6WE60BLQTW4OR7USTIJQ3TE2","A2WWYVKGZZXBOB","3WUVMVA7OBP2V5NP3991VE8MBDEZA7","","","null","","","","","","","","","",""
"432","","image-keyboard-response","184","108592","0.0-184.0","3DR23U6WE60BLQTW4OR7USTIJQ3TE2","A2WWYVKGZZXBOB","3WUVMVA7OBP2V5NP3991VE8MBDEZA7","","img/set1/S4.jpg","74","4","structured_normal","74","structured_normal,structured_load,structured_incentive,random","4,2,2,3,1,2","3,1,2,4","true","","",""
"null","","html-keyboard-response","185","108949","0.0-185.0","3DR23U6WE60BLQTW4OR7USTIJQ3TE2","A2WWYVKGZZXBOB","3WUVMVA7OBP2V5NP3991VE8MBDEZA7","","<img src=""img/set1/S4.jpg"" width=""540"" height = ""360"" style=""border:16px solid orange"">","null","","","","","","","","","",""
"null","","html-keyboard-response","186","109159","0.0-186.0","3DR23U6WE60BLQTW4OR7USTIJQ3TE2","A2WWYVKGZZXBOB","3WUVMVA7OBP2V5NP3991VE8MBDEZA7","","","null","","","","","","","","","",""
"984","","image-keyboard-response","187","110144","0.0-187.0","3DR23U6WE60BLQTW4OR7USTIJQ3TE2","A2WWYVKGZZXBOB","3WUVMVA7OBP2V5NP3991VE8MBDEZA7","","img/set1/S2.jpg","68","2","structured_normal","68","structured_normal,structured_load,structured_incentive,random","4,2,2,3,1,2","3,1,2,4","true","","",""
"null","","html-keyboard-response","188","110498","0.0-188.0","3DR23U6WE60BLQTW4OR7USTIJQ3TE2","A2WWYVKGZZXBOB","3WUVMVA7OBP2V5NP3991VE8MBDEZA7","","<img src=""img/set1/S2.jpg"" width=""540"" height = ""360"" style=""border:16px solid orange"">","null","","","","","","","","","",""
"null","","html-keyboard-response","189","110703","0.0-189.0","3DR23U6WE60BLQTW4OR7USTIJQ3TE2","A2WWYVKGZZXBOB","3WUVMVA7OBP2V5NP3991VE8MBDEZA7","","","null","","","","","","","","","",""
"624","","image-keyboard-response","190","111328","0.0-190.0","3DR23U6WE60BLQTW4OR7USTIJQ3TE2","A2WWYVKGZZXBOB","3WUVMVA7OBP2V5NP3991VE8MBDEZA7","","img/set1/S1.jpg","83","1","structured_normal","83","structured_normal,structured_load,structured_incentive,random","4,2,2,3,1,2","3,1,2,4","true","","",""
"null","","html-keyboard-response","191","111687","0.0-191.0","3DR23U6WE60BLQTW4OR7USTIJQ3TE2","A2WWYVKGZZXBOB","3WUVMVA7OBP2V5NP3991VE8MBDEZA7","","<img src=""img/set1/S1.jpg"" width=""540"" height = ""360"" style=""border:16px solid orange"">","null","","","","","","","","","",""
"null","","html-keyboard-response","192","111896","0.0-192.0","3DR23U6WE60BLQTW4OR7USTIJQ3TE2","A2WWYVKGZZXBOB","3WUVMVA7OBP2V5NP3991VE8MBDEZA7","","","null","","","","","","","","","",""
"494","","image-keyboard-response","193","112392","0.0-193.0","3DR23U6WE60BLQTW4OR7USTIJQ3TE2","A2WWYVKGZZXBOB","3WUVMVA7OBP2V5NP3991VE8MBDEZA7","","img/set1/S1.jpg","83","1","structured_normal","83","structured_normal,structured_load,structured_incentive,random","4,2,2,3,1,2","3,1,2,4","true","","",""
"null","","html-keyboard-response","194","112747","0.0-194.0","3DR23U6WE60BLQTW4OR7USTIJQ3TE2","A2WWYVKGZZXBOB","3WUVMVA7OBP2V5NP3991VE8MBDEZA7","","<img src=""img/set1/S1.jpg"" width=""540"" height = ""360"" style=""border:16px solid orange"">","null","","","","","","","","","",""
"null","","html-keyboard-response","195","112957","0.0-195.0","3DR23U6WE60BLQTW4OR7USTIJQ3TE2","A2WWYVKGZZXBOB","3WUVMVA7OBP2V5NP3991VE8MBDEZA7","","","null","","","","","","","","","",""
"425","","image-keyboard-response","196","113384","0.0-196.0","3DR23U6WE60BLQTW4OR7USTIJQ3TE2","A2WWYVKGZZXBOB","3WUVMVA7OBP2V5NP3991VE8MBDEZA7","","img/set1/S1.jpg","83","1","structured_normal","83","structured_normal,structured_load,structured_incentive,random","4,2,2,3,1,2","3,1,2,4","true","","",""
"null","","html-keyboard-response","197","113739","0.0-197.0","3DR23U6WE60BLQTW4OR7USTIJQ3TE2","A2WWYVKGZZXBOB","3WUVMVA7OBP2V5NP3991VE8MBDEZA7","","<img src=""img/set1/S1.jpg"" width=""540"" height = ""360"" style=""border:16px solid orange"">","null","","","","","","","","","",""
"null","","html-keyboard-response","198","113953","0.0-198.0","3DR23U6WE60BLQTW4OR7USTIJQ3TE2","A2WWYVKGZZXBOB","3WUVMVA7OBP2V5NP3991VE8MBDEZA7","","","null","","","","","","","","","",""
"600","","image-keyboard-response","199","114552","0.0-199.0","3DR23U6WE60BLQTW4OR7USTIJQ3TE2","A2WWYVKGZZXBOB","3WUVMVA7OBP2V5NP3991VE8MBDEZA7","","img/set1/S3.jpg","68","3","structured_normal","72","structured_normal,structured_load,structured_incentive,random","4,2,2,3,1,2","3,1,2,4","false","","",""
"null","","html-keyboard-response","200","114919","0.0-200.0","3DR23U6WE60BLQTW4OR7USTIJQ3TE2","A2WWYVKGZZXBOB","3WUVMVA7OBP2V5NP3991VE8MBDEZA7","","<img src=""img/set1/S3.jpg"" width=""540"" height = ""360"">","null","","","","","","","","","",""
"null","","html-keyboard-response","201","115127","0.0-201.0","3DR23U6WE60BLQTW4OR7USTIJQ3TE2","A2WWYVKGZZXBOB","3WUVMVA7OBP2V5NP3991VE8MBDEZA7","","","null","","","","","","","","","",""
"351","","image-keyboard-response","202","115480","0.0-202.0","3DR23U6WE60BLQTW4OR7USTIJQ3TE2","A2WWYVKGZZXBOB","3WUVMVA7OBP2V5NP3991VE8MBDEZA7","","img/set1/S2.jpg","74","2","structured_normal","68","structured_normal,structured_load,structured_incentive,random","4,2,2,3,1,2","3,1,2,4","false","","",""
"null","","html-keyboard-response","203","115839","0.0-203.0","3DR23U6WE60BLQTW4OR7USTIJQ3TE2","A2WWYVKGZZXBOB","3WUVMVA7OBP2V5NP3991VE8MBDEZA7","","<img src=""img/set1/S2.jpg"" width=""540"" height = ""360"">","null","","","","","","","","","",""
"null","","html-keyboard-response","204","116049","0.0-204.0","3DR23U6WE60BLQTW4OR7USTIJQ3TE2","A2WWYVKGZZXBOB","3WUVMVA7OBP2V5NP3991VE8MBDEZA7","","","null","","","","","","","","","",""
"733","","image-keyboard-response","205","116784","0.0-205.0","3DR23U6WE60BLQTW4OR7USTIJQ3TE2","A2WWYVKGZZXBOB","3WUVMVA7OBP2V5NP3991VE8MBDEZA7","","img/set1/S1.jpg","83","1","structured_normal","83","structured_normal,structured_load,structured_incentive,random","4,2,2,3,1,2","3,1,2,4","true","","",""
"null","","html-keyboard-response","206","117141","0.0-206.0","3DR23U6WE60BLQTW4OR7USTIJQ3TE2","A2WWYVKGZZXBOB","3WUVMVA7OBP2V5NP3991VE8MBDEZA7","","<img src=""img/set1/S1.jpg"" width=""540"" height = ""360"" style=""border:16px solid orange"">","null","","","","","","","","","",""
"null","","html-keyboard-response","207","117365","0.0-207.0","3DR23U6WE60BLQTW4OR7USTIJQ3TE2","A2WWYVKGZZXBOB","3WUVMVA7OBP2V5NP3991VE8MBDEZA7","","","null","","","","","","","","","",""
"809","","image-keyboard-response","208","118176","0.0-208.0","3DR23U6WE60BLQTW4OR7USTIJQ3TE2","A2WWYVKGZZXBOB","3WUVMVA7OBP2V5NP3991VE8MBDEZA7","","img/set1/S3.jpg","74","3","structured_normal","72","structured_normal,structured_load,structured_incentive,random","4,2,2,3,1,2","3,1,2,4","false","","",""
"null","","html-keyboard-response","209","118535","0.0-209.0","3DR23U6WE60BLQTW4OR7USTIJQ3TE2","A2WWYVKGZZXBOB","3WUVMVA7OBP2V5NP3991VE8MBDEZA7","","<img src=""img/set1/S3.jpg"" width=""540"" height = ""360"">","null","","","","","","","","","",""
"null","","html-keyboard-response","210","118741","0.0-210.0","3DR23U6WE60BLQTW4OR7USTIJQ3TE2","A2WWYVKGZZXBOB","3WUVMVA7OBP2V5NP3991VE8MBDEZA7","","","null","","","","","","","","","",""
"737","","image-keyboard-response","211","119481","0.0-211.0","3DR23U6WE60BLQTW4OR7USTIJQ3TE2","A2WWYVKGZZXBOB","3WUVMVA7OBP2V5NP3991VE8MBDEZA7","","img/set1/S4.jpg","74","4","structured_normal","74","structured_normal,structured_load,structured_incentive,random","4,2,2,3,1,2","3,1,2,4","true","","",""
"null","","html-keyboard-response","212","119837","0.0-212.0","3DR23U6WE60BLQTW4OR7USTIJQ3TE2","A2WWYVKGZZXBOB","3WUVMVA7OBP2V5NP3991VE8MBDEZA7","","<img src=""img/set1/S4.jpg"" width=""540"" height = ""360"" style=""border:16px solid orange"">","null","","","","","","","","","",""
"null","","html-keyboard-response","213","120046","0.0-213.0","3DR23U6WE60BLQTW4OR7USTIJQ3TE2","A2WWYVKGZZXBOB","3WUVMVA7OBP2V5NP3991VE8MBDEZA7","","","null","","","","","","","","","",""
"688","","image-keyboard-response","214","120736","0.0-214.0","3DR23U6WE60BLQTW4OR7USTIJQ3TE2","A2WWYVKGZZXBOB","3WUVMVA7OBP2V5NP3991VE8MBDEZA7","","img/set1/S2.jpg","68","2","structured_normal","68","structured_normal,structured_load,structured_incentive,random","4,2,2,3,1,2","3,1,2,4","true","","",""
"null","","html-keyboard-response","215","121102","0.0-215.0","3DR23U6WE60BLQTW4OR7USTIJQ3TE2","A2WWYVKGZZXBOB","3WUVMVA7OBP2V5NP3991VE8MBDEZA7","","<img src=""img/set1/S2.jpg"" width=""540"" height = ""360"" style=""border:16px solid orange"">","null","","","","","","","","","",""
"null","","html-keyboard-response","216","121305","0.0-216.0","3DR23U6WE60BLQTW4OR7USTIJQ3TE2","A2WWYVKGZZXBOB","3WUVMVA7OBP2V5NP3991VE8MBDEZA7","","","null","","","","","","","","","",""
"909","","image-keyboard-response","217","122216","0.0-217.0","3DR23U6WE60BLQTW4OR7USTIJQ3TE2","A2WWYVKGZZXBOB","3WUVMVA7OBP2V5NP3991VE8MBDEZA7","","img/set1/S4.jpg","74","4","structured_normal","74","structured_normal,structured_load,structured_incentive,random","4,2,2,3,1,2","3,1,2,4","true","","",""
"null","","html-keyboard-response","218","122579","0.0-218.0","3DR23U6WE60BLQTW4OR7USTIJQ3TE2","A2WWYVKGZZXBOB","3WUVMVA7OBP2V5NP3991VE8MBDEZA7","","<img src=""img/set1/S4.jpg"" width=""540"" height = ""360"" style=""border:16px solid orange"">","null","","","","","","","","","",""
"null","","html-keyboard-response","219","122786","0.0-219.0","3DR23U6WE60BLQTW4OR7USTIJQ3TE2","A2WWYVKGZZXBOB","3WUVMVA7OBP2V5NP3991VE8MBDEZA7","","","null","","","","","","","","","",""
"591","","image-keyboard-response","220","123378","0.0-220.0","3DR23U6WE60BLQTW4OR7USTIJQ3TE2","A2WWYVKGZZXBOB","3WUVMVA7OBP2V5NP3991VE8MBDEZA7","","img/set1/S2.jpg","72","2","structured_normal","68","structured_normal,structured_load,structured_incentive,random","4,2,2,3,1,2","3,1,2,4","false","","",""
"null","","html-keyboard-response","221","123737","0.0-221.0","3DR23U6WE60BLQTW4OR7USTIJQ3TE2","A2WWYVKGZZXBOB","3WUVMVA7OBP2V5NP3991VE8MBDEZA7","","<img src=""img/set1/S2.jpg"" width=""540"" height = ""360"">","null","","","","","","","","","",""
"null","","html-keyboard-response","222","123946","0.0-222.0","3DR23U6WE60BLQTW4OR7USTIJQ3TE2","A2WWYVKGZZXBOB","3WUVMVA7OBP2V5NP3991VE8MBDEZA7","","","null","","","","","","","","","",""
"1044","","image-keyboard-response","223","124993","0.0-223.0","3DR23U6WE60BLQTW4OR7USTIJQ3TE2","A2WWYVKGZZXBOB","3WUVMVA7OBP2V5NP3991VE8MBDEZA7","","img/set1/S3.jpg","68","3","structured_normal","72","structured_normal,structured_load,structured_incentive,random","4,2,2,3,1,2","3,1,2,4","false","","",""
"null","","html-keyboard-response","224","125353","0.0-224.0","3DR23U6WE60BLQTW4OR7USTIJQ3TE2","A2WWYVKGZZXBOB","3WUVMVA7OBP2V5NP3991VE8MBDEZA7","","<img src=""img/set1/S3.jpg"" width=""540"" height = ""360"">","null","","","","","","","","","",""
"null","","html-keyboard-response","225","125562","0.0-225.0","3DR23U6WE60BLQTW4OR7USTIJQ3TE2","A2WWYVKGZZXBOB","3WUVMVA7OBP2V5NP3991VE8MBDEZA7","","","null","","","","","","","","","",""
"628","","image-keyboard-response","226","126192","0.0-226.0","3DR23U6WE60BLQTW4OR7USTIJQ3TE2","A2WWYVKGZZXBOB","3WUVMVA7OBP2V5NP3991VE8MBDEZA7","","img/set1/S4.jpg","74","4","structured_normal","74","structured_normal,structured_load,structured_incentive,random","4,2,2,3,1,2","3,1,2,4","true","","",""
"null","","html-keyboard-response","227","126550","0.0-227.0","3DR23U6WE60BLQTW4OR7USTIJQ3TE2","A2WWYVKGZZXBOB","3WUVMVA7OBP2V5NP3991VE8MBDEZA7","","<img src=""img/set1/S4.jpg"" width=""540"" height = ""360"" style=""border:16px solid orange"">","null","","","","","","","","","",""
"null","","html-keyboard-response","228","126757","0.0-228.0","3DR23U6WE60BLQTW4OR7USTIJQ3TE2","A2WWYVKGZZXBOB","3WUVMVA7OBP2V5NP3991VE8MBDEZA7","","","null","","","","","","","","","",""
"691","","image-keyboard-response","229","127450","0.0-229.0","3DR23U6WE60BLQTW4OR7USTIJQ3TE2","A2WWYVKGZZXBOB","3WUVMVA7OBP2V5NP3991VE8MBDEZA7","","img/set1/S2.jpg","68","2","structured_normal","68","structured_normal,structured_load,structured_incentive,random","4,2,2,3,1,2","3,1,2,4","true","","",""
"null","","html-keyboard-response","230","127809","0.0-230.0","3DR23U6WE60BLQTW4OR7USTIJQ3TE2","A2WWYVKGZZXBOB","3WUVMVA7OBP2V5NP3991VE8MBDEZA7","","<img src=""img/set1/S2.jpg"" width=""540"" height = ""360"" style=""border:16px solid orange"">","null","","","","","","","","","",""
"null","","html-keyboard-response","231","128018","0.0-231.0","3DR23U6WE60BLQTW4OR7USTIJQ3TE2","A2WWYVKGZZXBOB","3WUVMVA7OBP2V5NP3991VE8MBDEZA7","","","null","","","","","","","","","",""
"501","","image-keyboard-response","232","128519","0.0-232.0","3DR23U6WE60BLQTW4OR7USTIJQ3TE2","A2WWYVKGZZXBOB","3WUVMVA7OBP2V5NP3991VE8MBDEZA7","","img/set1/S1.jpg","83","1","structured_normal","83","structured_normal,structured_load,structured_incentive,random","4,2,2,3,1,2","3,1,2,4","true","","",""
"null","","html-keyboard-response","233","128880","0.0-233.0","3DR23U6WE60BLQTW4OR7USTIJQ3TE2","A2WWYVKGZZXBOB","3WUVMVA7OBP2V5NP3991VE8MBDEZA7","","<img src=""img/set1/S1.jpg"" width=""540"" height = ""360"" style=""border:16px solid orange"">","null","","","","","","","","","",""
"null","","html-keyboard-response","234","129091","0.0-234.0","3DR23U6WE60BLQTW4OR7USTIJQ3TE2","A2WWYVKGZZXBOB","3WUVMVA7OBP2V5NP3991VE8MBDEZA7","","","null","","","","","","","","","",""
"548","","image-keyboard-response","235","129641","0.0-235.0","3DR23U6WE60BLQTW4OR7USTIJQ3TE2","A2WWYVKGZZXBOB","3WUVMVA7OBP2V5NP3991VE8MBDEZA7","","img/set1/S1.jpg","83","1","structured_normal","83","structured_normal,structured_load,structured_incentive,random","4,2,2,3,1,2","3,1,2,4","true","","",""
"null","","html-keyboard-response","236","130002","0.0-236.0","3DR23U6WE60BLQTW4OR7USTIJQ3TE2","A2WWYVKGZZXBOB","3WUVMVA7OBP2V5NP3991VE8MBDEZA7","","<img src=""img/set1/S1.jpg"" width=""540"" height = ""360"" style=""border:16px solid orange"">","null","","","","","","","","","",""
"null","","html-keyboard-response","237","130209","0.0-237.0","3DR23U6WE60BLQTW4OR7USTIJQ3TE2","A2WWYVKGZZXBOB","3WUVMVA7OBP2V5NP3991VE8MBDEZA7","","","null","","","","","","","","","",""
"396","","image-keyboard-response","238","130608","0.0-238.0","3DR23U6WE60BLQTW4OR7USTIJQ3TE2","A2WWYVKGZZXBOB","3WUVMVA7OBP2V5NP3991VE8MBDEZA7","","img/set1/S1.jpg","83","1","structured_normal","83","structured_normal,structured_load,structured_incentive,random","4,2,2,3,1,2","3,1,2,4","true","","",""
"null","","html-keyboard-response","239","130965","0.0-239.0","3DR23U6WE60BLQTW4OR7USTIJQ3TE2","A2WWYVKGZZXBOB","3WUVMVA7OBP2V5NP3991VE8MBDEZA7","","<img src=""img/set1/S1.jpg"" width=""540"" height = ""360"" style=""border:16px solid orange"">","null","","","","","","","","","",""
"null","","html-keyboard-response","240","131191","0.0-240.0","3DR23U6WE60BLQTW4OR7USTIJQ3TE2","A2WWYVKGZZXBOB","3WUVMVA7OBP2V5NP3991VE8MBDEZA7","","","null","","","","","","","","","",""
"416","","image-keyboard-response","241","131608","0.0-241.0","3DR23U6WE60BLQTW4OR7USTIJQ3TE2","A2WWYVKGZZXBOB","3WUVMVA7OBP2V5NP3991VE8MBDEZA7","","img/set1/S1.jpg","83","1","structured_normal","83","structured_normal,structured_load,structured_incentive,random","4,2,2,3,1,2","3,1,2,4","true","","",""
"null","","html-keyboard-response","242","131965","0.0-242.0","3DR23U6WE60BLQTW4OR7USTIJQ3TE2","A2WWYVKGZZXBOB","3WUVMVA7OBP2V5NP3991VE8MBDEZA7","","<img src=""img/set1/S1.jpg"" width=""540"" height = ""360"" style=""border:16px solid orange"">","null","","","","","","","","","",""
"null","","html-keyboard-response","243","132167","0.0-243.0","3DR23U6WE60BLQTW4OR7USTIJQ3TE2","A2WWYVKGZZXBOB","3WUVMVA7OBP2V5NP3991VE8MBDEZA7","","","null","","","","","","","","","",""
"666","","image-keyboard-response","244","132837","0.0-244.0","3DR23U6WE60BLQTW4OR7USTIJQ3TE2","A2WWYVKGZZXBOB","3WUVMVA7OBP2V5NP3991VE8MBDEZA7","","img/set1/S2.jpg","68","2","structured_normal","68","structured_normal,structured_load,structured_incentive,random","4,2,2,3,1,2","3,1,2,4","true","","",""
"null","","html-keyboard-response","245","133201","0.0-245.0","3DR23U6WE60BLQTW4OR7USTIJQ3TE2","A2WWYVKGZZXBOB","3WUVMVA7OBP2V5NP3991VE8MBDEZA7","","<img src=""img/set1/S2.jpg"" width=""540"" height = ""360"" style=""border:16px solid orange"">","null","","","","","","","","","",""
"null","","html-keyboard-response","246","133411","0.0-246.0","3DR23U6WE60BLQTW4OR7USTIJQ3TE2","A2WWYVKGZZXBOB","3WUVMVA7OBP2V5NP3991VE8MBDEZA7","","","null","","","","","","","","","",""
"756","","image-keyboard-response","247","134168","0.0-247.0","3DR23U6WE60BLQTW4OR7USTIJQ3TE2","A2WWYVKGZZXBOB","3WUVMVA7OBP2V5NP3991VE8MBDEZA7","","img/set1/S3.jpg","72","3","structured_normal","72","structured_normal,structured_load,structured_incentive,random","4,2,2,3,1,2","3,1,2,4","true","","",""
"null","","html-keyboard-response","248","134528","0.0-248.0","3DR23U6WE60BLQTW4OR7USTIJQ3TE2","A2WWYVKGZZXBOB","3WUVMVA7OBP2V5NP3991VE8MBDEZA7","","<img src=""img/set1/S3.jpg"" width=""540"" height = ""360"" style=""border:16px solid orange"">","null","","","","","","","","","",""
"null","","html-keyboard-response","249","134738","0.0-249.0","3DR23U6WE60BLQTW4OR7USTIJQ3TE2","A2WWYVKGZZXBOB","3WUVMVA7OBP2V5NP3991VE8MBDEZA7","","","null","","","","","","","","","",""
"717","","image-keyboard-response","250","135456","0.0-250.0","3DR23U6WE60BLQTW4OR7USTIJQ3TE2","A2WWYVKGZZXBOB","3WUVMVA7OBP2V5NP3991VE8MBDEZA7","","img/set1/S1.jpg","83","1","structured_normal","83","structured_normal,structured_load,structured_incentive,random","4,2,2,3,1,2","3,1,2,4","true","","",""
"null","","html-keyboard-response","251","135808","0.0-251.0","3DR23U6WE60BLQTW4OR7USTIJQ3TE2","A2WWYVKGZZXBOB","3WUVMVA7OBP2V5NP3991VE8MBDEZA7","","<img src=""img/set1/S1.jpg"" width=""540"" height = ""360"" style=""border:16px solid orange"">","null","","","","","","","","","",""
"null","","html-keyboard-response","252","136018","0.0-252.0","3DR23U6WE60BLQTW4OR7USTIJQ3TE2","A2WWYVKGZZXBOB","3WUVMVA7OBP2V5NP3991VE8MBDEZA7","","","null","","","","","","","","","",""
"421","","image-keyboard-response","253","136440","0.0-253.0","3DR23U6WE60BLQTW4OR7USTIJQ3TE2","A2WWYVKGZZXBOB","3WUVMVA7OBP2V5NP3991VE8MBDEZA7","","img/set1/S1.jpg","83","1","structured_normal","83","structured_normal,structured_load,structured_incentive,random","4,2,2,3,1,2","3,1,2,4","true","","",""
"null","","html-keyboard-response","254","136803","0.0-254.0","3DR23U6WE60BLQTW4OR7USTIJQ3TE2","A2WWYVKGZZXBOB","3WUVMVA7OBP2V5NP3991VE8MBDEZA7","","<img src=""img/set1/S1.jpg"" width=""540"" height = ""360"" style=""border:16px solid orange"">","null","","","","","","","","","",""
"null","","html-keyboard-response","255","137010","0.0-255.0","3DR23U6WE60BLQTW4OR7USTIJQ3TE2","A2WWYVKGZZXBOB","3WUVMVA7OBP2V5NP3991VE8MBDEZA7","","","null","","","","","","","","","",""
"1211","","image-keyboard-response","256","138224","0.0-256.0","3DR23U6WE60BLQTW4OR7USTIJQ3TE2","A2WWYVKGZZXBOB","3WUVMVA7OBP2V5NP3991VE8MBDEZA7","","img/set1/S4.jpg","74","4","structured_normal","74","structured_normal,structured_load,structured_incentive,random","4,2,2,3,1,2","3,1,2,4","true","","",""
"null","","html-keyboard-response","257","138580","0.0-257.0","3DR23U6WE60BLQTW4OR7USTIJQ3TE2","A2WWYVKGZZXBOB","3WUVMVA7OBP2V5NP3991VE8MBDEZA7","","<img src=""img/set1/S4.jpg"" width=""540"" height = ""360"" style=""border:16px solid orange"">","null","","","","","","","","","",""
"null","","html-keyboard-response","258","138791","0.0-258.0","3DR23U6WE60BLQTW4OR7USTIJQ3TE2","A2WWYVKGZZXBOB","3WUVMVA7OBP2V5NP3991VE8MBDEZA7","","","null","","","","","","","","","",""
"1023","","image-keyboard-response","259","139816","0.0-259.0","3DR23U6WE60BLQTW4OR7USTIJQ3TE2","A2WWYVKGZZXBOB","3WUVMVA7OBP2V5NP3991VE8MBDEZA7","","img/set1/S2.jpg","68","2","structured_normal","68","structured_normal,structured_load,structured_incentive,random","4,2,2,3,1,2","3,1,2,4","true","","",""
"null","","html-keyboard-response","260","140175","0.0-260.0","3DR23U6WE60BLQTW4OR7USTIJQ3TE2","A2WWYVKGZZXBOB","3WUVMVA7OBP2V5NP3991VE8MBDEZA7","","<img src=""img/set1/S2.jpg"" width=""540"" height = ""360"" style=""border:16px solid orange"">","null","","","","","","","","","",""
"null","","html-keyboard-response","261","140385","0.0-261.0","3DR23U6WE60BLQTW4OR7USTIJQ3TE2","A2WWYVKGZZXBOB","3WUVMVA7OBP2V5NP3991VE8MBDEZA7","","","null","","","","","","","","","",""
"894","","image-keyboard-response","262","141280","0.0-262.0","3DR23U6WE60BLQTW4OR7USTIJQ3TE2","A2WWYVKGZZXBOB","3WUVMVA7OBP2V5NP3991VE8MBDEZA7","","img/set1/S1.jpg","83","1","structured_normal","83","structured_normal,structured_load,structured_incentive,random","4,2,2,3,1,2","3,1,2,4","true","","",""
"null","","html-keyboard-response","263","141638","0.0-263.0","3DR23U6WE60BLQTW4OR7USTIJQ3TE2","A2WWYVKGZZXBOB","3WUVMVA7OBP2V5NP3991VE8MBDEZA7","","<img src=""img/set1/S1.jpg"" width=""540"" height = ""360"" style=""border:16px solid orange"">","null","","","","","","","","","",""
"null","","html-keyboard-response","264","141846","0.0-264.0","3DR23U6WE60BLQTW4OR7USTIJQ3TE2","A2WWYVKGZZXBOB","3WUVMVA7OBP2V5NP3991VE8MBDEZA7","","","null","","","","","","","","","",""
"880","","image-keyboard-response","265","142727","0.0-265.0","3DR23U6WE60BLQTW4OR7USTIJQ3TE2","A2WWYVKGZZXBOB","3WUVMVA7OBP2V5NP3991VE8MBDEZA7","","img/set1/S3.jpg","68","3","structured_normal","72","structured_normal,structured_load,structured_incentive,random","4,2,2,3,1,2","3,1,2,4","false","","",""
"null","","html-keyboard-response","266","143081","0.0-266.0","3DR23U6WE60BLQTW4OR7USTIJQ3TE2","A2WWYVKGZZXBOB","3WUVMVA7OBP2V5NP3991VE8MBDEZA7","","<img src=""img/set1/S3.jpg"" width=""540"" height = ""360"">","null","","","","","","","","","",""
"null","","html-keyboard-response","267","143295","0.0-267.0","3DR23U6WE60BLQTW4OR7USTIJQ3TE2","A2WWYVKGZZXBOB","3WUVMVA7OBP2V5NP3991VE8MBDEZA7","","","null","","","","","","","","","",""
"440","","image-keyboard-response","268","143737","0.0-268.0","3DR23U6WE60BLQTW4OR7USTIJQ3TE2","A2WWYVKGZZXBOB","3WUVMVA7OBP2V5NP3991VE8MBDEZA7","","img/set1/S3.jpg","72","3","structured_normal","72","structured_normal,structured_load,structured_incentive,random","4,2,2,3,1,2","3,1,2,4","true","","",""
"null","","html-keyboard-response","269","144090","0.0-269.0","3DR23U6WE60BLQTW4OR7USTIJQ3TE2","A2WWYVKGZZXBOB","3WUVMVA7OBP2V5NP3991VE8MBDEZA7","","<img src=""img/set1/S3.jpg"" width=""540"" height = ""360"" style=""border:16px solid orange"">","null","","","","","","","","","",""
"null","","html-keyboard-response","270","144293","0.0-270.0","3DR23U6WE60BLQTW4OR7USTIJQ3TE2","A2WWYVKGZZXBOB","3WUVMVA7OBP2V5NP3991VE8MBDEZA7","","","null","","","","","","","","","",""
"323","","image-keyboard-response","271","144615","0.0-271.0","3DR23U6WE60BLQTW4OR7USTIJQ3TE2","A2WWYVKGZZXBOB","3WUVMVA7OBP2V5NP3991VE8MBDEZA7","","img/set1/S3.jpg","72","3","structured_normal","72","structured_normal,structured_load,structured_incentive,random","4,2,2,3,1,2","3,1,2,4","true","","",""
"null","","html-keyboard-response","272","144976","0.0-272.0","3DR23U6WE60BLQTW4OR7USTIJQ3TE2","A2WWYVKGZZXBOB","3WUVMVA7OBP2V5NP3991VE8MBDEZA7","","<img src=""img/set1/S3.jpg"" width=""540"" height = ""360"" style=""border:16px solid orange"">","null","","","","","","","","","",""
"null","","html-keyboard-response","273","145186","0.0-273.0","3DR23U6WE60BLQTW4OR7USTIJQ3TE2","A2WWYVKGZZXBOB","3WUVMVA7OBP2V5NP3991VE8MBDEZA7","","","null","","","","","","","","","",""
"580","","image-keyboard-response","274","145768","0.0-274.0","3DR23U6WE60BLQTW4OR7USTIJQ3TE2","A2WWYVKGZZXBOB","3WUVMVA7OBP2V5NP3991VE8MBDEZA7","","img/set1/S1.jpg","83","1","structured_normal","83","structured_normal,structured_load,structured_incentive,random","4,2,2,3,1,2","3,1,2,4","true","","",""
"null","","html-keyboard-response","275","146126","0.0-275.0","3DR23U6WE60BLQTW4OR7USTIJQ3TE2","A2WWYVKGZZXBOB","3WUVMVA7OBP2V5NP3991VE8MBDEZA7","","<img src=""img/set1/S1.jpg"" width=""540"" height = ""360"" style=""border:16px solid orange"">","null","","","","","","","","","",""
"null","","html-keyboard-response","276","146336","0.0-276.0","3DR23U6WE60BLQTW4OR7USTIJQ3TE2","A2WWYVKGZZXBOB","3WUVMVA7OBP2V5NP3991VE8MBDEZA7","","","null","","","","","","","","","",""
"622","","image-keyboard-response","277","146959","0.0-277.0","3DR23U6WE60BLQTW4OR7USTIJQ3TE2","A2WWYVKGZZXBOB","3WUVMVA7OBP2V5NP3991VE8MBDEZA7","","img/set1/S4.jpg","74","4","structured_normal","74","structured_normal,structured_load,structured_incentive,random","4,2,2,3,1,2","3,1,2,4","true","","",""
"null","","html-keyboard-response","278","147316","0.0-278.0","3DR23U6WE60BLQTW4OR7USTIJQ3TE2","A2WWYVKGZZXBOB","3WUVMVA7OBP2V5NP3991VE8MBDEZA7","","<img src=""img/set1/S4.jpg"" width=""540"" height = ""360"" style=""border:16px solid orange"">","null","","","","","","","","","",""
"null","","html-keyboard-response","279","147526","0.0-279.0","3DR23U6WE60BLQTW4OR7USTIJQ3TE2","A2WWYVKGZZXBOB","3WUVMVA7OBP2V5NP3991VE8MBDEZA7","","","null","","","","","","","","","",""
"741","","image-keyboard-response","280","148267","0.0-280.0","3DR23U6WE60BLQTW4OR7USTIJQ3TE2","A2WWYVKGZZXBOB","3WUVMVA7OBP2V5NP3991VE8MBDEZA7","","img/set1/S2.jpg","83","2","structured_normal","68","structured_normal,structured_load,structured_incentive,random","4,2,2,3,1,2","3,1,2,4","false","","",""
"null","","html-keyboard-response","281","148628","0.0-281.0","3DR23U6WE60BLQTW4OR7USTIJQ3TE2","A2WWYVKGZZXBOB","3WUVMVA7OBP2V5NP3991VE8MBDEZA7","","<img src=""img/set1/S2.jpg"" width=""540"" height = ""360"">","null","","","","","","","","","",""
"null","","html-keyboard-response","282","148838","0.0-282.0","3DR23U6WE60BLQTW4OR7USTIJQ3TE2","A2WWYVKGZZXBOB","3WUVMVA7OBP2V5NP3991VE8MBDEZA7","","","null","","","","","","","","","",""
"641","","image-keyboard-response","283","149481","0.0-283.0","3DR23U6WE60BLQTW4OR7USTIJQ3TE2","A2WWYVKGZZXBOB","3WUVMVA7OBP2V5NP3991VE8MBDEZA7","","img/set1/S4.jpg","74","4","structured_normal","74","structured_normal,structured_load,structured_incentive,random","4,2,2,3,1,2","3,1,2,4","true","","",""
"null","","html-keyboard-response","284","149841","0.0-284.0","3DR23U6WE60BLQTW4OR7USTIJQ3TE2","A2WWYVKGZZXBOB","3WUVMVA7OBP2V5NP3991VE8MBDEZA7","","<img src=""img/set1/S4.jpg"" width=""540"" height = ""360"" style=""border:16px solid orange"">","null","","","","","","","","","",""
"null","","html-keyboard-response","285","150047","0.0-285.0","3DR23U6WE60BLQTW4OR7USTIJQ3TE2","A2WWYVKGZZXBOB","3WUVMVA7OBP2V5NP3991VE8MBDEZA7","","","null","","","","","","","","","",""
"686","","image-keyboard-response","286","150736","0.0-286.0","3DR23U6WE60BLQTW4OR7USTIJQ3TE2","A2WWYVKGZZXBOB","3WUVMVA7OBP2V5NP3991VE8MBDEZA7","","img/set1/S2.jpg","68","2","structured_normal","68","structured_normal,structured_load,structured_incentive,random","4,2,2,3,1,2","3,1,2,4","true","","",""
"null","","html-keyboard-response","287","151090","0.0-287.0","3DR23U6WE60BLQTW4OR7USTIJQ3TE2","A2WWYVKGZZXBOB","3WUVMVA7OBP2V5NP3991VE8MBDEZA7","","<img src=""img/set1/S2.jpg"" width=""540"" height = ""360"" style=""border:16px solid orange"">","null","","","","","","","","","",""
"null","","html-keyboard-response","288","151301","0.0-288.0","3DR23U6WE60BLQTW4OR7USTIJQ3TE2","A2WWYVKGZZXBOB","3WUVMVA7OBP2V5NP3991VE8MBDEZA7","","","null","","","","","","","","","",""
"824","","image-keyboard-response","289","152127","0.0-289.0","3DR23U6WE60BLQTW4OR7USTIJQ3TE2","A2WWYVKGZZXBOB","3WUVMVA7OBP2V5NP3991VE8MBDEZA7","","img/set1/S1.jpg","83","1","structured_normal","83","structured_normal,structured_load,structured_incentive,random","4,2,2,3,1,2","3,1,2,4","true","","",""
"null","","html-keyboard-response","290","152481","0.0-290.0","3DR23U6WE60BLQTW4OR7USTIJQ3TE2","A2WWYVKGZZXBOB","3WUVMVA7OBP2V5NP3991VE8MBDEZA7","","<img src=""img/set1/S1.jpg"" width=""540"" height = ""360"" style=""border:16px solid orange"">","null","","","","","","","","","",""
"null","","html-keyboard-response","291","152693","0.0-291.0","3DR23U6WE60BLQTW4OR7USTIJQ3TE2","A2WWYVKGZZXBOB","3WUVMVA7OBP2V5NP3991VE8MBDEZA7","","","null","","","","","","","","","",""
"973","","image-keyboard-response","292","153668","0.0-292.0","3DR23U6WE60BLQTW4OR7USTIJQ3TE2","A2WWYVKGZZXBOB","3WUVMVA7OBP2V5NP3991VE8MBDEZA7","","img/set1/S3.jpg","72","3","structured_normal","72","structured_normal,structured_load,structured_incentive,random","4,2,2,3,1,2","3,1,2,4","true","","",""
"null","","html-keyboard-response","293","154029","0.0-293.0","3DR23U6WE60BLQTW4OR7USTIJQ3TE2","A2WWYVKGZZXBOB","3WUVMVA7OBP2V5NP3991VE8MBDEZA7","","<img src=""img/set1/S3.jpg"" width=""540"" height = ""360"" style=""border:16px solid orange"">","null","","","","","","","","","",""
"null","","html-keyboard-response","294","154239","0.0-294.0","3DR23U6WE60BLQTW4OR7USTIJQ3TE2","A2WWYVKGZZXBOB","3WUVMVA7OBP2V5NP3991VE8MBDEZA7","","","null","","","","","","","","","",""
"832","","image-keyboard-response","295","155072","0.0-295.0","3DR23U6WE60BLQTW4OR7USTIJQ3TE2","A2WWYVKGZZXBOB","3WUVMVA7OBP2V5NP3991VE8MBDEZA7","","img/set1/S4.jpg","74","4","structured_normal","74","structured_normal,structured_load,structured_incentive,random","4,2,2,3,1,2","3,1,2,4","true","","",""
"null","","html-keyboard-response","296","155434","0.0-296.0","3DR23U6WE60BLQTW4OR7USTIJQ3TE2","A2WWYVKGZZXBOB","3WUVMVA7OBP2V5NP3991VE8MBDEZA7","","<img src=""img/set1/S4.jpg"" width=""540"" height = ""360"" style=""border:16px solid orange"">","null","","","","","","","","","",""
"null","","html-keyboard-response","297","155640","0.0-297.0","3DR23U6WE60BLQTW4OR7USTIJQ3TE2","A2WWYVKGZZXBOB","3WUVMVA7OBP2V5NP3991VE8MBDEZA7","","","null","","","","","","","","","",""
"894","","image-keyboard-response","298","156535","0.0-298.0","3DR23U6WE60BLQTW4OR7USTIJQ3TE2","A2WWYVKGZZXBOB","3WUVMVA7OBP2V5NP3991VE8MBDEZA7","","img/set1/S2.jpg","72","2","structured_normal","68","structured_normal,structured_load,structured_incentive,random","4,2,2,3,1,2","3,1,2,4","false","","",""
"null","","html-keyboard-response","299","156894","0.0-299.0","3DR23U6WE60BLQTW4OR7USTIJQ3TE2","A2WWYVKGZZXBOB","3WUVMVA7OBP2V5NP3991VE8MBDEZA7","","<img src=""img/set1/S2.jpg"" width=""540"" height = ""360"">","null","","","","","","","","","",""
"null","","html-keyboard-response","300","157105","0.0-300.0","3DR23U6WE60BLQTW4OR7USTIJQ3TE2","A2WWYVKGZZXBOB","3WUVMVA7OBP2V5NP3991VE8MBDEZA7","","","null","","","","","","","","","",""
"743","","image-keyboard-response","301","157849","0.0-301.0","3DR23U6WE60BLQTW4OR7USTIJQ3TE2","A2WWYVKGZZXBOB","3WUVMVA7OBP2V5NP3991VE8MBDEZA7","","img/set1/S3.jpg","72","3","structured_normal","72","structured_normal,structured_load,structured_incentive,random","4,2,2,3,1,2","3,1,2,4","true","","",""
"null","","html-keyboard-response","302","158205","0.0-302.0","3DR23U6WE60BLQTW4OR7USTIJQ3TE2","A2WWYVKGZZXBOB","3WUVMVA7OBP2V5NP3991VE8MBDEZA7","","<img src=""img/set1/S3.jpg"" width=""540"" height = ""360"" style=""border:16px solid orange"">","null","","","","","","","","","",""
"null","","html-keyboard-response","303","158415","0.0-303.0","3DR23U6WE60BLQTW4OR7USTIJQ3TE2","A2WWYVKGZZXBOB","3WUVMVA7OBP2V5NP3991VE8MBDEZA7","","","null","","","","","","","","","",""
"680","","image-keyboard-response","304","159097","0.0-304.0","3DR23U6WE60BLQTW4OR7USTIJQ3TE2","A2WWYVKGZZXBOB","3WUVMVA7OBP2V5NP3991VE8MBDEZA7","","img/set1/S1.jpg","83","1","structured_normal","83","structured_normal,structured_load,structured_incentive,random","4,2,2,3,1,2","3,1,2,4","true","","",""
"null","","html-keyboard-response","305","159449","0.0-305.0","3DR23U6WE60BLQTW4OR7USTIJQ3TE2","A2WWYVKGZZXBOB","3WUVMVA7OBP2V5NP3991VE8MBDEZA7","","<img src=""img/set1/S1.jpg"" width=""540"" height = ""360"" style=""border:16px solid orange"">","null","","","","","","","","","",""
"null","","html-keyboard-response","306","159661","0.0-306.0","3DR23U6WE60BLQTW4OR7USTIJQ3TE2","A2WWYVKGZZXBOB","3WUVMVA7OBP2V5NP3991VE8MBDEZA7","","","null","","","","","","","","","",""
"521","","image-keyboard-response","307","160184","0.0-307.0","3DR23U6WE60BLQTW4OR7USTIJQ3TE2","A2WWYVKGZZXBOB","3WUVMVA7OBP2V5NP3991VE8MBDEZA7","","img/set1/S1.jpg","83","1","structured_normal","83","structured_normal,structured_load,structured_incentive,random","4,2,2,3,1,2","3,1,2,4","true","","",""
"null","","html-keyboard-response","308","160540","0.0-308.0","3DR23U6WE60BLQTW4OR7USTIJQ3TE2","A2WWYVKGZZXBOB","3WUVMVA7OBP2V5NP3991VE8MBDEZA7","","<img src=""img/set1/S1.jpg"" width=""540"" height = ""360"" style=""border:16px solid orange"">","null","","","","","","","","","",""
"null","","html-keyboard-response","309","160746","0.0-309.0","3DR23U6WE60BLQTW4OR7USTIJQ3TE2","A2WWYVKGZZXBOB","3WUVMVA7OBP2V5NP3991VE8MBDEZA7","","","null","","","","","","","","","",""
"1147","","image-keyboard-response","310","161895","0.0-310.0","3DR23U6WE60BLQTW4OR7USTIJQ3TE2","A2WWYVKGZZXBOB","3WUVMVA7OBP2V5NP3991VE8MBDEZA7","","img/set1/S3.jpg","72","3","structured_normal","72","structured_normal,structured_load,structured_incentive,random","4,2,2,3,1,2","3,1,2,4","true","","",""
"null","","html-keyboard-response","311","162248","0.0-311.0","3DR23U6WE60BLQTW4OR7USTIJQ3TE2","A2WWYVKGZZXBOB","3WUVMVA7OBP2V5NP3991VE8MBDEZA7","","<img src=""img/set1/S3.jpg"" width=""540"" height = ""360"" style=""border:16px solid orange"">","null","","","","","","","","","",""
"null","","html-keyboard-response","312","162452","0.0-312.0","3DR23U6WE60BLQTW4OR7USTIJQ3TE2","A2WWYVKGZZXBOB","3WUVMVA7OBP2V5NP3991VE8MBDEZA7","","","null","","","","","","","","","",""
"843","","image-keyboard-response","313","163298","0.0-313.0","3DR23U6WE60BLQTW4OR7USTIJQ3TE2","A2WWYVKGZZXBOB","3WUVMVA7OBP2V5NP3991VE8MBDEZA7","","img/set1/S4.jpg","74","4","structured_normal","74","structured_normal,structured_load,structured_incentive,random","4,2,2,3,1,2","3,1,2,4","true","","",""
"null","","html-keyboard-response","314","163652","0.0-314.0","3DR23U6WE60BLQTW4OR7USTIJQ3TE2","A2WWYVKGZZXBOB","3WUVMVA7OBP2V5NP3991VE8MBDEZA7","","<img src=""img/set1/S4.jpg"" width=""540"" height = ""360"" style=""border:16px solid orange"">","null","","","","","","","","","",""
"null","","html-keyboard-response","315","163862","0.0-315.0","3DR23U6WE60BLQTW4OR7USTIJQ3TE2","A2WWYVKGZZXBOB","3WUVMVA7OBP2V5NP3991VE8MBDEZA7","","","null","","","","","","","","","",""
"640","","image-keyboard-response","316","164503","0.0-316.0","3DR23U6WE60BLQTW4OR7USTIJQ3TE2","A2WWYVKGZZXBOB","3WUVMVA7OBP2V5NP3991VE8MBDEZA7","","img/set1/S2.jpg","68","2","structured_normal","68","structured_normal,structured_load,structured_incentive,random","4,2,2,3,1,2","3,1,2,4","true","","",""
"null","","html-keyboard-response","317","164863","0.0-317.0","3DR23U6WE60BLQTW4OR7USTIJQ3TE2","A2WWYVKGZZXBOB","3WUVMVA7OBP2V5NP3991VE8MBDEZA7","","<img src=""img/set1/S2.jpg"" width=""540"" height = ""360"" style=""border:16px solid orange"">","null","","","","","","","","","",""
"null","","html-keyboard-response","318","165075","0.0-318.0","3DR23U6WE60BLQTW4OR7USTIJQ3TE2","A2WWYVKGZZXBOB","3WUVMVA7OBP2V5NP3991VE8MBDEZA7","","","null","","","","","","","","","",""
"788","","image-keyboard-response","319","165864","0.0-319.0","3DR23U6WE60BLQTW4OR7USTIJQ3TE2","A2WWYVKGZZXBOB","3WUVMVA7OBP2V5NP3991VE8MBDEZA7","","img/set1/S4.jpg","74","4","structured_normal","74","structured_normal,structured_load,structured_incentive,random","4,2,2,3,1,2","3,1,2,4","true","","",""
"null","","html-keyboard-response","320","166219","0.0-320.0","3DR23U6WE60BLQTW4OR7USTIJQ3TE2","A2WWYVKGZZXBOB","3WUVMVA7OBP2V5NP3991VE8MBDEZA7","","<img src=""img/set1/S4.jpg"" width=""540"" height = ""360"" style=""border:16px solid orange"">","null","","","","","","","","","",""
"null","","html-keyboard-response","321","166430","0.0-321.0","3DR23U6WE60BLQTW4OR7USTIJQ3TE2","A2WWYVKGZZXBOB","3WUVMVA7OBP2V5NP3991VE8MBDEZA7","","","null","","","","","","","","","",""
"641","","image-keyboard-response","322","167072","0.0-322.0","3DR23U6WE60BLQTW4OR7USTIJQ3TE2","A2WWYVKGZZXBOB","3WUVMVA7OBP2V5NP3991VE8MBDEZA7","","img/set1/S2.jpg","68","2","structured_normal","68","structured_normal,structured_load,structured_incentive,random","4,2,2,3,1,2","3,1,2,4","true","","",""
"null","","html-keyboard-response","323","167430","0.0-323.0","3DR23U6WE60BLQTW4OR7USTIJQ3TE2","A2WWYVKGZZXBOB","3WUVMVA7OBP2V5NP3991VE8MBDEZA7","","<img src=""img/set1/S2.jpg"" width=""540"" height = ""360"" style=""border:16px solid orange"">","null","","","","","","","","","",""
"null","","html-keyboard-response","324","167640","0.0-324.0","3DR23U6WE60BLQTW4OR7USTIJQ3TE2","A2WWYVKGZZXBOB","3WUVMVA7OBP2V5NP3991VE8MBDEZA7","","","null","","","","","","","","","",""
"861","","image-keyboard-response","325","168503","0.0-325.0","3DR23U6WE60BLQTW4OR7USTIJQ3TE2","A2WWYVKGZZXBOB","3WUVMVA7OBP2V5NP3991VE8MBDEZA7","","img/set1/S4.jpg","74","4","structured_normal","74","structured_normal,structured_load,structured_incentive,random","4,2,2,3,1,2","3,1,2,4","true","","",""
"null","","html-keyboard-response","326","168856","0.0-326.0","3DR23U6WE60BLQTW4OR7USTIJQ3TE2","A2WWYVKGZZXBOB","3WUVMVA7OBP2V5NP3991VE8MBDEZA7","","<img src=""img/set1/S4.jpg"" width=""540"" height = ""360"" style=""border:16px solid orange"">","null","","","","","","","","","",""
"null","","html-keyboard-response","327","169066","0.0-327.0","3DR23U6WE60BLQTW4OR7USTIJQ3TE2","A2WWYVKGZZXBOB","3WUVMVA7OBP2V5NP3991VE8MBDEZA7","","","null","","","","","","","","","",""
"532","","image-keyboard-response","328","169600","0.0-328.0","3DR23U6WE60BLQTW4OR7USTIJQ3TE2","A2WWYVKGZZXBOB","3WUVMVA7OBP2V5NP3991VE8MBDEZA7","","img/set1/S2.jpg","68","2","structured_normal","68","structured_normal,structured_load,structured_incentive,random","4,2,2,3,1,2","3,1,2,4","true","","",""
"null","","html-keyboard-response","329","169955","0.0-329.0","3DR23U6WE60BLQTW4OR7USTIJQ3TE2","A2WWYVKGZZXBOB","3WUVMVA7OBP2V5NP3991VE8MBDEZA7","","<img src=""img/set1/S2.jpg"" width=""540"" height = ""360"" style=""border:16px solid orange"">","null","","","","","","","","","",""
"null","","html-keyboard-response","330","170173","0.0-330.0","3DR23U6WE60BLQTW4OR7USTIJQ3TE2","A2WWYVKGZZXBOB","3WUVMVA7OBP2V5NP3991VE8MBDEZA7","","","null","","","","","","","","","",""
"610","","image-keyboard-response","331","170783","0.0-331.0","3DR23U6WE60BLQTW4OR7USTIJQ3TE2","A2WWYVKGZZXBOB","3WUVMVA7OBP2V5NP3991VE8MBDEZA7","","img/set1/S4.jpg","74","4","structured_normal","74","structured_normal,structured_load,structured_incentive,random","4,2,2,3,1,2","3,1,2,4","true","","",""
"null","","html-keyboard-response","332","171138","0.0-332.0","3DR23U6WE60BLQTW4OR7USTIJQ3TE2","A2WWYVKGZZXBOB","3WUVMVA7OBP2V5NP3991VE8MBDEZA7","","<img src=""img/set1/S4.jpg"" width=""540"" height = ""360"" style=""border:16px solid orange"">","null","","","","","","","","","",""
"null","","html-keyboard-response","333","171339","0.0-333.0","3DR23U6WE60BLQTW4OR7USTIJQ3TE2","A2WWYVKGZZXBOB","3WUVMVA7OBP2V5NP3991VE8MBDEZA7","","","null","","","","","","","","","",""
"436","","image-keyboard-response","334","171775","0.0-334.0","3DR23U6WE60BLQTW4OR7USTIJQ3TE2","A2WWYVKGZZXBOB","3WUVMVA7OBP2V5NP3991VE8MBDEZA7","","img/set1/S2.jpg","68","2","structured_normal","68","structured_normal,structured_load,structured_incentive,random","4,2,2,3,1,2","3,1,2,4","true","","",""
"null","","html-keyboard-response","335","172131","0.0-335.0","3DR23U6WE60BLQTW4OR7USTIJQ3TE2","A2WWYVKGZZXBOB","3WUVMVA7OBP2V5NP3991VE8MBDEZA7","","<img src=""img/set1/S2.jpg"" width=""540"" height = ""360"" style=""border:16px solid orange"">","null","","","","","","","","","",""
"null","","html-keyboard-response","336","172342","0.0-336.0","3DR23U6WE60BLQTW4OR7USTIJQ3TE2","A2WWYVKGZZXBOB","3WUVMVA7OBP2V5NP3991VE8MBDEZA7","","","null","","","","","","","","","",""
"532","","image-keyboard-response","337","172875","0.0-337.0","3DR23U6WE60BLQTW4OR7USTIJQ3TE2","A2WWYVKGZZXBOB","3WUVMVA7OBP2V5NP3991VE8MBDEZA7","","img/set1/S1.jpg","83","1","structured_normal","83","structured_normal,structured_load,structured_incentive,random","4,2,2,3,1,2","3,1,2,4","true","","",""
"null","","html-keyboard-response","338","173232","0.0-338.0","3DR23U6WE60BLQTW4OR7USTIJQ3TE2","A2WWYVKGZZXBOB","3WUVMVA7OBP2V5NP3991VE8MBDEZA7","","<img src=""img/set1/S1.jpg"" width=""540"" height = ""360"" style=""border:16px solid orange"">","null","","","","","","","","","",""
"null","","html-keyboard-response","339","173442","0.0-339.0","3DR23U6WE60BLQTW4OR7USTIJQ3TE2","A2WWYVKGZZXBOB","3WUVMVA7OBP2V5NP3991VE8MBDEZA7","","","null","","","","","","","","","",""
"941","","image-keyboard-response","340","174385","0.0-340.0","3DR23U6WE60BLQTW4OR7USTIJQ3TE2","A2WWYVKGZZXBOB","3WUVMVA7OBP2V5NP3991VE8MBDEZA7","","img/set1/S4.jpg","74","4","structured_normal","74","structured_normal,structured_load,structured_incentive,random","4,2,2,3,1,2","3,1,2,4","true","","",""
"null","","html-keyboard-response","341","174742","0.0-341.0","3DR23U6WE60BLQTW4OR7USTIJQ3TE2","A2WWYVKGZZXBOB","3WUVMVA7OBP2V5NP3991VE8MBDEZA7","","<img src=""img/set1/S4.jpg"" width=""540"" height = ""360"" style=""border:16px solid orange"">","null","","","","","","","","","",""
"null","","html-keyboard-response","342","174951","0.0-342.0","3DR23U6WE60BLQTW4OR7USTIJQ3TE2","A2WWYVKGZZXBOB","3WUVMVA7OBP2V5NP3991VE8MBDEZA7","","","null","","","","","","","","","",""
"935","","image-keyboard-response","343","175888","0.0-343.0","3DR23U6WE60BLQTW4OR7USTIJQ3TE2","A2WWYVKGZZXBOB","3WUVMVA7OBP2V5NP3991VE8MBDEZA7","","img/set1/S2.jpg","68","2","structured_normal","68","structured_normal,structured_load,structured_incentive,random","4,2,2,3,1,2","3,1,2,4","true","","",""
"null","","html-keyboard-response","344","176244","0.0-344.0","3DR23U6WE60BLQTW4OR7USTIJQ3TE2","A2WWYVKGZZXBOB","3WUVMVA7OBP2V5NP3991VE8MBDEZA7","","<img src=""img/set1/S2.jpg"" width=""540"" height = ""360"" style=""border:16px solid orange"">","null","","","","","","","","","",""
"null","","html-keyboard-response","345","176451","0.0-345.0","3DR23U6WE60BLQTW4OR7USTIJQ3TE2","A2WWYVKGZZXBOB","3WUVMVA7OBP2V5NP3991VE8MBDEZA7","","","null","","","","","","","","","",""
"932","","image-keyboard-response","346","177384","0.0-346.0","3DR23U6WE60BLQTW4OR7USTIJQ3TE2","A2WWYVKGZZXBOB","3WUVMVA7OBP2V5NP3991VE8MBDEZA7","","img/set1/S3.jpg","72","3","structured_normal","72","structured_normal,structured_load,structured_incentive,random","4,2,2,3,1,2","3,1,2,4","true","","",""
"null","","html-keyboard-response","347","177744","0.0-347.0","3DR23U6WE60BLQTW4OR7USTIJQ3TE2","A2WWYVKGZZXBOB","3WUVMVA7OBP2V5NP3991VE8MBDEZA7","","<img src=""img/set1/S3.jpg"" width=""540"" height = ""360"" style=""border:16px solid orange"">","null","","","","","","","","","",""
"null","","html-keyboard-response","348","177953","0.0-348.0","3DR23U6WE60BLQTW4OR7USTIJQ3TE2","A2WWYVKGZZXBOB","3WUVMVA7OBP2V5NP3991VE8MBDEZA7","","","null","","","","","","","","","",""
"580","","image-keyboard-response","349","178535","0.0-349.0","3DR23U6WE60BLQTW4OR7USTIJQ3TE2","A2WWYVKGZZXBOB","3WUVMVA7OBP2V5NP3991VE8MBDEZA7","","img/set1/S4.jpg","74","4","structured_normal","74","structured_normal,structured_load,structured_incentive,random","4,2,2,3,1,2","3,1,2,4","true","","",""
"null","","html-keyboard-response","350","178893","0.0-350.0","3DR23U6WE60BLQTW4OR7USTIJQ3TE2","A2WWYVKGZZXBOB","3WUVMVA7OBP2V5NP3991VE8MBDEZA7","","<img src=""img/set1/S4.jpg"" width=""540"" height = ""360"" style=""border:16px solid orange"">","null","","","","","","","","","",""
"null","","html-keyboard-response","351","179105","0.0-351.0","3DR23U6WE60BLQTW4OR7USTIJQ3TE2","A2WWYVKGZZXBOB","3WUVMVA7OBP2V5NP3991VE8MBDEZA7","","","null","","","","","","","","","",""
"534","","image-keyboard-response","352","179640","0.0-352.0","3DR23U6WE60BLQTW4OR7USTIJQ3TE2","A2WWYVKGZZXBOB","3WUVMVA7OBP2V5NP3991VE8MBDEZA7","","img/set1/S3.jpg","72","3","structured_normal","72","structured_normal,structured_load,structured_incentive,random","4,2,2,3,1,2","3,1,2,4","true","","",""
"null","","html-keyboard-response","353","179993","0.0-353.0","3DR23U6WE60BLQTW4OR7USTIJQ3TE2","A2WWYVKGZZXBOB","3WUVMVA7OBP2V5NP3991VE8MBDEZA7","","<img src=""img/set1/S3.jpg"" width=""540"" height = ""360"" style=""border:16px solid orange"">","null","","","","","","","","","",""
"null","","html-keyboard-response","354","180204","0.0-354.0","3DR23U6WE60BLQTW4OR7USTIJQ3TE2","A2WWYVKGZZXBOB","3WUVMVA7OBP2V5NP3991VE8MBDEZA7","","","null","","","","","","","","","",""
"545","","image-keyboard-response","355","180752","0.0-355.0","3DR23U6WE60BLQTW4OR7USTIJQ3TE2","A2WWYVKGZZXBOB","3WUVMVA7OBP2V5NP3991VE8MBDEZA7","","img/set1/S1.jpg","83","1","structured_normal","83","structured_normal,structured_load,structured_incentive,random","4,2,2,3,1,2","3,1,2,4","true","","",""
"null","","html-keyboard-response","356","181103","0.0-356.0","3DR23U6WE60BLQTW4OR7USTIJQ3TE2","A2WWYVKGZZXBOB","3WUVMVA7OBP2V5NP3991VE8MBDEZA7","","<img src=""img/set1/S1.jpg"" width=""540"" height = ""360"" style=""border:16px solid orange"">","null","","","","","","","","","",""
"null","","html-keyboard-response","357","181314","0.0-357.0","3DR23U6WE60BLQTW4OR7USTIJQ3TE2","A2WWYVKGZZXBOB","3WUVMVA7OBP2V5NP3991VE8MBDEZA7","","","null","","","","","","","","","",""
"364","","image-keyboard-response","358","181681","0.0-358.0","3DR23U6WE60BLQTW4OR7USTIJQ3TE2","A2WWYVKGZZXBOB","3WUVMVA7OBP2V5NP3991VE8MBDEZA7","","img/set1/S1.jpg","83","1","structured_normal","83","structured_normal,structured_load,structured_incentive,random","4,2,2,3,1,2","3,1,2,4","true","","",""
"null","","html-keyboard-response","359","182035","0.0-359.0","3DR23U6WE60BLQTW4OR7USTIJQ3TE2","A2WWYVKGZZXBOB","3WUVMVA7OBP2V5NP3991VE8MBDEZA7","","<img src=""img/set1/S1.jpg"" width=""540"" height = ""360"" style=""border:16px solid orange"">","null","","","","","","","","","",""
"null","","html-keyboard-response","360","182248","0.0-360.0","3DR23U6WE60BLQTW4OR7USTIJQ3TE2","A2WWYVKGZZXBOB","3WUVMVA7OBP2V5NP3991VE8MBDEZA7","","","null","","","","","","","","","",""
"971","","image-keyboard-response","361","183222","0.0-361.0","3DR23U6WE60BLQTW4OR7USTIJQ3TE2","A2WWYVKGZZXBOB","3WUVMVA7OBP2V5NP3991VE8MBDEZA7","","img/set1/S3.jpg","72","3","structured_normal","72","structured_normal,structured_load,structured_incentive,random","4,2,2,3,1,2","3,1,2,4","true","","",""
"null","","html-keyboard-response","362","183578","0.0-362.0","3DR23U6WE60BLQTW4OR7USTIJQ3TE2","A2WWYVKGZZXBOB","3WUVMVA7OBP2V5NP3991VE8MBDEZA7","","<img src=""img/set1/S3.jpg"" width=""540"" height = ""360"" style=""border:16px solid orange"">","null","","","","","","","","","",""
"null","","html-keyboard-response","363","183788","0.0-363.0","3DR23U6WE60BLQTW4OR7USTIJQ3TE2","A2WWYVKGZZXBOB","3WUVMVA7OBP2V5NP3991VE8MBDEZA7","","","null","","","","","","","","","",""
"385","","image-keyboard-response","364","184175","0.0-364.0","3DR23U6WE60BLQTW4OR7USTIJQ3TE2","A2WWYVKGZZXBOB","3WUVMVA7OBP2V5NP3991VE8MBDEZA7","","img/set1/S3.jpg","72","3","structured_normal","72","structured_normal,structured_load,structured_incentive,random","4,2,2,3,1,2","3,1,2,4","true","","",""
"null","","html-keyboard-response","365","184529","0.0-365.0","3DR23U6WE60BLQTW4OR7USTIJQ3TE2","A2WWYVKGZZXBOB","3WUVMVA7OBP2V5NP3991VE8MBDEZA7","","<img src=""img/set1/S3.jpg"" width=""540"" height = ""360"" style=""border:16px solid orange"">","null","","","","","","","","","",""
"null","","html-keyboard-response","366","184739","0.0-366.0","3DR23U6WE60BLQTW4OR7USTIJQ3TE2","A2WWYVKGZZXBOB","3WUVMVA7OBP2V5NP3991VE8MBDEZA7","","","null","","","","","","","","","",""
"617","","image-keyboard-response","367","185358","0.0-367.0","3DR23U6WE60BLQTW4OR7USTIJQ3TE2","A2WWYVKGZZXBOB","3WUVMVA7OBP2V5NP3991VE8MBDEZA7","","img/set1/S4.jpg","74","4","structured_normal","74","structured_normal,structured_load,structured_incentive,random","4,2,2,3,1,2","3,1,2,4","true","","",""
"null","","html-keyboard-response","368","185712","0.0-368.0","3DR23U6WE60BLQTW4OR7USTIJQ3TE2","A2WWYVKGZZXBOB","3WUVMVA7OBP2V5NP3991VE8MBDEZA7","","<img src=""img/set1/S4.jpg"" width=""540"" height = ""360"" style=""border:16px solid orange"">","null","","","","","","","","","",""
"null","","html-keyboard-response","369","185924","0.0-369.0","3DR23U6WE60BLQTW4OR7USTIJQ3TE2","A2WWYVKGZZXBOB","3WUVMVA7OBP2V5NP3991VE8MBDEZA7","","","null","","","","","","","","","",""
"909","","image-keyboard-response","370","186835","0.0-370.0","3DR23U6WE60BLQTW4OR7USTIJQ3TE2","A2WWYVKGZZXBOB","3WUVMVA7OBP2V5NP3991VE8MBDEZA7","","img/set1/S2.jpg","68","2","structured_normal","68","structured_normal,structured_load,structured_incentive,random","4,2,2,3,1,2","3,1,2,4","true","","",""
"null","","html-keyboard-response","371","187194","0.0-371.0","3DR23U6WE60BLQTW4OR7USTIJQ3TE2","A2WWYVKGZZXBOB","3WUVMVA7OBP2V5NP3991VE8MBDEZA7","","<img src=""img/set1/S2.jpg"" width=""540"" height = ""360"" style=""border:16px solid orange"">","null","","","","","","","","","",""
"null","","html-keyboard-response","372","187404","0.0-372.0","3DR23U6WE60BLQTW4OR7USTIJQ3TE2","A2WWYVKGZZXBOB","3WUVMVA7OBP2V5NP3991VE8MBDEZA7","","","null","","","","","","","","","",""
"1298","","image-keyboard-response","373","188705","0.0-373.0","3DR23U6WE60BLQTW4OR7USTIJQ3TE2","A2WWYVKGZZXBOB","3WUVMVA7OBP2V5NP3991VE8MBDEZA7","","img/set1/S4.jpg","74","4","structured_normal","74","structured_normal,structured_load,structured_incentive,random","4,2,2,3,1,2","3,1,2,4","true","","",""
"null","","html-keyboard-response","374","189062","0.0-374.0","3DR23U6WE60BLQTW4OR7USTIJQ3TE2","A2WWYVKGZZXBOB","3WUVMVA7OBP2V5NP3991VE8MBDEZA7","","<img src=""img/set1/S4.jpg"" width=""540"" height = ""360"" style=""border:16px solid orange"">","null","","","","","","","","","",""
"null","","html-keyboard-response","375","189270","0.0-375.0","3DR23U6WE60BLQTW4OR7USTIJQ3TE2","A2WWYVKGZZXBOB","3WUVMVA7OBP2V5NP3991VE8MBDEZA7","","","null","","","","","","","","","",""
"1297","","image-keyboard-response","376","190567","0.0-376.0","3DR23U6WE60BLQTW4OR7USTIJQ3TE2","A2WWYVKGZZXBOB","3WUVMVA7OBP2V5NP3991VE8MBDEZA7","","img/set1/S2.jpg","68","2","structured_normal","68","structured_normal,structured_load,structured_incentive,random","4,2,2,3,1,2","3,1,2,4","true","","",""
"null","","html-keyboard-response","377","190921","0.0-377.0","3DR23U6WE60BLQTW4OR7USTIJQ3TE2","A2WWYVKGZZXBOB","3WUVMVA7OBP2V5NP3991VE8MBDEZA7","","<img src=""img/set1/S2.jpg"" width=""540"" height = ""360"" style=""border:16px solid orange"">","null","","","","","","","","","",""
"null","","html-keyboard-response","378","191131","0.0-378.0","3DR23U6WE60BLQTW4OR7USTIJQ3TE2","A2WWYVKGZZXBOB","3WUVMVA7OBP2V5NP3991VE8MBDEZA7","","","null","","","","","","","","","",""
"555","","image-keyboard-response","379","191687","0.0-379.0","3DR23U6WE60BLQTW4OR7USTIJQ3TE2","A2WWYVKGZZXBOB","3WUVMVA7OBP2V5NP3991VE8MBDEZA7","","img/set1/S4.jpg","74","4","structured_normal","74","structured_normal,structured_load,structured_incentive,random","4,2,2,3,1,2","3,1,2,4","true","","",""
"null","","html-keyboard-response","380","192046","0.0-380.0","3DR23U6WE60BLQTW4OR7USTIJQ3TE2","A2WWYVKGZZXBOB","3WUVMVA7OBP2V5NP3991VE8MBDEZA7","","<img src=""img/set1/S4.jpg"" width=""540"" height = ""360"" style=""border:16px solid orange"">","null","","","","","","","","","",""
"null","","html-keyboard-response","381","192251","0.0-381.0","3DR23U6WE60BLQTW4OR7USTIJQ3TE2","A2WWYVKGZZXBOB","3WUVMVA7OBP2V5NP3991VE8MBDEZA7","","","null","","","","","","","","","",""
"332","","image-keyboard-response","382","192583","0.0-382.0","3DR23U6WE60BLQTW4OR7USTIJQ3TE2","A2WWYVKGZZXBOB","3WUVMVA7OBP2V5NP3991VE8MBDEZA7","","img/set1/S2.jpg","68","2","structured_normal","68","structured_normal,structured_load,structured_incentive,random","4,2,2,3,1,2","3,1,2,4","true","","",""
"null","","html-keyboard-response","383","192943","0.0-383.0","3DR23U6WE60BLQTW4OR7USTIJQ3TE2","A2WWYVKGZZXBOB","3WUVMVA7OBP2V5NP3991VE8MBDEZA7","","<img src=""img/set1/S2.jpg"" width=""540"" height = ""360"" style=""border:16px solid orange"">","null","","","","","","","","","",""
"null","","html-keyboard-response","384","193152","0.0-384.0","3DR23U6WE60BLQTW4OR7USTIJQ3TE2","A2WWYVKGZZXBOB","3WUVMVA7OBP2V5NP3991VE8MBDEZA7","","","null","","","","","","","","","",""
"463","","image-keyboard-response","385","193616","0.0-385.0","3DR23U6WE60BLQTW4OR7USTIJQ3TE2","A2WWYVKGZZXBOB","3WUVMVA7OBP2V5NP3991VE8MBDEZA7","","img/set1/S4.jpg","74","4","structured_normal","74","structured_normal,structured_load,structured_incentive,random","4,2,2,3,1,2","3,1,2,4","true","","",""
"null","","html-keyboard-response","386","193972","0.0-386.0","3DR23U6WE60BLQTW4OR7USTIJQ3TE2","A2WWYVKGZZXBOB","3WUVMVA7OBP2V5NP3991VE8MBDEZA7","","<img src=""img/set1/S4.jpg"" width=""540"" height = ""360"" style=""border:16px solid orange"">","null","","","","","","","","","",""
"null","","html-keyboard-response","387","194183","0.0-387.0","3DR23U6WE60BLQTW4OR7USTIJQ3TE2","A2WWYVKGZZXBOB","3WUVMVA7OBP2V5NP3991VE8MBDEZA7","","","null","","","","","","","","","",""
"462","","image-keyboard-response","388","194648","0.0-388.0","3DR23U6WE60BLQTW4OR7USTIJQ3TE2","A2WWYVKGZZXBOB","3WUVMVA7OBP2V5NP3991VE8MBDEZA7","","img/set1/S2.jpg","68","2","structured_normal","68","structured_normal,structured_load,structured_incentive,random","4,2,2,3,1,2","3,1,2,4","true","","",""
"null","","html-keyboard-response","389","195004","0.0-389.0","3DR23U6WE60BLQTW4OR7USTIJQ3TE2","A2WWYVKGZZXBOB","3WUVMVA7OBP2V5NP3991VE8MBDEZA7","","<img src=""img/set1/S2.jpg"" width=""540"" height = ""360"" style=""border:16px solid orange"">","null","","","","","","","","","",""
"null","","html-keyboard-response","390","195214","0.0-390.0","3DR23U6WE60BLQTW4OR7USTIJQ3TE2","A2WWYVKGZZXBOB","3WUVMVA7OBP2V5NP3991VE8MBDEZA7","","","null","","","","","","","","","",""
"218","","image-keyboard-response","391","195433","0.0-391.0","3DR23U6WE60BLQTW4OR7USTIJQ3TE2","A2WWYVKGZZXBOB","3WUVMVA7OBP2V5NP3991VE8MBDEZA7","","img/set1/S3.jpg","74","3","structured_normal","72","structured_normal,structured_load,structured_incentive,random","4,2,2,3,1,2","3,1,2,4","false","","",""
