"rt","url","trial_type","trial_index","time_elapsed","internal_node_id","assignmentID","mturkID","hitID","view_history","stimulus","key_press","state","test_part","correct_response","order_block","order_chunk","order_freq","correct","responses","question_order","bonus"
"631548","consent.html","external-html","0","631671","0.0-0.0","3VNL7UK1XG53R4TSZZBDCAEIUQQTFP","A3774HPOUKYTX7","388CL5C1RJ9X03EZUESK4LKS9TSHL1","","","","","","","","","","","","",""
"172387.90000000596","","instructions","1","804063","0.0-1.0","3VNL7UK1XG53R4TSZZBDCAEIUQQTFP","A3774HPOUKYTX7","388CL5C1RJ9X03EZUESK4LKS9TSHL1","[{""page_index"":0,""viewing_time"":2500.5},{""page_index"":1,""viewing_time"":4125.100000023842},{""page_index"":2,""viewing_time"":4412.899999976158},{""page_index"":3,""viewing_time"":140629.70000001788},{""page_index"":4,""viewing_time"":9400.90000000596},{""page_index"":5,""viewing_time"":6525.899999976158},{""page_index"":6,""viewing_time"":4792.200000017881}]","","","","","","","","","","","",""
"2206.699999988079","","instructions","2","806270","0.0-2.0","3VNL7UK1XG53R4TSZZBDCAEIUQQTFP","A3774HPOUKYTX7","388CL5C1RJ9X03EZUESK4LKS9TSHL1","[{""page_index"":0,""viewing_time"":2206.4000000059605}]","","","","","","","","","","","",""
"8361.600000023842","","instructions","3","814634","0.0-3.0","3VNL7UK1XG53R4TSZZBDCAEIUQQTFP","A3774HPOUKYTX7","388CL5C1RJ9X03EZUESK4LKS9TSHL1","[{""page_index"":0,""viewing_time"":6284},{""page_index"":1,""viewing_time"":2076.600000023842}]","","","","","","","","","","","",""
"2246.0999999940395","","image-keyboard-response","4","816885","0.0-4.0","3VNL7UK1XG53R4TSZZBDCAEIUQQTFP","A3774HPOUKYTX7","388CL5C1RJ9X03EZUESK4LKS9TSHL1","","img/set1/S1.jpg","72","1","structured_load","83","structured_load,random,structured_incentive,structured_normal","3,4,2,1,2,3","2,3,4,1","false","","",""
"null","","html-keyboard-response","5","817239","0.0-5.0","3VNL7UK1XG53R4TSZZBDCAEIUQQTFP","A3774HPOUKYTX7","388CL5C1RJ9X03EZUESK4LKS9TSHL1","","<img src=""img/set1/S1.jpg"" width=""540"" height = ""360"">","null","","","","","","","","","",""
"null","","html-keyboard-response","6","817441","0.0-6.0","3VNL7UK1XG53R4TSZZBDCAEIUQQTFP","A3774HPOUKYTX7","388CL5C1RJ9X03EZUESK4LKS9TSHL1","","","null","","","","","","","","","",""
"592.7000000178814","","image-keyboard-response","7","818036","0.0-7.0","3VNL7UK1XG53R4TSZZBDCAEIUQQTFP","A3774HPOUKYTX7","388CL5C1RJ9X03EZUESK4LKS9TSHL1","","img/set1/S3.jpg","83","3","structured_load","72","structured_load,random,structured_incentive,structured_normal","3,4,2,1,2,3","2,3,4,1","false","","",""
"null","","html-keyboard-response","8","818389","0.0-8.0","3VNL7UK1XG53R4TSZZBDCAEIUQQTFP","A3774HPOUKYTX7","388CL5C1RJ9X03EZUESK4LKS9TSHL1","","<img src=""img/set1/S3.jpg"" width=""540"" height = ""360"">","null","","","","","","","","","",""
"null","","html-keyboard-response","9","818593","0.0-9.0","3VNL7UK1XG53R4TSZZBDCAEIUQQTFP","A3774HPOUKYTX7","388CL5C1RJ9X03EZUESK4LKS9TSHL1","","","null","","","","","","","","","",""
"1453.8999999761581","","image-keyboard-response","10","820051","0.0-10.0","3VNL7UK1XG53R4TSZZBDCAEIUQQTFP","A3774HPOUKYTX7","388CL5C1RJ9X03EZUESK4LKS9TSHL1","","img/set1/S4.jpg","68","4","structured_load","74","structured_load,random,structured_incentive,structured_normal","3,4,2,1,2,3","2,3,4,1","false","","",""
"null","","html-keyboard-response","11","820408","0.0-11.0","3VNL7UK1XG53R4TSZZBDCAEIUQQTFP","A3774HPOUKYTX7","388CL5C1RJ9X03EZUESK4LKS9TSHL1","","<img src=""img/set1/S4.jpg"" width=""540"" height = ""360"">","null","","","","","","","","","",""
"null","","html-keyboard-response","12","820612","0.0-12.0","3VNL7UK1XG53R4TSZZBDCAEIUQQTFP","A3774HPOUKYTX7","388CL5C1RJ9X03EZUESK4LKS9TSHL1","","","null","","","","","","","","","",""
"488.90000000596046","","image-keyboard-response","13","821103","0.0-13.0","3VNL7UK1XG53R4TSZZBDCAEIUQQTFP","A3774HPOUKYTX7","388CL5C1RJ9X03EZUESK4LKS9TSHL1","","img/set1/S1.jpg","74","1","structured_load","83","structured_load,random,structured_incentive,structured_normal","3,4,2,1,2,3","2,3,4,1","false","","",""
"null","","html-keyboard-response","14","821458","0.0-14.0","3VNL7UK1XG53R4TSZZBDCAEIUQQTFP","A3774HPOUKYTX7","388CL5C1RJ9X03EZUESK4LKS9TSHL1","","<img src=""img/set1/S1.jpg"" width=""540"" height = ""360"">","null","","","","","","","","","",""
"null","","html-keyboard-response","15","821661","0.0-15.0","3VNL7UK1XG53R4TSZZBDCAEIUQQTFP","A3774HPOUKYTX7","388CL5C1RJ9X03EZUESK4LKS9TSHL1","","","null","","","","","","","","","",""
"856.1999999880791","","image-keyboard-response","16","822520","0.0-16.0","3VNL7UK1XG53R4TSZZBDCAEIUQQTFP","A3774HPOUKYTX7","388CL5C1RJ9X03EZUESK4LKS9TSHL1","","img/set1/S2.jpg","72","2","structured_load","68","structured_load,random,structured_incentive,structured_normal","3,4,2,1,2,3","2,3,4,1","false","","",""
"null","","html-keyboard-response","17","822875","0.0-17.0","3VNL7UK1XG53R4TSZZBDCAEIUQQTFP","A3774HPOUKYTX7","388CL5C1RJ9X03EZUESK4LKS9TSHL1","","<img src=""img/set1/S2.jpg"" width=""540"" height = ""360"">","null","","","","","","","","","",""
"null","","html-keyboard-response","18","823078","0.0-18.0","3VNL7UK1XG53R4TSZZBDCAEIUQQTFP","A3774HPOUKYTX7","388CL5C1RJ9X03EZUESK4LKS9TSHL1","","","null","","","","","","","","","",""
"273.80000001192093","","image-keyboard-response","19","823354","0.0-19.0","3VNL7UK1XG53R4TSZZBDCAEIUQQTFP","A3774HPOUKYTX7","388CL5C1RJ9X03EZUESK4LKS9TSHL1","","img/set1/S3.jpg","74","3","structured_load","72","structured_load,random,structured_incentive,structured_normal","3,4,2,1,2,3","2,3,4,1","false","","",""
"null","","html-keyboard-response","20","823708","0.0-20.0","3VNL7UK1XG53R4TSZZBDCAEIUQQTFP","A3774HPOUKYTX7","388CL5C1RJ9X03EZUESK4LKS9TSHL1","","<img src=""img/set1/S3.jpg"" width=""540"" height = ""360"">","null","","","","","","","","","",""
"null","","html-keyboard-response","21","823911","0.0-21.0","3VNL7UK1XG53R4TSZZBDCAEIUQQTFP","A3774HPOUKYTX7","388CL5C1RJ9X03EZUESK4LKS9TSHL1","","","null","","","","","","","","","",""
"244.40000000596046","","image-keyboard-response","22","824158","0.0-22.0","3VNL7UK1XG53R4TSZZBDCAEIUQQTFP","A3774HPOUKYTX7","388CL5C1RJ9X03EZUESK4LKS9TSHL1","","img/set1/S4.jpg","83","4","structured_load","74","structured_load,random,structured_incentive,structured_normal","3,4,2,1,2,3","2,3,4,1","false","","",""
"null","","html-keyboard-response","23","824512","0.0-23.0","3VNL7UK1XG53R4TSZZBDCAEIUQQTFP","A3774HPOUKYTX7","388CL5C1RJ9X03EZUESK4LKS9TSHL1","","<img src=""img/set1/S4.jpg"" width=""540"" height = ""360"">","null","","","","","","","","","",""
"null","","html-keyboard-response","24","824715","0.0-24.0","3VNL7UK1XG53R4TSZZBDCAEIUQQTFP","A3774HPOUKYTX7","388CL5C1RJ9X03EZUESK4LKS9TSHL1","","","null","","","","","","","","","",""
"205.10000002384186","","image-keyboard-response","25","824923","0.0-25.0","3VNL7UK1XG53R4TSZZBDCAEIUQQTFP","A3774HPOUKYTX7","388CL5C1RJ9X03EZUESK4LKS9TSHL1","","img/set1/S1.jpg","74","1","structured_load","83","structured_load,random,structured_incentive,structured_normal","3,4,2,1,2,3","2,3,4,1","false","","",""
"null","","html-keyboard-response","26","825279","0.0-26.0","3VNL7UK1XG53R4TSZZBDCAEIUQQTFP","A3774HPOUKYTX7","388CL5C1RJ9X03EZUESK4LKS9TSHL1","","<img src=""img/set1/S1.jpg"" width=""540"" height = ""360"">","null","","","","","","","","","",""
"null","","html-keyboard-response","27","825481","0.0-27.0","3VNL7UK1XG53R4TSZZBDCAEIUQQTFP","A3774HPOUKYTX7","388CL5C1RJ9X03EZUESK4LKS9TSHL1","","","null","","","","","","","","","",""
"208.19999998807907","","image-keyboard-response","28","825694","0.0-28.0","3VNL7UK1XG53R4TSZZBDCAEIUQQTFP","A3774HPOUKYTX7","388CL5C1RJ9X03EZUESK4LKS9TSHL1","","img/set1/S3.jpg","68","3","structured_load","72","structured_load,random,structured_incentive,structured_normal","3,4,2,1,2,3","2,3,4,1","false","","",""
"null","","html-keyboard-response","29","826049","0.0-29.0","3VNL7UK1XG53R4TSZZBDCAEIUQQTFP","A3774HPOUKYTX7","388CL5C1RJ9X03EZUESK4LKS9TSHL1","","<img src=""img/set1/S3.jpg"" width=""540"" height = ""360"">","null","","","","","","","","","",""
"null","","html-keyboard-response","30","826252","0.0-30.0","3VNL7UK1XG53R4TSZZBDCAEIUQQTFP","A3774HPOUKYTX7","388CL5C1RJ9X03EZUESK4LKS9TSHL1","","","null","","","","","","","","","",""
"192.30000001192093","","image-keyboard-response","31","826445","0.0-31.0","3VNL7UK1XG53R4TSZZBDCAEIUQQTFP","A3774HPOUKYTX7","388CL5C1RJ9X03EZUESK4LKS9TSHL1","","img/set1/S4.jpg","72","4","structured_load","74","structured_load,random,structured_incentive,structured_normal","3,4,2,1,2,3","2,3,4,1","false","","",""
"null","","html-keyboard-response","32","826799","0.0-32.0","3VNL7UK1XG53R4TSZZBDCAEIUQQTFP","A3774HPOUKYTX7","388CL5C1RJ9X03EZUESK4LKS9TSHL1","","<img src=""img/set1/S4.jpg"" width=""540"" height = ""360"">","null","","","","","","","","","",""
"null","","html-keyboard-response","33","827001","0.0-33.0","3VNL7UK1XG53R4TSZZBDCAEIUQQTFP","A3774HPOUKYTX7","388CL5C1RJ9X03EZUESK4LKS9TSHL1","","","null","","","","","","","","","",""
"109.90000000596046","","image-keyboard-response","34","827113","0.0-34.0","3VNL7UK1XG53R4TSZZBDCAEIUQQTFP","A3774HPOUKYTX7","388CL5C1RJ9X03EZUESK4LKS9TSHL1","","img/set1/S3.jpg","83","3","structured_load","72","structured_load,random,structured_incentive,structured_normal","3,4,2,1,2,3","2,3,4,1","false","","",""
"null","","html-keyboard-response","35","827465","0.0-35.0","3VNL7UK1XG53R4TSZZBDCAEIUQQTFP","A3774HPOUKYTX7","388CL5C1RJ9X03EZUESK4LKS9TSHL1","","<img src=""img/set1/S3.jpg"" width=""540"" height = ""360"">","null","","","","","","","","","",""
"null","","html-keyboard-response","36","827667","0.0-36.0","3VNL7UK1XG53R4TSZZBDCAEIUQQTFP","A3774HPOUKYTX7","388CL5C1RJ9X03EZUESK4LKS9TSHL1","","","null","","","","","","","","","",""
"47.099999994039536","","image-keyboard-response","37","827717","0.0-37.0","3VNL7UK1XG53R4TSZZBDCAEIUQQTFP","A3774HPOUKYTX7","388CL5C1RJ9X03EZUESK4LKS9TSHL1","","img/set1/S4.jpg","74","4","structured_load","74","structured_load,random,structured_incentive,structured_normal","3,4,2,1,2,3","2,3,4,1","true","","",""
"null","","html-keyboard-response","38","828071","0.0-38.0","3VNL7UK1XG53R4TSZZBDCAEIUQQTFP","A3774HPOUKYTX7","388CL5C1RJ9X03EZUESK4LKS9TSHL1","","<img src=""img/set1/S4.jpg"" width=""540"" height = ""360"" style=""border:16px solid orange"">","null","","","","","","","","","",""
"null","","html-keyboard-response","39","828274","0.0-39.0","3VNL7UK1XG53R4TSZZBDCAEIUQQTFP","A3774HPOUKYTX7","388CL5C1RJ9X03EZUESK4LKS9TSHL1","","","null","","","","","","","","","",""
"204.59999999403954","","image-keyboard-response","40","828481","0.0-40.0","3VNL7UK1XG53R4TSZZBDCAEIUQQTFP","A3774HPOUKYTX7","388CL5C1RJ9X03EZUESK4LKS9TSHL1","","img/set1/S1.jpg","68","1","structured_load","83","structured_load,random,structured_incentive,structured_normal","3,4,2,1,2,3","2,3,4,1","false","","",""
"null","","html-keyboard-response","41","828835","0.0-41.0","3VNL7UK1XG53R4TSZZBDCAEIUQQTFP","A3774HPOUKYTX7","388CL5C1RJ9X03EZUESK4LKS9TSHL1","","<img src=""img/set1/S1.jpg"" width=""540"" height = ""360"">","null","","","","","","","","","",""
"null","","html-keyboard-response","42","829038","0.0-42.0","3VNL7UK1XG53R4TSZZBDCAEIUQQTFP","A3774HPOUKYTX7","388CL5C1RJ9X03EZUESK4LKS9TSHL1","","","null","","","","","","","","","",""
"119.5","","image-keyboard-response","43","829161","0.0-43.0","3VNL7UK1XG53R4TSZZBDCAEIUQQTFP","A3774HPOUKYTX7","388CL5C1RJ9X03EZUESK4LKS9TSHL1","","img/set1/S1.jpg","72","1","structured_load","83","structured_load,random,structured_incentive,structured_normal","3,4,2,1,2,3","2,3,4,1","false","","",""
"null","","html-keyboard-response","44","829516","0.0-44.0","3VNL7UK1XG53R4TSZZBDCAEIUQQTFP","A3774HPOUKYTX7","388CL5C1RJ9X03EZUESK4LKS9TSHL1","","<img src=""img/set1/S1.jpg"" width=""540"" height = ""360"">","null","","","","","","","","","",""
"null","","html-keyboard-response","45","829720","0.0-45.0","3VNL7UK1XG53R4TSZZBDCAEIUQQTFP","A3774HPOUKYTX7","388CL5C1RJ9X03EZUESK4LKS9TSHL1","","","null","","","","","","","","","",""
"17.400000005960464","","image-keyboard-response","46","829744","0.0-46.0","3VNL7UK1XG53R4TSZZBDCAEIUQQTFP","A3774HPOUKYTX7","388CL5C1RJ9X03EZUESK4LKS9TSHL1","","img/set1/S1.jpg","83","1","structured_load","83","structured_load,random,structured_incentive,structured_normal","3,4,2,1,2,3","2,3,4,1","true","","",""
"null","","html-keyboard-response","47","830099","0.0-47.0","3VNL7UK1XG53R4TSZZBDCAEIUQQTFP","A3774HPOUKYTX7","388CL5C1RJ9X03EZUESK4LKS9TSHL1","","<img src=""img/set1/S1.jpg"" width=""540"" height = ""360"" style=""border:16px solid orange"">","null","","","","","","","","","",""
"null","","html-keyboard-response","48","830301","0.0-48.0","3VNL7UK1XG53R4TSZZBDCAEIUQQTFP","A3774HPOUKYTX7","388CL5C1RJ9X03EZUESK4LKS9TSHL1","","","null","","","","","","","","","",""
"434.30000001192093","","image-keyboard-response","49","830736","0.0-49.0","3VNL7UK1XG53R4TSZZBDCAEIUQQTFP","A3774HPOUKYTX7","388CL5C1RJ9X03EZUESK4LKS9TSHL1","","img/set1/S2.jpg","83","2","structured_load","68","structured_load,random,structured_incentive,structured_normal","3,4,2,1,2,3","2,3,4,1","false","","",""
"null","","html-keyboard-response","50","831088","0.0-50.0","3VNL7UK1XG53R4TSZZBDCAEIUQQTFP","A3774HPOUKYTX7","388CL5C1RJ9X03EZUESK4LKS9TSHL1","","<img src=""img/set1/S2.jpg"" width=""540"" height = ""360"">","null","","","","","","","","","",""
"null","","html-keyboard-response","51","831291","0.0-51.0","3VNL7UK1XG53R4TSZZBDCAEIUQQTFP","A3774HPOUKYTX7","388CL5C1RJ9X03EZUESK4LKS9TSHL1","","","null","","","","","","","","","",""
"327.69999998807907","","image-keyboard-response","52","831620","0.0-52.0","3VNL7UK1XG53R4TSZZBDCAEIUQQTFP","A3774HPOUKYTX7","388CL5C1RJ9X03EZUESK4LKS9TSHL1","","img/set1/S3.jpg","68","3","structured_load","72","structured_load,random,structured_incentive,structured_normal","3,4,2,1,2,3","2,3,4,1","false","","",""
"null","","html-keyboard-response","53","831972","0.0-53.0","3VNL7UK1XG53R4TSZZBDCAEIUQQTFP","A3774HPOUKYTX7","388CL5C1RJ9X03EZUESK4LKS9TSHL1","","<img src=""img/set1/S3.jpg"" width=""540"" height = ""360"">","null","","","","","","","","","",""
"null","","html-keyboard-response","54","832174","0.0-54.0","3VNL7UK1XG53R4TSZZBDCAEIUQQTFP","A3774HPOUKYTX7","388CL5C1RJ9X03EZUESK4LKS9TSHL1","","","null","","","","","","","","","",""
"102","","image-keyboard-response","55","832277","0.0-55.0","3VNL7UK1XG53R4TSZZBDCAEIUQQTFP","A3774HPOUKYTX7","388CL5C1RJ9X03EZUESK4LKS9TSHL1","","img/set1/S4.jpg","72","4","structured_load","74","structured_load,random,structured_incentive,structured_normal","3,4,2,1,2,3","2,3,4,1","false","","",""
"null","","html-keyboard-response","56","832629","0.0-56.0","3VNL7UK1XG53R4TSZZBDCAEIUQQTFP","A3774HPOUKYTX7","388CL5C1RJ9X03EZUESK4LKS9TSHL1","","<img src=""img/set1/S4.jpg"" width=""540"" height = ""360"">","null","","","","","","","","","",""
"null","","html-keyboard-response","57","832831","0.0-57.0","3VNL7UK1XG53R4TSZZBDCAEIUQQTFP","A3774HPOUKYTX7","388CL5C1RJ9X03EZUESK4LKS9TSHL1","","","null","","","","","","","","","",""
"57.900000005960464","","image-keyboard-response","58","832891","0.0-58.0","3VNL7UK1XG53R4TSZZBDCAEIUQQTFP","A3774HPOUKYTX7","388CL5C1RJ9X03EZUESK4LKS9TSHL1","","img/set1/S2.jpg","68","2","structured_load","68","structured_load,random,structured_incentive,structured_normal","3,4,2,1,2,3","2,3,4,1","true","","",""
"null","","html-keyboard-response","59","833244","0.0-59.0","3VNL7UK1XG53R4TSZZBDCAEIUQQTFP","A3774HPOUKYTX7","388CL5C1RJ9X03EZUESK4LKS9TSHL1","","<img src=""img/set1/S2.jpg"" width=""540"" height = ""360"" style=""border:16px solid orange"">","null","","","","","","","","","",""
"null","","html-keyboard-response","60","833447","0.0-60.0","3VNL7UK1XG53R4TSZZBDCAEIUQQTFP","A3774HPOUKYTX7","388CL5C1RJ9X03EZUESK4LKS9TSHL1","","","null","","","","","","","","","",""
"478.40000000596046","","image-keyboard-response","61","833930","0.0-61.0","3VNL7UK1XG53R4TSZZBDCAEIUQQTFP","A3774HPOUKYTX7","388CL5C1RJ9X03EZUESK4LKS9TSHL1","","img/set1/S3.jpg","68","3","structured_load","72","structured_load,random,structured_incentive,structured_normal","3,4,2,1,2,3","2,3,4,1","false","","",""
"null","","html-keyboard-response","62","834283","0.0-62.0","3VNL7UK1XG53R4TSZZBDCAEIUQQTFP","A3774HPOUKYTX7","388CL5C1RJ9X03EZUESK4LKS9TSHL1","","<img src=""img/set1/S3.jpg"" width=""540"" height = ""360"">","null","","","","","","","","","",""
"null","","html-keyboard-response","63","834485","0.0-63.0","3VNL7UK1XG53R4TSZZBDCAEIUQQTFP","A3774HPOUKYTX7","388CL5C1RJ9X03EZUESK4LKS9TSHL1","","","null","","","","","","","","","",""
"1704.3999999761581","","image-keyboard-response","64","836193","0.0-64.0","3VNL7UK1XG53R4TSZZBDCAEIUQQTFP","A3774HPOUKYTX7","388CL5C1RJ9X03EZUESK4LKS9TSHL1","","img/set1/S4.jpg","74","4","structured_load","74","structured_load,random,structured_incentive,structured_normal","3,4,2,1,2,3","2,3,4,1","true","","",""
"null","","html-keyboard-response","65","836549","0.0-65.0","3VNL7UK1XG53R4TSZZBDCAEIUQQTFP","A3774HPOUKYTX7","388CL5C1RJ9X03EZUESK4LKS9TSHL1","","<img src=""img/set1/S4.jpg"" width=""540"" height = ""360"" style=""border:16px solid orange"">","null","","","","","","","","","",""
"null","","html-keyboard-response","66","836752","0.0-66.0","3VNL7UK1XG53R4TSZZBDCAEIUQQTFP","A3774HPOUKYTX7","388CL5C1RJ9X03EZUESK4LKS9TSHL1","","","null","","","","","","","","","",""
"696.8000000119209","","image-keyboard-response","67","837451","0.0-67.0","3VNL7UK1XG53R4TSZZBDCAEIUQQTFP","A3774HPOUKYTX7","388CL5C1RJ9X03EZUESK4LKS9TSHL1","","img/set1/S2.jpg","74","2","structured_load","68","structured_load,random,structured_incentive,structured_normal","3,4,2,1,2,3","2,3,4,1","false","","",""
"null","","html-keyboard-response","68","837803","0.0-68.0","3VNL7UK1XG53R4TSZZBDCAEIUQQTFP","A3774HPOUKYTX7","388CL5C1RJ9X03EZUESK4LKS9TSHL1","","<img src=""img/set1/S2.jpg"" width=""540"" height = ""360"">","null","","","","","","","","","",""
"null","","html-keyboard-response","69","838006","0.0-69.0","3VNL7UK1XG53R4TSZZBDCAEIUQQTFP","A3774HPOUKYTX7","388CL5C1RJ9X03EZUESK4LKS9TSHL1","","","null","","","","","","","","","",""
"340","","image-keyboard-response","70","838349","0.0-70.0","3VNL7UK1XG53R4TSZZBDCAEIUQQTFP","A3774HPOUKYTX7","388CL5C1RJ9X03EZUESK4LKS9TSHL1","","img/set1/S2.jpg","83","2","structured_load","68","structured_load,random,structured_incentive,structured_normal","3,4,2,1,2,3","2,3,4,1","false","","",""
"null","","html-keyboard-response","71","838704","0.0-71.0","3VNL7UK1XG53R4TSZZBDCAEIUQQTFP","A3774HPOUKYTX7","388CL5C1RJ9X03EZUESK4LKS9TSHL1","","<img src=""img/set1/S2.jpg"" width=""540"" height = ""360"">","null","","","","","","","","","",""
"null","","html-keyboard-response","72","838907","0.0-72.0","3VNL7UK1XG53R4TSZZBDCAEIUQQTFP","A3774HPOUKYTX7","388CL5C1RJ9X03EZUESK4LKS9TSHL1","","","null","","","","","","","","","",""
"416","","image-keyboard-response","73","839326","0.0-73.0","3VNL7UK1XG53R4TSZZBDCAEIUQQTFP","A3774HPOUKYTX7","388CL5C1RJ9X03EZUESK4LKS9TSHL1","","img/set1/S1.jpg","83","1","structured_load","83","structured_load,random,structured_incentive,structured_normal","3,4,2,1,2,3","2,3,4,1","true","","",""
"null","","html-keyboard-response","74","839681","0.0-74.0","3VNL7UK1XG53R4TSZZBDCAEIUQQTFP","A3774HPOUKYTX7","388CL5C1RJ9X03EZUESK4LKS9TSHL1","","<img src=""img/set1/S1.jpg"" width=""540"" height = ""360"" style=""border:16px solid orange"">","null","","","","","","","","","",""
"null","","html-keyboard-response","75","839884","0.0-75.0","3VNL7UK1XG53R4TSZZBDCAEIUQQTFP","A3774HPOUKYTX7","388CL5C1RJ9X03EZUESK4LKS9TSHL1","","","null","","","","","","","","","",""
"321.39999997615814","","image-keyboard-response","76","840210","0.0-76.0","3VNL7UK1XG53R4TSZZBDCAEIUQQTFP","A3774HPOUKYTX7","388CL5C1RJ9X03EZUESK4LKS9TSHL1","","img/set1/S3.jpg","68","3","structured_load","72","structured_load,random,structured_incentive,structured_normal","3,4,2,1,2,3","2,3,4,1","false","","",""
"null","","html-keyboard-response","77","840565","0.0-77.0","3VNL7UK1XG53R4TSZZBDCAEIUQQTFP","A3774HPOUKYTX7","388CL5C1RJ9X03EZUESK4LKS9TSHL1","","<img src=""img/set1/S3.jpg"" width=""540"" height = ""360"">","null","","","","","","","","","",""
"null","","html-keyboard-response","78","840768","0.0-78.0","3VNL7UK1XG53R4TSZZBDCAEIUQQTFP","A3774HPOUKYTX7","388CL5C1RJ9X03EZUESK4LKS9TSHL1","","","null","","","","","","","","","",""
"172","","image-keyboard-response","79","840944","0.0-79.0","3VNL7UK1XG53R4TSZZBDCAEIUQQTFP","A3774HPOUKYTX7","388CL5C1RJ9X03EZUESK4LKS9TSHL1","","img/set1/S4.jpg","68","4","structured_load","74","structured_load,random,structured_incentive,structured_normal","3,4,2,1,2,3","2,3,4,1","false","","",""
"null","","html-keyboard-response","80","841298","0.0-80.0","3VNL7UK1XG53R4TSZZBDCAEIUQQTFP","A3774HPOUKYTX7","388CL5C1RJ9X03EZUESK4LKS9TSHL1","","<img src=""img/set1/S4.jpg"" width=""540"" height = ""360"">","null","","","","","","","","","",""
"null","","html-keyboard-response","81","841501","0.0-81.0","3VNL7UK1XG53R4TSZZBDCAEIUQQTFP","A3774HPOUKYTX7","388CL5C1RJ9X03EZUESK4LKS9TSHL1","","","null","","","","","","","","","",""
"278.2000000178814","","image-keyboard-response","82","841784","0.0-82.0","3VNL7UK1XG53R4TSZZBDCAEIUQQTFP","A3774HPOUKYTX7","388CL5C1RJ9X03EZUESK4LKS9TSHL1","","img/set1/S1.jpg","83","1","structured_load","83","structured_load,random,structured_incentive,structured_normal","3,4,2,1,2,3","2,3,4,1","true","","",""
"null","","html-keyboard-response","83","842147","0.0-83.0","3VNL7UK1XG53R4TSZZBDCAEIUQQTFP","A3774HPOUKYTX7","388CL5C1RJ9X03EZUESK4LKS9TSHL1","","<img src=""img/set1/S1.jpg"" width=""540"" height = ""360"" style=""border:16px solid orange"">","null","","","","","","","","","",""
"null","","html-keyboard-response","84","842349","0.0-84.0","3VNL7UK1XG53R4TSZZBDCAEIUQQTFP","A3774HPOUKYTX7","388CL5C1RJ9X03EZUESK4LKS9TSHL1","","","null","","","","","","","","","",""
"116.2000000178814","","image-keyboard-response","85","842466","0.0-85.0","3VNL7UK1XG53R4TSZZBDCAEIUQQTFP","A3774HPOUKYTX7","388CL5C1RJ9X03EZUESK4LKS9TSHL1","","img/set1/S3.jpg","74","3","structured_load","72","structured_load,random,structured_incentive,structured_normal","3,4,2,1,2,3","2,3,4,1","false","","",""
"null","","html-keyboard-response","86","842818","0.0-86.0","3VNL7UK1XG53R4TSZZBDCAEIUQQTFP","A3774HPOUKYTX7","388CL5C1RJ9X03EZUESK4LKS9TSHL1","","<img src=""img/set1/S3.jpg"" width=""540"" height = ""360"">","null","","","","","","","","","",""
"null","","html-keyboard-response","87","843020","0.0-87.0","3VNL7UK1XG53R4TSZZBDCAEIUQQTFP","A3774HPOUKYTX7","388CL5C1RJ9X03EZUESK4LKS9TSHL1","","","null","","","","","","","","","",""
"173","","image-keyboard-response","88","843196","0.0-88.0","3VNL7UK1XG53R4TSZZBDCAEIUQQTFP","A3774HPOUKYTX7","388CL5C1RJ9X03EZUESK4LKS9TSHL1","","img/set1/S4.jpg","83","4","structured_load","74","structured_load,random,structured_incentive,structured_normal","3,4,2,1,2,3","2,3,4,1","false","","",""
"null","","html-keyboard-response","89","843551","0.0-89.0","3VNL7UK1XG53R4TSZZBDCAEIUQQTFP","A3774HPOUKYTX7","388CL5C1RJ9X03EZUESK4LKS9TSHL1","","<img src=""img/set1/S4.jpg"" width=""540"" height = ""360"">","null","","","","","","","","","",""
"null","","html-keyboard-response","90","843754","0.0-90.0","3VNL7UK1XG53R4TSZZBDCAEIUQQTFP","A3774HPOUKYTX7","388CL5C1RJ9X03EZUESK4LKS9TSHL1","","","null","","","","","","","","","",""
"98.09999999403954","","image-keyboard-response","91","843854","0.0-91.0","3VNL7UK1XG53R4TSZZBDCAEIUQQTFP","A3774HPOUKYTX7","388CL5C1RJ9X03EZUESK4LKS9TSHL1","","img/set1/S1.jpg","72","1","structured_load","83","structured_load,random,structured_incentive,structured_normal","3,4,2,1,2,3","2,3,4,1","false","","",""
"null","","html-keyboard-response","92","844207","0.0-92.0","3VNL7UK1XG53R4TSZZBDCAEIUQQTFP","A3774HPOUKYTX7","388CL5C1RJ9X03EZUESK4LKS9TSHL1","","<img src=""img/set1/S1.jpg"" width=""540"" height = ""360"">","null","","","","","","","","","",""
"null","","html-keyboard-response","93","844410","0.0-93.0","3VNL7UK1XG53R4TSZZBDCAEIUQQTFP","A3774HPOUKYTX7","388CL5C1RJ9X03EZUESK4LKS9TSHL1","","","null","","","","","","","","","",""
"203.5","","image-keyboard-response","94","844616","0.0-94.0","3VNL7UK1XG53R4TSZZBDCAEIUQQTFP","A3774HPOUKYTX7","388CL5C1RJ9X03EZUESK4LKS9TSHL1","","img/set1/S3.jpg","68","3","structured_load","72","structured_load,random,structured_incentive,structured_normal","3,4,2,1,2,3","2,3,4,1","false","","",""
"null","","html-keyboard-response","95","844970","0.0-95.0","3VNL7UK1XG53R4TSZZBDCAEIUQQTFP","A3774HPOUKYTX7","388CL5C1RJ9X03EZUESK4LKS9TSHL1","","<img src=""img/set1/S3.jpg"" width=""540"" height = ""360"">","null","","","","","","","","","",""
"null","","html-keyboard-response","96","845173","0.0-96.0","3VNL7UK1XG53R4TSZZBDCAEIUQQTFP","A3774HPOUKYTX7","388CL5C1RJ9X03EZUESK4LKS9TSHL1","","","null","","","","","","","","","",""
"121.19999998807907","","image-keyboard-response","97","845298","0.0-97.0","3VNL7UK1XG53R4TSZZBDCAEIUQQTFP","A3774HPOUKYTX7","388CL5C1RJ9X03EZUESK4LKS9TSHL1","","img/set1/S4.jpg","74","4","structured_load","74","structured_load,random,structured_incentive,structured_normal","3,4,2,1,2,3","2,3,4,1","true","","",""
"null","","html-keyboard-response","98","845653","0.0-98.0","3VNL7UK1XG53R4TSZZBDCAEIUQQTFP","A3774HPOUKYTX7","388CL5C1RJ9X03EZUESK4LKS9TSHL1","","<img src=""img/set1/S4.jpg"" width=""540"" height = ""360"" style=""border:16px solid orange"">","null","","","","","","","","","",""
"null","","html-keyboard-response","99","845856","0.0-99.0","3VNL7UK1XG53R4TSZZBDCAEIUQQTFP","A3774HPOUKYTX7","388CL5C1RJ9X03EZUESK4LKS9TSHL1","","","null","","","","","","","","","",""
"456","","image-keyboard-response","100","846315","0.0-100.0","3VNL7UK1XG53R4TSZZBDCAEIUQQTFP","A3774HPOUKYTX7","388CL5C1RJ9X03EZUESK4LKS9TSHL1","","img/set1/S1.jpg","83","1","structured_load","83","structured_load,random,structured_incentive,structured_normal","3,4,2,1,2,3","2,3,4,1","true","","",""
"null","","html-keyboard-response","101","846671","0.0-101.0","3VNL7UK1XG53R4TSZZBDCAEIUQQTFP","A3774HPOUKYTX7","388CL5C1RJ9X03EZUESK4LKS9TSHL1","","<img src=""img/set1/S1.jpg"" width=""540"" height = ""360"" style=""border:16px solid orange"">","null","","","","","","","","","",""
"null","","html-keyboard-response","102","846891","0.0-102.0","3VNL7UK1XG53R4TSZZBDCAEIUQQTFP","A3774HPOUKYTX7","388CL5C1RJ9X03EZUESK4LKS9TSHL1","","","null","","","","","","","","","",""
"390.90000000596046","","image-keyboard-response","103","847283","0.0-103.0","3VNL7UK1XG53R4TSZZBDCAEIUQQTFP","A3774HPOUKYTX7","388CL5C1RJ9X03EZUESK4LKS9TSHL1","","img/set1/S1.jpg","83","1","structured_load","83","structured_load,random,structured_incentive,structured_normal","3,4,2,1,2,3","2,3,4,1","true","","",""
"null","","html-keyboard-response","104","847635","0.0-104.0","3VNL7UK1XG53R4TSZZBDCAEIUQQTFP","A3774HPOUKYTX7","388CL5C1RJ9X03EZUESK4LKS9TSHL1","","<img src=""img/set1/S1.jpg"" width=""540"" height = ""360"" style=""border:16px solid orange"">","null","","","","","","","","","",""
"null","","html-keyboard-response","105","847838","0.0-105.0","3VNL7UK1XG53R4TSZZBDCAEIUQQTFP","A3774HPOUKYTX7","388CL5C1RJ9X03EZUESK4LKS9TSHL1","","","null","","","","","","","","","",""
"294.69999998807907","","image-keyboard-response","106","848134","0.0-106.0","3VNL7UK1XG53R4TSZZBDCAEIUQQTFP","A3774HPOUKYTX7","388CL5C1RJ9X03EZUESK4LKS9TSHL1","","img/set1/S1.jpg","83","1","structured_load","83","structured_load,random,structured_incentive,structured_normal","3,4,2,1,2,3","2,3,4,1","true","","",""
"null","","html-keyboard-response","107","848487","0.0-107.0","3VNL7UK1XG53R4TSZZBDCAEIUQQTFP","A3774HPOUKYTX7","388CL5C1RJ9X03EZUESK4LKS9TSHL1","","<img src=""img/set1/S1.jpg"" width=""540"" height = ""360"" style=""border:16px solid orange"">","null","","","","","","","","","",""
"null","","html-keyboard-response","108","848690","0.0-108.0","3VNL7UK1XG53R4TSZZBDCAEIUQQTFP","A3774HPOUKYTX7","388CL5C1RJ9X03EZUESK4LKS9TSHL1","","","null","","","","","","","","","",""
"388.80000001192093","","image-keyboard-response","109","849083","0.0-109.0","3VNL7UK1XG53R4TSZZBDCAEIUQQTFP","A3774HPOUKYTX7","388CL5C1RJ9X03EZUESK4LKS9TSHL1","","img/set1/S2.jpg","68","2","structured_load","68","structured_load,random,structured_incentive,structured_normal","3,4,2,1,2,3","2,3,4,1","true","","",""
"null","","html-keyboard-response","110","849439","0.0-110.0","3VNL7UK1XG53R4TSZZBDCAEIUQQTFP","A3774HPOUKYTX7","388CL5C1RJ9X03EZUESK4LKS9TSHL1","","<img src=""img/set1/S2.jpg"" width=""540"" height = ""360"" style=""border:16px solid orange"">","null","","","","","","","","","",""
"null","","html-keyboard-response","111","849642","0.0-111.0","3VNL7UK1XG53R4TSZZBDCAEIUQQTFP","A3774HPOUKYTX7","388CL5C1RJ9X03EZUESK4LKS9TSHL1","","","null","","","","","","","","","",""
"423.19999998807907","","image-keyboard-response","112","850069","0.0-112.0","3VNL7UK1XG53R4TSZZBDCAEIUQQTFP","A3774HPOUKYTX7","388CL5C1RJ9X03EZUESK4LKS9TSHL1","","img/set1/S2.jpg","72","2","structured_load","68","structured_load,random,structured_incentive,structured_normal","3,4,2,1,2,3","2,3,4,1","false","","",""
"null","","html-keyboard-response","113","850424","0.0-113.0","3VNL7UK1XG53R4TSZZBDCAEIUQQTFP","A3774HPOUKYTX7","388CL5C1RJ9X03EZUESK4LKS9TSHL1","","<img src=""img/set1/S2.jpg"" width=""540"" height = ""360"">","null","","","","","","","","","",""
"null","","html-keyboard-response","114","850628","0.0-114.0","3VNL7UK1XG53R4TSZZBDCAEIUQQTFP","A3774HPOUKYTX7","388CL5C1RJ9X03EZUESK4LKS9TSHL1","","","null","","","","","","","","","",""
"864","","image-keyboard-response","115","851496","0.0-115.0","3VNL7UK1XG53R4TSZZBDCAEIUQQTFP","A3774HPOUKYTX7","388CL5C1RJ9X03EZUESK4LKS9TSHL1","","img/set1/S1.jpg","83","1","structured_load","83","structured_load,random,structured_incentive,structured_normal","3,4,2,1,2,3","2,3,4,1","true","","",""
"null","","html-keyboard-response","116","851852","0.0-116.0","3VNL7UK1XG53R4TSZZBDCAEIUQQTFP","A3774HPOUKYTX7","388CL5C1RJ9X03EZUESK4LKS9TSHL1","","<img src=""img/set1/S1.jpg"" width=""540"" height = ""360"" style=""border:16px solid orange"">","null","","","","","","","","","",""
"null","","html-keyboard-response","117","852054","0.0-117.0","3VNL7UK1XG53R4TSZZBDCAEIUQQTFP","A3774HPOUKYTX7","388CL5C1RJ9X03EZUESK4LKS9TSHL1","","","null","","","","","","","","","",""
"282.09999999403954","","image-keyboard-response","118","852337","0.0-118.0","3VNL7UK1XG53R4TSZZBDCAEIUQQTFP","A3774HPOUKYTX7","388CL5C1RJ9X03EZUESK4LKS9TSHL1","","img/set1/S3.jpg","74","3","structured_load","72","structured_load,random,structured_incentive,structured_normal","3,4,2,1,2,3","2,3,4,1","false","","",""
"null","","html-keyboard-response","119","852690","0.0-119.0","3VNL7UK1XG53R4TSZZBDCAEIUQQTFP","A3774HPOUKYTX7","388CL5C1RJ9X03EZUESK4LKS9TSHL1","","<img src=""img/set1/S3.jpg"" width=""540"" height = ""360"">","null","","","","","","","","","",""
"null","","html-keyboard-response","120","852892","0.0-120.0","3VNL7UK1XG53R4TSZZBDCAEIUQQTFP","A3774HPOUKYTX7","388CL5C1RJ9X03EZUESK4LKS9TSHL1","","","null","","","","","","","","","",""
"211.59999999403954","","image-keyboard-response","121","853107","0.0-121.0","3VNL7UK1XG53R4TSZZBDCAEIUQQTFP","A3774HPOUKYTX7","388CL5C1RJ9X03EZUESK4LKS9TSHL1","","img/set1/S4.jpg","83","4","structured_load","74","structured_load,random,structured_incentive,structured_normal","3,4,2,1,2,3","2,3,4,1","false","","",""
"null","","html-keyboard-response","122","853463","0.0-122.0","3VNL7UK1XG53R4TSZZBDCAEIUQQTFP","A3774HPOUKYTX7","388CL5C1RJ9X03EZUESK4LKS9TSHL1","","<img src=""img/set1/S4.jpg"" width=""540"" height = ""360"">","null","","","","","","","","","",""
"null","","html-keyboard-response","123","853667","0.0-123.0","3VNL7UK1XG53R4TSZZBDCAEIUQQTFP","A3774HPOUKYTX7","388CL5C1RJ9X03EZUESK4LKS9TSHL1","","","null","","","","","","","","","",""
"207.19999998807907","","image-keyboard-response","124","853877","0.0-124.0","3VNL7UK1XG53R4TSZZBDCAEIUQQTFP","A3774HPOUKYTX7","388CL5C1RJ9X03EZUESK4LKS9TSHL1","","img/set1/S2.jpg","68","2","structured_load","68","structured_load,random,structured_incentive,structured_normal","3,4,2,1,2,3","2,3,4,1","true","","",""
"null","","html-keyboard-response","125","854231","0.0-125.0","3VNL7UK1XG53R4TSZZBDCAEIUQQTFP","A3774HPOUKYTX7","388CL5C1RJ9X03EZUESK4LKS9TSHL1","","<img src=""img/set1/S2.jpg"" width=""540"" height = ""360"" style=""border:16px solid orange"">","null","","","","","","","","","",""
"null","","html-keyboard-response","126","854433","0.0-126.0","3VNL7UK1XG53R4TSZZBDCAEIUQQTFP","A3774HPOUKYTX7","388CL5C1RJ9X03EZUESK4LKS9TSHL1","","","null","","","","","","","","","",""
"608.3000000119209","","image-keyboard-response","127","855046","0.0-127.0","3VNL7UK1XG53R4TSZZBDCAEIUQQTFP","A3774HPOUKYTX7","388CL5C1RJ9X03EZUESK4LKS9TSHL1","","img/set1/S1.jpg","68","1","structured_load","83","structured_load,random,structured_incentive,structured_normal","3,4,2,1,2,3","2,3,4,1","false","","",""
"null","","html-keyboard-response","128","855399","0.0-128.0","3VNL7UK1XG53R4TSZZBDCAEIUQQTFP","A3774HPOUKYTX7","388CL5C1RJ9X03EZUESK4LKS9TSHL1","","<img src=""img/set1/S1.jpg"" width=""540"" height = ""360"">","null","","","","","","","","","",""
"null","","html-keyboard-response","129","855601","0.0-129.0","3VNL7UK1XG53R4TSZZBDCAEIUQQTFP","A3774HPOUKYTX7","388CL5C1RJ9X03EZUESK4LKS9TSHL1","","","null","","","","","","","","","",""
"1922.9000000059605","","image-keyboard-response","130","857526","0.0-130.0","3VNL7UK1XG53R4TSZZBDCAEIUQQTFP","A3774HPOUKYTX7","388CL5C1RJ9X03EZUESK4LKS9TSHL1","","img/set1/S2.jpg","74","2","structured_load","68","structured_load,random,structured_incentive,structured_normal","3,4,2,1,2,3","2,3,4,1","false","","",""
"null","","html-keyboard-response","131","857878","0.0-131.0","3VNL7UK1XG53R4TSZZBDCAEIUQQTFP","A3774HPOUKYTX7","388CL5C1RJ9X03EZUESK4LKS9TSHL1","","<img src=""img/set1/S2.jpg"" width=""540"" height = ""360"">","null","","","","","","","","","",""
"null","","html-keyboard-response","132","858081","0.0-132.0","3VNL7UK1XG53R4TSZZBDCAEIUQQTFP","A3774HPOUKYTX7","388CL5C1RJ9X03EZUESK4LKS9TSHL1","","","null","","","","","","","","","",""
"446.5","","image-keyboard-response","133","858530","0.0-133.0","3VNL7UK1XG53R4TSZZBDCAEIUQQTFP","A3774HPOUKYTX7","388CL5C1RJ9X03EZUESK4LKS9TSHL1","","img/set1/S1.jpg","74","1","structured_load","83","structured_load,random,structured_incentive,structured_normal","3,4,2,1,2,3","2,3,4,1","false","","",""
"null","","html-keyboard-response","134","858884","0.0-134.0","3VNL7UK1XG53R4TSZZBDCAEIUQQTFP","A3774HPOUKYTX7","388CL5C1RJ9X03EZUESK4LKS9TSHL1","","<img src=""img/set1/S1.jpg"" width=""540"" height = ""360"">","null","","","","","","","","","",""
"null","","html-keyboard-response","135","859086","0.0-135.0","3VNL7UK1XG53R4TSZZBDCAEIUQQTFP","A3774HPOUKYTX7","388CL5C1RJ9X03EZUESK4LKS9TSHL1","","","null","","","","","","","","","",""
"648.0999999940395","","image-keyboard-response","136","859738","0.0-136.0","3VNL7UK1XG53R4TSZZBDCAEIUQQTFP","A3774HPOUKYTX7","388CL5C1RJ9X03EZUESK4LKS9TSHL1","","img/set1/S3.jpg","74","3","structured_load","72","structured_load,random,structured_incentive,structured_normal","3,4,2,1,2,3","2,3,4,1","false","","",""
"null","","html-keyboard-response","137","860093","0.0-137.0","3VNL7UK1XG53R4TSZZBDCAEIUQQTFP","A3774HPOUKYTX7","388CL5C1RJ9X03EZUESK4LKS9TSHL1","","<img src=""img/set1/S3.jpg"" width=""540"" height = ""360"">","null","","","","","","","","","",""
"null","","html-keyboard-response","138","860298","0.0-138.0","3VNL7UK1XG53R4TSZZBDCAEIUQQTFP","A3774HPOUKYTX7","388CL5C1RJ9X03EZUESK4LKS9TSHL1","","","null","","","","","","","","","",""
"287","","image-keyboard-response","139","860587","0.0-139.0","3VNL7UK1XG53R4TSZZBDCAEIUQQTFP","A3774HPOUKYTX7","388CL5C1RJ9X03EZUESK4LKS9TSHL1","","img/set1/S4.jpg","68","4","structured_load","74","structured_load,random,structured_incentive,structured_normal","3,4,2,1,2,3","2,3,4,1","false","","",""
"null","","html-keyboard-response","140","860939","0.0-140.0","3VNL7UK1XG53R4TSZZBDCAEIUQQTFP","A3774HPOUKYTX7","388CL5C1RJ9X03EZUESK4LKS9TSHL1","","<img src=""img/set1/S4.jpg"" width=""540"" height = ""360"">","null","","","","","","","","","",""
"null","","html-keyboard-response","141","861142","0.0-141.0","3VNL7UK1XG53R4TSZZBDCAEIUQQTFP","A3774HPOUKYTX7","388CL5C1RJ9X03EZUESK4LKS9TSHL1","","","null","","","","","","","","","",""
"526","","image-keyboard-response","142","861672","0.0-142.0","3VNL7UK1XG53R4TSZZBDCAEIUQQTFP","A3774HPOUKYTX7","388CL5C1RJ9X03EZUESK4LKS9TSHL1","","img/set1/S1.jpg","83","1","structured_load","83","structured_load,random,structured_incentive,structured_normal","3,4,2,1,2,3","2,3,4,1","true","","",""
"null","","html-keyboard-response","143","862026","0.0-143.0","3VNL7UK1XG53R4TSZZBDCAEIUQQTFP","A3774HPOUKYTX7","388CL5C1RJ9X03EZUESK4LKS9TSHL1","","<img src=""img/set1/S1.jpg"" width=""540"" height = ""360"" style=""border:16px solid orange"">","null","","","","","","","","","",""
"null","","html-keyboard-response","144","862229","0.0-144.0","3VNL7UK1XG53R4TSZZBDCAEIUQQTFP","A3774HPOUKYTX7","388CL5C1RJ9X03EZUESK4LKS9TSHL1","","","null","","","","","","","","","",""
"455.7000000178814","","image-keyboard-response","145","862686","0.0-145.0","3VNL7UK1XG53R4TSZZBDCAEIUQQTFP","A3774HPOUKYTX7","388CL5C1RJ9X03EZUESK4LKS9TSHL1","","img/set1/S3.jpg","72","3","structured_load","72","structured_load,random,structured_incentive,structured_normal","3,4,2,1,2,3","2,3,4,1","true","","",""
"null","","html-keyboard-response","146","863040","0.0-146.0","3VNL7UK1XG53R4TSZZBDCAEIUQQTFP","A3774HPOUKYTX7","388CL5C1RJ9X03EZUESK4LKS9TSHL1","","<img src=""img/set1/S3.jpg"" width=""540"" height = ""360"" style=""border:16px solid orange"">","null","","","","","","","","","",""
"null","","html-keyboard-response","147","863244","0.0-147.0","3VNL7UK1XG53R4TSZZBDCAEIUQQTFP","A3774HPOUKYTX7","388CL5C1RJ9X03EZUESK4LKS9TSHL1","","","null","","","","","","","","","",""
"362.5","","image-keyboard-response","148","863608","0.0-148.0","3VNL7UK1XG53R4TSZZBDCAEIUQQTFP","A3774HPOUKYTX7","388CL5C1RJ9X03EZUESK4LKS9TSHL1","","img/set1/S4.jpg","74","4","structured_load","74","structured_load,random,structured_incentive,structured_normal","3,4,2,1,2,3","2,3,4,1","true","","",""
"null","","html-keyboard-response","149","863962","0.0-149.0","3VNL7UK1XG53R4TSZZBDCAEIUQQTFP","A3774HPOUKYTX7","388CL5C1RJ9X03EZUESK4LKS9TSHL1","","<img src=""img/set1/S4.jpg"" width=""540"" height = ""360"" style=""border:16px solid orange"">","null","","","","","","","","","",""
"null","","html-keyboard-response","150","864165","0.0-150.0","3VNL7UK1XG53R4TSZZBDCAEIUQQTFP","A3774HPOUKYTX7","388CL5C1RJ9X03EZUESK4LKS9TSHL1","","","null","","","","","","","","","",""
"346","","image-keyboard-response","151","864513","0.0-151.0","3VNL7UK1XG53R4TSZZBDCAEIUQQTFP","A3774HPOUKYTX7","388CL5C1RJ9X03EZUESK4LKS9TSHL1","","img/set1/S3.jpg","83","3","structured_load","72","structured_load,random,structured_incentive,structured_normal","3,4,2,1,2,3","2,3,4,1","false","","",""
"null","","html-keyboard-response","152","864867","0.0-152.0","3VNL7UK1XG53R4TSZZBDCAEIUQQTFP","A3774HPOUKYTX7","388CL5C1RJ9X03EZUESK4LKS9TSHL1","","<img src=""img/set1/S3.jpg"" width=""540"" height = ""360"">","null","","","","","","","","","",""
"null","","html-keyboard-response","153","865071","0.0-153.0","3VNL7UK1XG53R4TSZZBDCAEIUQQTFP","A3774HPOUKYTX7","388CL5C1RJ9X03EZUESK4LKS9TSHL1","","","null","","","","","","","","","",""
"294.19999998807907","","image-keyboard-response","154","865369","0.0-154.0","3VNL7UK1XG53R4TSZZBDCAEIUQQTFP","A3774HPOUKYTX7","388CL5C1RJ9X03EZUESK4LKS9TSHL1","","img/set1/S4.jpg","83","4","structured_load","74","structured_load,random,structured_incentive,structured_normal","3,4,2,1,2,3","2,3,4,1","false","","",""
"null","","html-keyboard-response","155","865727","0.0-155.0","3VNL7UK1XG53R4TSZZBDCAEIUQQTFP","A3774HPOUKYTX7","388CL5C1RJ9X03EZUESK4LKS9TSHL1","","<img src=""img/set1/S4.jpg"" width=""540"" height = ""360"">","null","","","","","","","","","",""
"null","","html-keyboard-response","156","865930","0.0-156.0","3VNL7UK1XG53R4TSZZBDCAEIUQQTFP","A3774HPOUKYTX7","388CL5C1RJ9X03EZUESK4LKS9TSHL1","","","null","","","","","","","","","",""
"350.60000002384186","","image-keyboard-response","157","866284","0.0-157.0","3VNL7UK1XG53R4TSZZBDCAEIUQQTFP","A3774HPOUKYTX7","388CL5C1RJ9X03EZUESK4LKS9TSHL1","","img/set1/S3.jpg","68","3","structured_load","72","structured_load,random,structured_incentive,structured_normal","3,4,2,1,2,3","2,3,4,1","false","","",""
"null","","html-keyboard-response","158","866638","0.0-158.0","3VNL7UK1XG53R4TSZZBDCAEIUQQTFP","A3774HPOUKYTX7","388CL5C1RJ9X03EZUESK4LKS9TSHL1","","<img src=""img/set1/S3.jpg"" width=""540"" height = ""360"">","null","","","","","","","","","",""
"null","","html-keyboard-response","159","866842","0.0-159.0","3VNL7UK1XG53R4TSZZBDCAEIUQQTFP","A3774HPOUKYTX7","388CL5C1RJ9X03EZUESK4LKS9TSHL1","","","null","","","","","","","","","",""
"191.2000000178814","","image-keyboard-response","160","867035","0.0-160.0","3VNL7UK1XG53R4TSZZBDCAEIUQQTFP","A3774HPOUKYTX7","388CL5C1RJ9X03EZUESK4LKS9TSHL1","","img/set1/S4.jpg","72","4","structured_load","74","structured_load,random,structured_incentive,structured_normal","3,4,2,1,2,3","2,3,4,1","false","","",""
"null","","html-keyboard-response","161","867393","0.0-161.0","3VNL7UK1XG53R4TSZZBDCAEIUQQTFP","A3774HPOUKYTX7","388CL5C1RJ9X03EZUESK4LKS9TSHL1","","<img src=""img/set1/S4.jpg"" width=""540"" height = ""360"">","null","","","","","","","","","",""
"null","","html-keyboard-response","162","867595","0.0-162.0","3VNL7UK1XG53R4TSZZBDCAEIUQQTFP","A3774HPOUKYTX7","388CL5C1RJ9X03EZUESK4LKS9TSHL1","","","null","","","","","","","","","",""
"199.19999998807907","","image-keyboard-response","163","867795","0.0-163.0","3VNL7UK1XG53R4TSZZBDCAEIUQQTFP","A3774HPOUKYTX7","388CL5C1RJ9X03EZUESK4LKS9TSHL1","","img/set1/S3.jpg","68","3","structured_load","72","structured_load,random,structured_incentive,structured_normal","3,4,2,1,2,3","2,3,4,1","false","","",""
"null","","html-keyboard-response","164","868148","0.0-164.0","3VNL7UK1XG53R4TSZZBDCAEIUQQTFP","A3774HPOUKYTX7","388CL5C1RJ9X03EZUESK4LKS9TSHL1","","<img src=""img/set1/S3.jpg"" width=""540"" height = ""360"">","null","","","","","","","","","",""
"null","","html-keyboard-response","165","868351","0.0-165.0","3VNL7UK1XG53R4TSZZBDCAEIUQQTFP","A3774HPOUKYTX7","388CL5C1RJ9X03EZUESK4LKS9TSHL1","","","null","","","","","","","","","",""
"215.5","","image-keyboard-response","166","868570","0.0-166.0","3VNL7UK1XG53R4TSZZBDCAEIUQQTFP","A3774HPOUKYTX7","388CL5C1RJ9X03EZUESK4LKS9TSHL1","","img/set1/S4.jpg","74","4","structured_load","74","structured_load,random,structured_incentive,structured_normal","3,4,2,1,2,3","2,3,4,1","true","","",""
"null","","html-keyboard-response","167","868927","0.0-167.0","3VNL7UK1XG53R4TSZZBDCAEIUQQTFP","A3774HPOUKYTX7","388CL5C1RJ9X03EZUESK4LKS9TSHL1","","<img src=""img/set1/S4.jpg"" width=""540"" height = ""360"" style=""border:16px solid orange"">","null","","","","","","","","","",""
"null","","html-keyboard-response","168","869131","0.0-168.0","3VNL7UK1XG53R4TSZZBDCAEIUQQTFP","A3774HPOUKYTX7","388CL5C1RJ9X03EZUESK4LKS9TSHL1","","","null","","","","","","","","","",""
"292.5","","image-keyboard-response","169","869427","0.0-169.0","3VNL7UK1XG53R4TSZZBDCAEIUQQTFP","A3774HPOUKYTX7","388CL5C1RJ9X03EZUESK4LKS9TSHL1","","img/set1/S2.jpg","68","2","structured_load","68","structured_load,random,structured_incentive,structured_normal","3,4,2,1,2,3","2,3,4,1","true","","",""
"null","","html-keyboard-response","170","869780","0.0-170.0","3VNL7UK1XG53R4TSZZBDCAEIUQQTFP","A3774HPOUKYTX7","388CL5C1RJ9X03EZUESK4LKS9TSHL1","","<img src=""img/set1/S2.jpg"" width=""540"" height = ""360"" style=""border:16px solid orange"">","null","","","","","","","","","",""
"null","","html-keyboard-response","171","869983","0.0-171.0","3VNL7UK1XG53R4TSZZBDCAEIUQQTFP","A3774HPOUKYTX7","388CL5C1RJ9X03EZUESK4LKS9TSHL1","","","null","","","","","","","","","",""
"148.69999998807907","","image-keyboard-response","172","870135","0.0-172.0","3VNL7UK1XG53R4TSZZBDCAEIUQQTFP","A3774HPOUKYTX7","388CL5C1RJ9X03EZUESK4LKS9TSHL1","","img/set1/S1.jpg","72","1","structured_load","83","structured_load,random,structured_incentive,structured_normal","3,4,2,1,2,3","2,3,4,1","false","","",""
"null","","html-keyboard-response","173","870490","0.0-173.0","3VNL7UK1XG53R4TSZZBDCAEIUQQTFP","A3774HPOUKYTX7","388CL5C1RJ9X03EZUESK4LKS9TSHL1","","<img src=""img/set1/S1.jpg"" width=""540"" height = ""360"">","null","","","","","","","","","",""
"null","","html-keyboard-response","174","870693","0.0-174.0","3VNL7UK1XG53R4TSZZBDCAEIUQQTFP","A3774HPOUKYTX7","388CL5C1RJ9X03EZUESK4LKS9TSHL1","","","null","","","","","","","","","",""
"188.7000000178814","","image-keyboard-response","175","870885","0.0-175.0","3VNL7UK1XG53R4TSZZBDCAEIUQQTFP","A3774HPOUKYTX7","388CL5C1RJ9X03EZUESK4LKS9TSHL1","","img/set1/S2.jpg","68","2","structured_load","68","structured_load,random,structured_incentive,structured_normal","3,4,2,1,2,3","2,3,4,1","true","","",""
"null","","html-keyboard-response","176","871240","0.0-176.0","3VNL7UK1XG53R4TSZZBDCAEIUQQTFP","A3774HPOUKYTX7","388CL5C1RJ9X03EZUESK4LKS9TSHL1","","<img src=""img/set1/S2.jpg"" width=""540"" height = ""360"" style=""border:16px solid orange"">","null","","","","","","","","","",""
"null","","html-keyboard-response","177","871444","0.0-177.0","3VNL7UK1XG53R4TSZZBDCAEIUQQTFP","A3774HPOUKYTX7","388CL5C1RJ9X03EZUESK4LKS9TSHL1","","","null","","","","","","","","","",""
"83","","image-keyboard-response","178","871531","0.0-178.0","3VNL7UK1XG53R4TSZZBDCAEIUQQTFP","A3774HPOUKYTX7","388CL5C1RJ9X03EZUESK4LKS9TSHL1","","img/set1/S1.jpg","74","1","structured_load","83","structured_load,random,structured_incentive,structured_normal","3,4,2,1,2,3","2,3,4,1","false","","",""
"null","","html-keyboard-response","179","871886","0.0-179.0","3VNL7UK1XG53R4TSZZBDCAEIUQQTFP","A3774HPOUKYTX7","388CL5C1RJ9X03EZUESK4LKS9TSHL1","","<img src=""img/set1/S1.jpg"" width=""540"" height = ""360"">","null","","","","","","","","","",""
"null","","html-keyboard-response","180","872088","0.0-180.0","3VNL7UK1XG53R4TSZZBDCAEIUQQTFP","A3774HPOUKYTX7","388CL5C1RJ9X03EZUESK4LKS9TSHL1","","","null","","","","","","","","","",""
"515.4000000059605","","image-keyboard-response","181","872605","0.0-181.0","3VNL7UK1XG53R4TSZZBDCAEIUQQTFP","A3774HPOUKYTX7","388CL5C1RJ9X03EZUESK4LKS9TSHL1","","img/set1/S2.jpg","83","2","structured_load","68","structured_load,random,structured_incentive,structured_normal","3,4,2,1,2,3","2,3,4,1","false","","",""
"null","","html-keyboard-response","182","872957","0.0-182.0","3VNL7UK1XG53R4TSZZBDCAEIUQQTFP","A3774HPOUKYTX7","388CL5C1RJ9X03EZUESK4LKS9TSHL1","","<img src=""img/set1/S2.jpg"" width=""540"" height = ""360"">","null","","","","","","","","","",""
"null","","html-keyboard-response","183","873160","0.0-183.0","3VNL7UK1XG53R4TSZZBDCAEIUQQTFP","A3774HPOUKYTX7","388CL5C1RJ9X03EZUESK4LKS9TSHL1","","","null","","","","","","","","","",""
"202.90000000596046","","image-keyboard-response","184","873366","0.0-184.0","3VNL7UK1XG53R4TSZZBDCAEIUQQTFP","A3774HPOUKYTX7","388CL5C1RJ9X03EZUESK4LKS9TSHL1","","img/set1/S2.jpg","68","2","structured_load","68","structured_load,random,structured_incentive,structured_normal","3,4,2,1,2,3","2,3,4,1","true","","",""
"null","","html-keyboard-response","185","873720","0.0-185.0","3VNL7UK1XG53R4TSZZBDCAEIUQQTFP","A3774HPOUKYTX7","388CL5C1RJ9X03EZUESK4LKS9TSHL1","","<img src=""img/set1/S2.jpg"" width=""540"" height = ""360"" style=""border:16px solid orange"">","null","","","","","","","","","",""
"null","","html-keyboard-response","186","873922","0.0-186.0","3VNL7UK1XG53R4TSZZBDCAEIUQQTFP","A3774HPOUKYTX7","388CL5C1RJ9X03EZUESK4LKS9TSHL1","","","null","","","","","","","","","",""
"277.30000001192093","","image-keyboard-response","187","874203","0.0-187.0","3VNL7UK1XG53R4TSZZBDCAEIUQQTFP","A3774HPOUKYTX7","388CL5C1RJ9X03EZUESK4LKS9TSHL1","","img/set1/S3.jpg","74","3","structured_load","72","structured_load,random,structured_incentive,structured_normal","3,4,2,1,2,3","2,3,4,1","false","","",""
"null","","html-keyboard-response","188","874557","0.0-188.0","3VNL7UK1XG53R4TSZZBDCAEIUQQTFP","A3774HPOUKYTX7","388CL5C1RJ9X03EZUESK4LKS9TSHL1","","<img src=""img/set1/S3.jpg"" width=""540"" height = ""360"">","null","","","","","","","","","",""
"null","","html-keyboard-response","189","874760","0.0-189.0","3VNL7UK1XG53R4TSZZBDCAEIUQQTFP","A3774HPOUKYTX7","388CL5C1RJ9X03EZUESK4LKS9TSHL1","","","null","","","","","","","","","",""
"296.80000001192093","","image-keyboard-response","190","875061","0.0-190.0","3VNL7UK1XG53R4TSZZBDCAEIUQQTFP","A3774HPOUKYTX7","388CL5C1RJ9X03EZUESK4LKS9TSHL1","","img/set1/S4.jpg","74","4","structured_load","74","structured_load,random,structured_incentive,structured_normal","3,4,2,1,2,3","2,3,4,1","true","","",""
"null","","html-keyboard-response","191","875414","0.0-191.0","3VNL7UK1XG53R4TSZZBDCAEIUQQTFP","A3774HPOUKYTX7","388CL5C1RJ9X03EZUESK4LKS9TSHL1","","<img src=""img/set1/S4.jpg"" width=""540"" height = ""360"" style=""border:16px solid orange"">","null","","","","","","","","","",""
"null","","html-keyboard-response","192","875617","0.0-192.0","3VNL7UK1XG53R4TSZZBDCAEIUQQTFP","A3774HPOUKYTX7","388CL5C1RJ9X03EZUESK4LKS9TSHL1","","","null","","","","","","","","","",""
"209.10000002384186","","image-keyboard-response","193","875829","0.0-193.0","3VNL7UK1XG53R4TSZZBDCAEIUQQTFP","A3774HPOUKYTX7","388CL5C1RJ9X03EZUESK4LKS9TSHL1","","img/set1/S2.jpg","68","2","structured_load","68","structured_load,random,structured_incentive,structured_normal","3,4,2,1,2,3","2,3,4,1","true","","",""
"null","","html-keyboard-response","194","876185","0.0-194.0","3VNL7UK1XG53R4TSZZBDCAEIUQQTFP","A3774HPOUKYTX7","388CL5C1RJ9X03EZUESK4LKS9TSHL1","","<img src=""img/set1/S2.jpg"" width=""540"" height = ""360"" style=""border:16px solid orange"">","null","","","","","","","","","",""
"null","","html-keyboard-response","195","876388","0.0-195.0","3VNL7UK1XG53R4TSZZBDCAEIUQQTFP","A3774HPOUKYTX7","388CL5C1RJ9X03EZUESK4LKS9TSHL1","","","null","","","","","","","","","",""
"148.5","","image-keyboard-response","196","876538","0.0-196.0","3VNL7UK1XG53R4TSZZBDCAEIUQQTFP","A3774HPOUKYTX7","388CL5C1RJ9X03EZUESK4LKS9TSHL1","","img/set1/S3.jpg","83","3","structured_load","72","structured_load,random,structured_incentive,structured_normal","3,4,2,1,2,3","2,3,4,1","false","","",""
"null","","html-keyboard-response","197","876894","0.0-197.0","3VNL7UK1XG53R4TSZZBDCAEIUQQTFP","A3774HPOUKYTX7","388CL5C1RJ9X03EZUESK4LKS9TSHL1","","<img src=""img/set1/S3.jpg"" width=""540"" height = ""360"">","null","","","","","","","","","",""
"null","","html-keyboard-response","198","877097","0.0-198.0","3VNL7UK1XG53R4TSZZBDCAEIUQQTFP","A3774HPOUKYTX7","388CL5C1RJ9X03EZUESK4LKS9TSHL1","","","null","","","","","","","","","",""
"236.69999998807907","","image-keyboard-response","199","877335","0.0-199.0","3VNL7UK1XG53R4TSZZBDCAEIUQQTFP","A3774HPOUKYTX7","388CL5C1RJ9X03EZUESK4LKS9TSHL1","","img/set1/S4.jpg","83","4","structured_load","74","structured_load,random,structured_incentive,structured_normal","3,4,2,1,2,3","2,3,4,1","false","","",""
"null","","html-keyboard-response","200","877687","0.0-200.0","3VNL7UK1XG53R4TSZZBDCAEIUQQTFP","A3774HPOUKYTX7","388CL5C1RJ9X03EZUESK4LKS9TSHL1","","<img src=""img/set1/S4.jpg"" width=""540"" height = ""360"">","null","","","","","","","","","",""
"null","","html-keyboard-response","201","877891","0.0-201.0","3VNL7UK1XG53R4TSZZBDCAEIUQQTFP","A3774HPOUKYTX7","388CL5C1RJ9X03EZUESK4LKS9TSHL1","","","null","","","","","","","","","",""
"257.40000000596046","","image-keyboard-response","202","878151","0.0-202.0","3VNL7UK1XG53R4TSZZBDCAEIUQQTFP","A3774HPOUKYTX7","388CL5C1RJ9X03EZUESK4LKS9TSHL1","","img/set1/S1.jpg","68","1","structured_load","83","structured_load,random,structured_incentive,structured_normal","3,4,2,1,2,3","2,3,4,1","false","","",""
"null","","html-keyboard-response","203","878506","0.0-203.0","3VNL7UK1XG53R4TSZZBDCAEIUQQTFP","A3774HPOUKYTX7","388CL5C1RJ9X03EZUESK4LKS9TSHL1","","<img src=""img/set1/S1.jpg"" width=""540"" height = ""360"">","null","","","","","","","","","",""
"null","","html-keyboard-response","204","878709","0.0-204.0","3VNL7UK1XG53R4TSZZBDCAEIUQQTFP","A3774HPOUKYTX7","388CL5C1RJ9X03EZUESK4LKS9TSHL1","","","null","","","","","","","","","",""
"87.10000002384186","","image-keyboard-response","205","878800","0.0-205.0","3VNL7UK1XG53R4TSZZBDCAEIUQQTFP","A3774HPOUKYTX7","388CL5C1RJ9X03EZUESK4LKS9TSHL1","","img/set1/S1.jpg","72","1","structured_load","83","structured_load,random,structured_incentive,structured_normal","3,4,2,1,2,3","2,3,4,1","false","","",""
"null","","html-keyboard-response","206","879155","0.0-206.0","3VNL7UK1XG53R4TSZZBDCAEIUQQTFP","A3774HPOUKYTX7","388CL5C1RJ9X03EZUESK4LKS9TSHL1","","<img src=""img/set1/S1.jpg"" width=""540"" height = ""360"">","null","","","","","","","","","",""
"null","","html-keyboard-response","207","879359","0.0-207.0","3VNL7UK1XG53R4TSZZBDCAEIUQQTFP","A3774HPOUKYTX7","388CL5C1RJ9X03EZUESK4LKS9TSHL1","","","null","","","","","","","","","",""
"225.59999999403954","","image-keyboard-response","208","879589","0.0-208.0","3VNL7UK1XG53R4TSZZBDCAEIUQQTFP","A3774HPOUKYTX7","388CL5C1RJ9X03EZUESK4LKS9TSHL1","","img/set1/S2.jpg","68","2","structured_load","68","structured_load,random,structured_incentive,structured_normal","3,4,2,1,2,3","2,3,4,1","true","","",""
"null","","html-keyboard-response","209","879944","0.0-209.0","3VNL7UK1XG53R4TSZZBDCAEIUQQTFP","A3774HPOUKYTX7","388CL5C1RJ9X03EZUESK4LKS9TSHL1","","<img src=""img/set1/S2.jpg"" width=""540"" height = ""360"" style=""border:16px solid orange"">","null","","","","","","","","","",""
"null","","html-keyboard-response","210","880147","0.0-210.0","3VNL7UK1XG53R4TSZZBDCAEIUQQTFP","A3774HPOUKYTX7","388CL5C1RJ9X03EZUESK4LKS9TSHL1","","","null","","","","","","","","","",""
"103.59999999403954","","image-keyboard-response","211","880254","0.0-211.0","3VNL7UK1XG53R4TSZZBDCAEIUQQTFP","A3774HPOUKYTX7","388CL5C1RJ9X03EZUESK4LKS9TSHL1","","img/set1/S2.jpg","83","2","structured_load","68","structured_load,random,structured_incentive,structured_normal","3,4,2,1,2,3","2,3,4,1","false","","",""
"null","","html-keyboard-response","212","880609","0.0-212.0","3VNL7UK1XG53R4TSZZBDCAEIUQQTFP","A3774HPOUKYTX7","388CL5C1RJ9X03EZUESK4LKS9TSHL1","","<img src=""img/set1/S2.jpg"" width=""540"" height = ""360"">","null","","","","","","","","","",""
"null","","html-keyboard-response","213","880811","0.0-213.0","3VNL7UK1XG53R4TSZZBDCAEIUQQTFP","A3774HPOUKYTX7","388CL5C1RJ9X03EZUESK4LKS9TSHL1","","","null","","","","","","","","","",""
"164.09999999403954","","image-keyboard-response","214","880978","0.0-214.0","3VNL7UK1XG53R4TSZZBDCAEIUQQTFP","A3774HPOUKYTX7","388CL5C1RJ9X03EZUESK4LKS9TSHL1","","img/set1/S3.jpg","83","3","structured_load","72","structured_load,random,structured_incentive,structured_normal","3,4,2,1,2,3","2,3,4,1","false","","",""
"null","","html-keyboard-response","215","881333","0.0-215.0","3VNL7UK1XG53R4TSZZBDCAEIUQQTFP","A3774HPOUKYTX7","388CL5C1RJ9X03EZUESK4LKS9TSHL1","","<img src=""img/set1/S3.jpg"" width=""540"" height = ""360"">","null","","","","","","","","","",""
"null","","html-keyboard-response","216","881536","0.0-216.0","3VNL7UK1XG53R4TSZZBDCAEIUQQTFP","A3774HPOUKYTX7","388CL5C1RJ9X03EZUESK4LKS9TSHL1","","","null","","","","","","","","","",""
"299.90000000596046","","image-keyboard-response","217","881839","0.0-217.0","3VNL7UK1XG53R4TSZZBDCAEIUQQTFP","A3774HPOUKYTX7","388CL5C1RJ9X03EZUESK4LKS9TSHL1","","img/set1/S4.jpg","83","4","structured_load","74","structured_load,random,structured_incentive,structured_normal","3,4,2,1,2,3","2,3,4,1","false","","",""
"null","","html-keyboard-response","218","882192","0.0-218.0","3VNL7UK1XG53R4TSZZBDCAEIUQQTFP","A3774HPOUKYTX7","388CL5C1RJ9X03EZUESK4LKS9TSHL1","","<img src=""img/set1/S4.jpg"" width=""540"" height = ""360"">","null","","","","","","","","","",""
"null","","html-keyboard-response","219","882394","0.0-219.0","3VNL7UK1XG53R4TSZZBDCAEIUQQTFP","A3774HPOUKYTX7","388CL5C1RJ9X03EZUESK4LKS9TSHL1","","","null","","","","","","","","","",""
"40.5","","image-keyboard-response","220","882436","0.0-220.0","3VNL7UK1XG53R4TSZZBDCAEIUQQTFP","A3774HPOUKYTX7","388CL5C1RJ9X03EZUESK4LKS9TSHL1","","img/set1/S2.jpg","74","2","structured_load","68","structured_load,random,structured_incentive,structured_normal","3,4,2,1,2,3","2,3,4,1","false","","",""
"null","","html-keyboard-response","221","882792","0.0-221.0","3VNL7UK1XG53R4TSZZBDCAEIUQQTFP","A3774HPOUKYTX7","388CL5C1RJ9X03EZUESK4LKS9TSHL1","","<img src=""img/set1/S2.jpg"" width=""540"" height = ""360"">","null","","","","","","","","","",""
"null","","html-keyboard-response","222","882997","0.0-222.0","3VNL7UK1XG53R4TSZZBDCAEIUQQTFP","A3774HPOUKYTX7","388CL5C1RJ9X03EZUESK4LKS9TSHL1","","","null","","","","","","","","","",""
"396.40000000596046","","image-keyboard-response","223","883397","0.0-223.0","3VNL7UK1XG53R4TSZZBDCAEIUQQTFP","A3774HPOUKYTX7","388CL5C1RJ9X03EZUESK4LKS9TSHL1","","img/set1/S3.jpg","72","3","structured_load","72","structured_load,random,structured_incentive,structured_normal","3,4,2,1,2,3","2,3,4,1","true","","",""
"null","","html-keyboard-response","224","883752","0.0-224.0","3VNL7UK1XG53R4TSZZBDCAEIUQQTFP","A3774HPOUKYTX7","388CL5C1RJ9X03EZUESK4LKS9TSHL1","","<img src=""img/set1/S3.jpg"" width=""540"" height = ""360"" style=""border:16px solid orange"">","null","","","","","","","","","",""
"null","","html-keyboard-response","225","883958","0.0-225.0","3VNL7UK1XG53R4TSZZBDCAEIUQQTFP","A3774HPOUKYTX7","388CL5C1RJ9X03EZUESK4LKS9TSHL1","","","null","","","","","","","","","",""
"65.69999998807907","","image-keyboard-response","226","884027","0.0-226.0","3VNL7UK1XG53R4TSZZBDCAEIUQQTFP","A3774HPOUKYTX7","388CL5C1RJ9X03EZUESK4LKS9TSHL1","","img/set1/S4.jpg","68","4","structured_load","74","structured_load,random,structured_incentive,structured_normal","3,4,2,1,2,3","2,3,4,1","false","","",""
"null","","html-keyboard-response","227","884381","0.0-227.0","3VNL7UK1XG53R4TSZZBDCAEIUQQTFP","A3774HPOUKYTX7","388CL5C1RJ9X03EZUESK4LKS9TSHL1","","<img src=""img/set1/S4.jpg"" width=""540"" height = ""360"">","null","","","","","","","","","",""
"null","","html-keyboard-response","228","884583","0.0-228.0","3VNL7UK1XG53R4TSZZBDCAEIUQQTFP","A3774HPOUKYTX7","388CL5C1RJ9X03EZUESK4LKS9TSHL1","","","null","","","","","","","","","",""
"435.19999998807907","","image-keyboard-response","229","885023","0.0-229.0","3VNL7UK1XG53R4TSZZBDCAEIUQQTFP","A3774HPOUKYTX7","388CL5C1RJ9X03EZUESK4LKS9TSHL1","","img/set1/S2.jpg","68","2","structured_load","68","structured_load,random,structured_incentive,structured_normal","3,4,2,1,2,3","2,3,4,1","true","","",""
"null","","html-keyboard-response","230","885381","0.0-230.0","3VNL7UK1XG53R4TSZZBDCAEIUQQTFP","A3774HPOUKYTX7","388CL5C1RJ9X03EZUESK4LKS9TSHL1","","<img src=""img/set1/S2.jpg"" width=""540"" height = ""360"" style=""border:16px solid orange"">","null","","","","","","","","","",""
"null","","html-keyboard-response","231","885585","0.0-231.0","3VNL7UK1XG53R4TSZZBDCAEIUQQTFP","A3774HPOUKYTX7","388CL5C1RJ9X03EZUESK4LKS9TSHL1","","","null","","","","","","","","","",""
"24.599999994039536","","image-keyboard-response","232","885613","0.0-232.0","3VNL7UK1XG53R4TSZZBDCAEIUQQTFP","A3774HPOUKYTX7","388CL5C1RJ9X03EZUESK4LKS9TSHL1","","img/set1/S2.jpg","72","2","structured_load","68","structured_load,random,structured_incentive,structured_normal","3,4,2,1,2,3","2,3,4,1","false","","",""
"null","","html-keyboard-response","233","885966","0.0-233.0","3VNL7UK1XG53R4TSZZBDCAEIUQQTFP","A3774HPOUKYTX7","388CL5C1RJ9X03EZUESK4LKS9TSHL1","","<img src=""img/set1/S2.jpg"" width=""540"" height = ""360"">","null","","","","","","","","","",""
"null","","html-keyboard-response","234","886168","0.0-234.0","3VNL7UK1XG53R4TSZZBDCAEIUQQTFP","A3774HPOUKYTX7","388CL5C1RJ9X03EZUESK4LKS9TSHL1","","","null","","","","","","","","","",""
"104.19999998807907","","image-keyboard-response","235","886275","0.0-235.0","3VNL7UK1XG53R4TSZZBDCAEIUQQTFP","A3774HPOUKYTX7","388CL5C1RJ9X03EZUESK4LKS9TSHL1","","img/set1/S2.jpg","68","2","structured_load","68","structured_load,random,structured_incentive,structured_normal","3,4,2,1,2,3","2,3,4,1","true","","",""
"null","","html-keyboard-response","236","886630","0.0-236.0","3VNL7UK1XG53R4TSZZBDCAEIUQQTFP","A3774HPOUKYTX7","388CL5C1RJ9X03EZUESK4LKS9TSHL1","","<img src=""img/set1/S2.jpg"" width=""540"" height = ""360"" style=""border:16px solid orange"">","null","","","","","","","","","",""
"null","","html-keyboard-response","237","886834","0.0-237.0","3VNL7UK1XG53R4TSZZBDCAEIUQQTFP","A3774HPOUKYTX7","388CL5C1RJ9X03EZUESK4LKS9TSHL1","","","null","","","","","","","","","",""
"0.4000000059604645","","image-keyboard-response","238","886838","0.0-238.0","3VNL7UK1XG53R4TSZZBDCAEIUQQTFP","A3774HPOUKYTX7","388CL5C1RJ9X03EZUESK4LKS9TSHL1","","img/set1/S1.jpg","74","1","structured_load","83","structured_load,random,structured_incentive,structured_normal","3,4,2,1,2,3","2,3,4,1","false","","",""
"null","","html-keyboard-response","239","887192","0.0-239.0","3VNL7UK1XG53R4TSZZBDCAEIUQQTFP","A3774HPOUKYTX7","388CL5C1RJ9X03EZUESK4LKS9TSHL1","","<img src=""img/set1/S1.jpg"" width=""540"" height = ""360"">","null","","","","","","","","","",""
"null","","html-keyboard-response","240","887395","0.0-240.0","3VNL7UK1XG53R4TSZZBDCAEIUQQTFP","A3774HPOUKYTX7","388CL5C1RJ9X03EZUESK4LKS9TSHL1","","","null","","","","","","","","","",""
"489.5","","image-keyboard-response","241","887886","0.0-241.0","3VNL7UK1XG53R4TSZZBDCAEIUQQTFP","A3774HPOUKYTX7","388CL5C1RJ9X03EZUESK4LKS9TSHL1","","img/set1/S1.jpg","74","1","structured_load","83","structured_load,random,structured_incentive,structured_normal","3,4,2,1,2,3","2,3,4,1","false","","",""
"null","","html-keyboard-response","242","888241","0.0-242.0","3VNL7UK1XG53R4TSZZBDCAEIUQQTFP","A3774HPOUKYTX7","388CL5C1RJ9X03EZUESK4LKS9TSHL1","","<img src=""img/set1/S1.jpg"" width=""540"" height = ""360"">","null","","","","","","","","","",""
"null","","html-keyboard-response","243","888444","0.0-243.0","3VNL7UK1XG53R4TSZZBDCAEIUQQTFP","A3774HPOUKYTX7","388CL5C1RJ9X03EZUESK4LKS9TSHL1","","","null","","","","","","","","","",""
"55.400000005960464","","image-keyboard-response","244","888504","0.0-244.0","3VNL7UK1XG53R4TSZZBDCAEIUQQTFP","A3774HPOUKYTX7","388CL5C1RJ9X03EZUESK4LKS9TSHL1","","img/set1/S1.jpg","68","1","structured_load","83","structured_load,random,structured_incentive,structured_normal","3,4,2,1,2,3","2,3,4,1","false","","",""
"null","","html-keyboard-response","245","888860","0.0-245.0","3VNL7UK1XG53R4TSZZBDCAEIUQQTFP","A3774HPOUKYTX7","388CL5C1RJ9X03EZUESK4LKS9TSHL1","","<img src=""img/set1/S1.jpg"" width=""540"" height = ""360"">","null","","","","","","","","","",""
"null","","html-keyboard-response","246","889063","0.0-246.0","3VNL7UK1XG53R4TSZZBDCAEIUQQTFP","A3774HPOUKYTX7","388CL5C1RJ9X03EZUESK4LKS9TSHL1","","","null","","","","","","","","","",""
"246.2999999821186","","image-keyboard-response","247","889312","0.0-247.0","3VNL7UK1XG53R4TSZZBDCAEIUQQTFP","A3774HPOUKYTX7","388CL5C1RJ9X03EZUESK4LKS9TSHL1","","img/set1/S3.jpg","72","3","structured_load","72","structured_load,random,structured_incentive,structured_normal","3,4,2,1,2,3","2,3,4,1","true","","",""
"null","","html-keyboard-response","248","889667","0.0-248.0","3VNL7UK1XG53R4TSZZBDCAEIUQQTFP","A3774HPOUKYTX7","388CL5C1RJ9X03EZUESK4LKS9TSHL1","","<img src=""img/set1/S3.jpg"" width=""540"" height = ""360"" style=""border:16px solid orange"">","null","","","","","","","","","",""
"null","","html-keyboard-response","249","889871","0.0-249.0","3VNL7UK1XG53R4TSZZBDCAEIUQQTFP","A3774HPOUKYTX7","388CL5C1RJ9X03EZUESK4LKS9TSHL1","","","null","","","","","","","","","",""
"223.19999998807907","","image-keyboard-response","250","890098","0.0-250.0","3VNL7UK1XG53R4TSZZBDCAEIUQQTFP","A3774HPOUKYTX7","388CL5C1RJ9X03EZUESK4LKS9TSHL1","","img/set1/S4.jpg","83","4","structured_load","74","structured_load,random,structured_incentive,structured_normal","3,4,2,1,2,3","2,3,4,1","false","","",""
"null","","html-keyboard-response","251","890452","0.0-251.0","3VNL7UK1XG53R4TSZZBDCAEIUQQTFP","A3774HPOUKYTX7","388CL5C1RJ9X03EZUESK4LKS9TSHL1","","<img src=""img/set1/S4.jpg"" width=""540"" height = ""360"">","null","","","","","","","","","",""
"null","","html-keyboard-response","252","890655","0.0-252.0","3VNL7UK1XG53R4TSZZBDCAEIUQQTFP","A3774HPOUKYTX7","388CL5C1RJ9X03EZUESK4LKS9TSHL1","","","null","","","","","","","","","",""
"130","","image-keyboard-response","253","890787","0.0-253.0","3VNL7UK1XG53R4TSZZBDCAEIUQQTFP","A3774HPOUKYTX7","388CL5C1RJ9X03EZUESK4LKS9TSHL1","","img/set1/S1.jpg","68","1","structured_load","83","structured_load,random,structured_incentive,structured_normal","3,4,2,1,2,3","2,3,4,1","false","","",""
"null","","html-keyboard-response","254","891140","0.0-254.0","3VNL7UK1XG53R4TSZZBDCAEIUQQTFP","A3774HPOUKYTX7","388CL5C1RJ9X03EZUESK4LKS9TSHL1","","<img src=""img/set1/S1.jpg"" width=""540"" height = ""360"">","null","","","","","","","","","",""
"null","","html-keyboard-response","255","891343","0.0-255.0","3VNL7UK1XG53R4TSZZBDCAEIUQQTFP","A3774HPOUKYTX7","388CL5C1RJ9X03EZUESK4LKS9TSHL1","","","null","","","","","","","","","",""
"204.5","","image-keyboard-response","256","891552","0.0-256.0","3VNL7UK1XG53R4TSZZBDCAEIUQQTFP","A3774HPOUKYTX7","388CL5C1RJ9X03EZUESK4LKS9TSHL1","","img/set1/S2.jpg","83","2","structured_load","68","structured_load,random,structured_incentive,structured_normal","3,4,2,1,2,3","2,3,4,1","false","","",""
"null","","html-keyboard-response","257","891906","0.0-257.0","3VNL7UK1XG53R4TSZZBDCAEIUQQTFP","A3774HPOUKYTX7","388CL5C1RJ9X03EZUESK4LKS9TSHL1","","<img src=""img/set1/S2.jpg"" width=""540"" height = ""360"">","null","","","","","","","","","",""
"null","","html-keyboard-response","258","892108","0.0-258.0","3VNL7UK1XG53R4TSZZBDCAEIUQQTFP","A3774HPOUKYTX7","388CL5C1RJ9X03EZUESK4LKS9TSHL1","","","null","","","","","","","","","",""
"37.099999994039536","","image-keyboard-response","259","892147","0.0-259.0","3VNL7UK1XG53R4TSZZBDCAEIUQQTFP","A3774HPOUKYTX7","388CL5C1RJ9X03EZUESK4LKS9TSHL1","","img/set1/S1.jpg","74","1","structured_load","83","structured_load,random,structured_incentive,structured_normal","3,4,2,1,2,3","2,3,4,1","false","","",""
"null","","html-keyboard-response","260","892503","0.0-260.0","3VNL7UK1XG53R4TSZZBDCAEIUQQTFP","A3774HPOUKYTX7","388CL5C1RJ9X03EZUESK4LKS9TSHL1","","<img src=""img/set1/S1.jpg"" width=""540"" height = ""360"">","null","","","","","","","","","",""
"null","","html-keyboard-response","261","892707","0.0-261.0","3VNL7UK1XG53R4TSZZBDCAEIUQQTFP","A3774HPOUKYTX7","388CL5C1RJ9X03EZUESK4LKS9TSHL1","","","null","","","","","","","","","",""
"86.7999999821186","","image-keyboard-response","262","892795","0.0-262.0","3VNL7UK1XG53R4TSZZBDCAEIUQQTFP","A3774HPOUKYTX7","388CL5C1RJ9X03EZUESK4LKS9TSHL1","","img/set1/S1.jpg","83","1","structured_load","83","structured_load,random,structured_incentive,structured_normal","3,4,2,1,2,3","2,3,4,1","true","","",""
"null","","html-keyboard-response","263","893146","0.0-263.0","3VNL7UK1XG53R4TSZZBDCAEIUQQTFP","A3774HPOUKYTX7","388CL5C1RJ9X03EZUESK4LKS9TSHL1","","<img src=""img/set1/S1.jpg"" width=""540"" height = ""360"" style=""border:16px solid orange"">","null","","","","","","","","","",""
"null","","html-keyboard-response","264","893348","0.0-264.0","3VNL7UK1XG53R4TSZZBDCAEIUQQTFP","A3774HPOUKYTX7","388CL5C1RJ9X03EZUESK4LKS9TSHL1","","","null","","","","","","","","","",""
"128.30000001192093","","image-keyboard-response","265","893479","0.0-265.0","3VNL7UK1XG53R4TSZZBDCAEIUQQTFP","A3774HPOUKYTX7","388CL5C1RJ9X03EZUESK4LKS9TSHL1","","img/set1/S1.jpg","72","1","structured_load","83","structured_load,random,structured_incentive,structured_normal","3,4,2,1,2,3","2,3,4,1","false","","",""
"null","","html-keyboard-response","266","893833","0.0-266.0","3VNL7UK1XG53R4TSZZBDCAEIUQQTFP","A3774HPOUKYTX7","388CL5C1RJ9X03EZUESK4LKS9TSHL1","","<img src=""img/set1/S1.jpg"" width=""540"" height = ""360"">","null","","","","","","","","","",""
"null","","html-keyboard-response","267","894036","0.0-267.0","3VNL7UK1XG53R4TSZZBDCAEIUQQTFP","A3774HPOUKYTX7","388CL5C1RJ9X03EZUESK4LKS9TSHL1","","","null","","","","","","","","","",""
"140.19999998807907","","image-keyboard-response","268","894178","0.0-268.0","3VNL7UK1XG53R4TSZZBDCAEIUQQTFP","A3774HPOUKYTX7","388CL5C1RJ9X03EZUESK4LKS9TSHL1","","img/set1/S1.jpg","68","1","structured_load","83","structured_load,random,structured_incentive,structured_normal","3,4,2,1,2,3","2,3,4,1","false","","",""
"null","","html-keyboard-response","269","894532","0.0-269.0","3VNL7UK1XG53R4TSZZBDCAEIUQQTFP","A3774HPOUKYTX7","388CL5C1RJ9X03EZUESK4LKS9TSHL1","","<img src=""img/set1/S1.jpg"" width=""540"" height = ""360"">","null","","","","","","","","","",""
"null","","html-keyboard-response","270","894735","0.0-270.0","3VNL7UK1XG53R4TSZZBDCAEIUQQTFP","A3774HPOUKYTX7","388CL5C1RJ9X03EZUESK4LKS9TSHL1","","","null","","","","","","","","","",""
"12.200000017881393","","image-keyboard-response","271","894750","0.0-271.0","3VNL7UK1XG53R4TSZZBDCAEIUQQTFP","A3774HPOUKYTX7","388CL5C1RJ9X03EZUESK4LKS9TSHL1","","img/set1/S1.jpg","74","1","structured_load","83","structured_load,random,structured_incentive,structured_normal","3,4,2,1,2,3","2,3,4,1","false","","",""
"null","","html-keyboard-response","272","895104","0.0-272.0","3VNL7UK1XG53R4TSZZBDCAEIUQQTFP","A3774HPOUKYTX7","388CL5C1RJ9X03EZUESK4LKS9TSHL1","","<img src=""img/set1/S1.jpg"" width=""540"" height = ""360"">","null","","","","","","","","","",""
"null","","html-keyboard-response","273","895308","0.0-273.0","3VNL7UK1XG53R4TSZZBDCAEIUQQTFP","A3774HPOUKYTX7","388CL5C1RJ9X03EZUESK4LKS9TSHL1","","","null","","","","","","","","","",""
"53.39999997615814","","image-keyboard-response","274","895364","0.0-274.0","3VNL7UK1XG53R4TSZZBDCAEIUQQTFP","A3774HPOUKYTX7","388CL5C1RJ9X03EZUESK4LKS9TSHL1","","img/set1/S1.jpg","83","1","structured_load","83","structured_load,random,structured_incentive,structured_normal","3,4,2,1,2,3","2,3,4,1","true","","",""
"null","","html-keyboard-response","275","895718","0.0-275.0","3VNL7UK1XG53R4TSZZBDCAEIUQQTFP","A3774HPOUKYTX7","388CL5C1RJ9X03EZUESK4LKS9TSHL1","","<img src=""img/set1/S1.jpg"" width=""540"" height = ""360"" style=""border:16px solid orange"">","null","","","","","","","","","",""
"null","","html-keyboard-response","276","895920","0.0-276.0","3VNL7UK1XG53R4TSZZBDCAEIUQQTFP","A3774HPOUKYTX7","388CL5C1RJ9X03EZUESK4LKS9TSHL1","","","null","","","","","","","","","",""
"37.400000005960464","","image-keyboard-response","277","895960","0.0-277.0","3VNL7UK1XG53R4TSZZBDCAEIUQQTFP","A3774HPOUKYTX7","388CL5C1RJ9X03EZUESK4LKS9TSHL1","","img/set1/S3.jpg","74","3","structured_load","72","structured_load,random,structured_incentive,structured_normal","3,4,2,1,2,3","2,3,4,1","false","","",""
"null","","html-keyboard-response","278","896315","0.0-278.0","3VNL7UK1XG53R4TSZZBDCAEIUQQTFP","A3774HPOUKYTX7","388CL5C1RJ9X03EZUESK4LKS9TSHL1","","<img src=""img/set1/S3.jpg"" width=""540"" height = ""360"">","null","","","","","","","","","",""
"null","","html-keyboard-response","279","896519","0.0-279.0","3VNL7UK1XG53R4TSZZBDCAEIUQQTFP","A3774HPOUKYTX7","388CL5C1RJ9X03EZUESK4LKS9TSHL1","","","null","","","","","","","","","",""
"15.099999994039536","","image-keyboard-response","280","896538","0.0-280.0","3VNL7UK1XG53R4TSZZBDCAEIUQQTFP","A3774HPOUKYTX7","388CL5C1RJ9X03EZUESK4LKS9TSHL1","","img/set1/S4.jpg","68","4","structured_load","74","structured_load,random,structured_incentive,structured_normal","3,4,2,1,2,3","2,3,4,1","false","","",""
"null","","html-keyboard-response","281","896894","0.0-281.0","3VNL7UK1XG53R4TSZZBDCAEIUQQTFP","A3774HPOUKYTX7","388CL5C1RJ9X03EZUESK4LKS9TSHL1","","<img src=""img/set1/S4.jpg"" width=""540"" height = ""360"">","null","","","","","","","","","",""
"null","","html-keyboard-response","282","897097","0.0-282.0","3VNL7UK1XG53R4TSZZBDCAEIUQQTFP","A3774HPOUKYTX7","388CL5C1RJ9X03EZUESK4LKS9TSHL1","","","null","","","","","","","","","",""
"459.19999998807907","","image-keyboard-response","283","897557","0.0-283.0","3VNL7UK1XG53R4TSZZBDCAEIUQQTFP","A3774HPOUKYTX7","388CL5C1RJ9X03EZUESK4LKS9TSHL1","","img/set1/S3.jpg","83","3","structured_load","72","structured_load,random,structured_incentive,structured_normal","3,4,2,1,2,3","2,3,4,1","false","","",""
"null","","html-keyboard-response","284","897909","0.0-284.0","3VNL7UK1XG53R4TSZZBDCAEIUQQTFP","A3774HPOUKYTX7","388CL5C1RJ9X03EZUESK4LKS9TSHL1","","<img src=""img/set1/S3.jpg"" width=""540"" height = ""360"">","null","","","","","","","","","",""
"null","","html-keyboard-response","285","898112","0.0-285.0","3VNL7UK1XG53R4TSZZBDCAEIUQQTFP","A3774HPOUKYTX7","388CL5C1RJ9X03EZUESK4LKS9TSHL1","","","null","","","","","","","","","",""
"163.2000000178814","","image-keyboard-response","286","898279","0.0-286.0","3VNL7UK1XG53R4TSZZBDCAEIUQQTFP","A3774HPOUKYTX7","388CL5C1RJ9X03EZUESK4LKS9TSHL1","","img/set1/S4.jpg","74","4","structured_load","74","structured_load,random,structured_incentive,structured_normal","3,4,2,1,2,3","2,3,4,1","true","","",""
"null","","html-keyboard-response","287","898633","0.0-287.0","3VNL7UK1XG53R4TSZZBDCAEIUQQTFP","A3774HPOUKYTX7","388CL5C1RJ9X03EZUESK4LKS9TSHL1","","<img src=""img/set1/S4.jpg"" width=""540"" height = ""360"" style=""border:16px solid orange"">","null","","","","","","","","","",""
"null","","html-keyboard-response","288","898836","0.0-288.0","3VNL7UK1XG53R4TSZZBDCAEIUQQTFP","A3774HPOUKYTX7","388CL5C1RJ9X03EZUESK4LKS9TSHL1","","","null","","","","","","","","","",""
"478.30000001192093","","image-keyboard-response","289","899317","0.0-289.0","3VNL7UK1XG53R4TSZZBDCAEIUQQTFP","A3774HPOUKYTX7","388CL5C1RJ9X03EZUESK4LKS9TSHL1","","img/set1/S2.jpg","68","2","structured_load","68","structured_load,random,structured_incentive,structured_normal","3,4,2,1,2,3","2,3,4,1","true","","",""
"null","","html-keyboard-response","290","899674","0.0-290.0","3VNL7UK1XG53R4TSZZBDCAEIUQQTFP","A3774HPOUKYTX7","388CL5C1RJ9X03EZUESK4LKS9TSHL1","","<img src=""img/set1/S2.jpg"" width=""540"" height = ""360"" style=""border:16px solid orange"">","null","","","","","","","","","",""
"null","","html-keyboard-response","291","899877","0.0-291.0","3VNL7UK1XG53R4TSZZBDCAEIUQQTFP","A3774HPOUKYTX7","388CL5C1RJ9X03EZUESK4LKS9TSHL1","","","null","","","","","","","","","",""
"221.7999999821186","","image-keyboard-response","292","900103","0.0-292.0","3VNL7UK1XG53R4TSZZBDCAEIUQQTFP","A3774HPOUKYTX7","388CL5C1RJ9X03EZUESK4LKS9TSHL1","","img/set1/S3.jpg","72","3","structured_load","72","structured_load,random,structured_incentive,structured_normal","3,4,2,1,2,3","2,3,4,1","true","","",""
"null","","html-keyboard-response","293","900462","0.0-293.0","3VNL7UK1XG53R4TSZZBDCAEIUQQTFP","A3774HPOUKYTX7","388CL5C1RJ9X03EZUESK4LKS9TSHL1","","<img src=""img/set1/S3.jpg"" width=""540"" height = ""360"" style=""border:16px solid orange"">","null","","","","","","","","","",""
"null","","html-keyboard-response","294","900665","0.0-294.0","3VNL7UK1XG53R4TSZZBDCAEIUQQTFP","A3774HPOUKYTX7","388CL5C1RJ9X03EZUESK4LKS9TSHL1","","","null","","","","","","","","","",""
"3.5","","image-keyboard-response","295","900670","0.0-295.0","3VNL7UK1XG53R4TSZZBDCAEIUQQTFP","A3774HPOUKYTX7","388CL5C1RJ9X03EZUESK4LKS9TSHL1","","img/set1/S4.jpg","83","4","structured_load","74","structured_load,random,structured_incentive,structured_normal","3,4,2,1,2,3","2,3,4,1","false","","",""
"null","","html-keyboard-response","296","901026","0.0-296.0","3VNL7UK1XG53R4TSZZBDCAEIUQQTFP","A3774HPOUKYTX7","388CL5C1RJ9X03EZUESK4LKS9TSHL1","","<img src=""img/set1/S4.jpg"" width=""540"" height = ""360"">","null","","","","","","","","","",""
"null","","html-keyboard-response","297","901230","0.0-297.0","3VNL7UK1XG53R4TSZZBDCAEIUQQTFP","A3774HPOUKYTX7","388CL5C1RJ9X03EZUESK4LKS9TSHL1","","","null","","","","","","","","","",""
"291.2999999821186","","image-keyboard-response","298","901527","0.0-298.0","3VNL7UK1XG53R4TSZZBDCAEIUQQTFP","A3774HPOUKYTX7","388CL5C1RJ9X03EZUESK4LKS9TSHL1","","img/set1/S3.jpg","83","3","structured_load","72","structured_load,random,structured_incentive,structured_normal","3,4,2,1,2,3","2,3,4,1","false","","",""
"null","","html-keyboard-response","299","901882","0.0-299.0","3VNL7UK1XG53R4TSZZBDCAEIUQQTFP","A3774HPOUKYTX7","388CL5C1RJ9X03EZUESK4LKS9TSHL1","","<img src=""img/set1/S3.jpg"" width=""540"" height = ""360"">","null","","","","","","","","","",""
"null","","html-keyboard-response","300","902092","0.0-300.0","3VNL7UK1XG53R4TSZZBDCAEIUQQTFP","A3774HPOUKYTX7","388CL5C1RJ9X03EZUESK4LKS9TSHL1","","","null","","","","","","","","","",""
"45.599999994039536","","image-keyboard-response","301","902139","0.0-301.0","3VNL7UK1XG53R4TSZZBDCAEIUQQTFP","A3774HPOUKYTX7","388CL5C1RJ9X03EZUESK4LKS9TSHL1","","img/set1/S4.jpg","72","4","structured_load","74","structured_load,random,structured_incentive,structured_normal","3,4,2,1,2,3","2,3,4,1","false","","",""
"null","","html-keyboard-response","302","902491","0.0-302.0","3VNL7UK1XG53R4TSZZBDCAEIUQQTFP","A3774HPOUKYTX7","388CL5C1RJ9X03EZUESK4LKS9TSHL1","","<img src=""img/set1/S4.jpg"" width=""540"" height = ""360"">","null","","","","","","","","","",""
"null","","html-keyboard-response","303","902693","0.0-303.0","3VNL7UK1XG53R4TSZZBDCAEIUQQTFP","A3774HPOUKYTX7","388CL5C1RJ9X03EZUESK4LKS9TSHL1","","","null","","","","","","","","","",""
"49.29999998211861","","image-keyboard-response","304","902744","0.0-304.0","3VNL7UK1XG53R4TSZZBDCAEIUQQTFP","A3774HPOUKYTX7","388CL5C1RJ9X03EZUESK4LKS9TSHL1","","img/set1/S3.jpg","68","3","structured_load","72","structured_load,random,structured_incentive,structured_normal","3,4,2,1,2,3","2,3,4,1","false","","",""
"null","","html-keyboard-response","305","903097","0.0-305.0","3VNL7UK1XG53R4TSZZBDCAEIUQQTFP","A3774HPOUKYTX7","388CL5C1RJ9X03EZUESK4LKS9TSHL1","","<img src=""img/set1/S3.jpg"" width=""540"" height = ""360"">","null","","","","","","","","","",""
"null","","html-keyboard-response","306","903300","0.0-306.0","3VNL7UK1XG53R4TSZZBDCAEIUQQTFP","A3774HPOUKYTX7","388CL5C1RJ9X03EZUESK4LKS9TSHL1","","","null","","","","","","","","","",""
"0.3999999761581421","","image-keyboard-response","307","903303","0.0-307.0","3VNL7UK1XG53R4TSZZBDCAEIUQQTFP","A3774HPOUKYTX7","388CL5C1RJ9X03EZUESK4LKS9TSHL1","","img/set1/S4.jpg","72","4","structured_load","74","structured_load,random,structured_incentive,structured_normal","3,4,2,1,2,3","2,3,4,1","false","","",""
"null","","html-keyboard-response","308","903659","0.0-308.0","3VNL7UK1XG53R4TSZZBDCAEIUQQTFP","A3774HPOUKYTX7","388CL5C1RJ9X03EZUESK4LKS9TSHL1","","<img src=""img/set1/S4.jpg"" width=""540"" height = ""360"">","null","","","","","","","","","",""
"null","","html-keyboard-response","309","903862","0.0-309.0","3VNL7UK1XG53R4TSZZBDCAEIUQQTFP","A3774HPOUKYTX7","388CL5C1RJ9X03EZUESK4LKS9TSHL1","","","null","","","","","","","","","",""
"265.60000002384186","","image-keyboard-response","310","904131","0.0-310.0","3VNL7UK1XG53R4TSZZBDCAEIUQQTFP","A3774HPOUKYTX7","388CL5C1RJ9X03EZUESK4LKS9TSHL1","","img/set1/S2.jpg","74","2","structured_load","68","structured_load,random,structured_incentive,structured_normal","3,4,2,1,2,3","2,3,4,1","false","","",""
"null","","html-keyboard-response","311","904485","0.0-311.0","3VNL7UK1XG53R4TSZZBDCAEIUQQTFP","A3774HPOUKYTX7","388CL5C1RJ9X03EZUESK4LKS9TSHL1","","<img src=""img/set1/S2.jpg"" width=""540"" height = ""360"">","null","","","","","","","","","",""
"null","","html-keyboard-response","312","904689","0.0-312.0","3VNL7UK1XG53R4TSZZBDCAEIUQQTFP","A3774HPOUKYTX7","388CL5C1RJ9X03EZUESK4LKS9TSHL1","","","null","","","","","","","","","",""
"222.90000000596046","","image-keyboard-response","313","904915","0.0-313.0","3VNL7UK1XG53R4TSZZBDCAEIUQQTFP","A3774HPOUKYTX7","388CL5C1RJ9X03EZUESK4LKS9TSHL1","","img/set1/S3.jpg","74","3","structured_load","72","structured_load,random,structured_incentive,structured_normal","3,4,2,1,2,3","2,3,4,1","false","","",""
"null","","html-keyboard-response","314","905271","0.0-314.0","3VNL7UK1XG53R4TSZZBDCAEIUQQTFP","A3774HPOUKYTX7","388CL5C1RJ9X03EZUESK4LKS9TSHL1","","<img src=""img/set1/S3.jpg"" width=""540"" height = ""360"">","null","","","","","","","","","",""
"null","","html-keyboard-response","315","905475","0.0-315.0","3VNL7UK1XG53R4TSZZBDCAEIUQQTFP","A3774HPOUKYTX7","388CL5C1RJ9X03EZUESK4LKS9TSHL1","","","null","","","","","","","","","",""
"66.7000000178814","","image-keyboard-response","316","905546","0.0-316.0","3VNL7UK1XG53R4TSZZBDCAEIUQQTFP","A3774HPOUKYTX7","388CL5C1RJ9X03EZUESK4LKS9TSHL1","","img/set1/S4.jpg","83","4","structured_load","74","structured_load,random,structured_incentive,structured_normal","3,4,2,1,2,3","2,3,4,1","false","","",""
"null","","html-keyboard-response","317","905901","0.0-317.0","3VNL7UK1XG53R4TSZZBDCAEIUQQTFP","A3774HPOUKYTX7","388CL5C1RJ9X03EZUESK4LKS9TSHL1","","<img src=""img/set1/S4.jpg"" width=""540"" height = ""360"">","null","","","","","","","","","",""
"null","","html-keyboard-response","318","906109","0.0-318.0","3VNL7UK1XG53R4TSZZBDCAEIUQQTFP","A3774HPOUKYTX7","388CL5C1RJ9X03EZUESK4LKS9TSHL1","","","null","","","","","","","","","",""
"179.09999999403954","","image-keyboard-response","319","906292","0.0-319.0","3VNL7UK1XG53R4TSZZBDCAEIUQQTFP","A3774HPOUKYTX7","388CL5C1RJ9X03EZUESK4LKS9TSHL1","","img/set1/S2.jpg","83","2","structured_load","68","structured_load,random,structured_incentive,structured_normal","3,4,2,1,2,3","2,3,4,1","false","","",""
"null","","html-keyboard-response","320","906648","0.0-320.0","3VNL7UK1XG53R4TSZZBDCAEIUQQTFP","A3774HPOUKYTX7","388CL5C1RJ9X03EZUESK4LKS9TSHL1","","<img src=""img/set1/S2.jpg"" width=""540"" height = ""360"">","null","","","","","","","","","",""
"null","","html-keyboard-response","321","906850","0.0-321.0","3VNL7UK1XG53R4TSZZBDCAEIUQQTFP","A3774HPOUKYTX7","388CL5C1RJ9X03EZUESK4LKS9TSHL1","","","null","","","","","","","","","",""
"195.40000000596046","","image-keyboard-response","322","907047","0.0-322.0","3VNL7UK1XG53R4TSZZBDCAEIUQQTFP","A3774HPOUKYTX7","388CL5C1RJ9X03EZUESK4LKS9TSHL1","","img/set1/S2.jpg","83","2","structured_load","68","structured_load,random,structured_incentive,structured_normal","3,4,2,1,2,3","2,3,4,1","false","","",""
"null","","html-keyboard-response","323","907400","0.0-323.0","3VNL7UK1XG53R4TSZZBDCAEIUQQTFP","A3774HPOUKYTX7","388CL5C1RJ9X03EZUESK4LKS9TSHL1","","<img src=""img/set1/S2.jpg"" width=""540"" height = ""360"">","null","","","","","","","","","",""
"null","","html-keyboard-response","324","907602","0.0-324.0","3VNL7UK1XG53R4TSZZBDCAEIUQQTFP","A3774HPOUKYTX7","388CL5C1RJ9X03EZUESK4LKS9TSHL1","","","null","","","","","","","","","",""
"174.5","","image-keyboard-response","325","907778","0.0-325.0","3VNL7UK1XG53R4TSZZBDCAEIUQQTFP","A3774HPOUKYTX7","388CL5C1RJ9X03EZUESK4LKS9TSHL1","","img/set1/S2.jpg","83","2","structured_load","68","structured_load,random,structured_incentive,structured_normal","3,4,2,1,2,3","2,3,4,1","false","","",""
"null","","html-keyboard-response","326","908130","0.0-326.0","3VNL7UK1XG53R4TSZZBDCAEIUQQTFP","A3774HPOUKYTX7","388CL5C1RJ9X03EZUESK4LKS9TSHL1","","<img src=""img/set1/S2.jpg"" width=""540"" height = ""360"">","null","","","","","","","","","",""
"null","","html-keyboard-response","327","908331","0.0-327.0","3VNL7UK1XG53R4TSZZBDCAEIUQQTFP","A3774HPOUKYTX7","388CL5C1RJ9X03EZUESK4LKS9TSHL1","","","null","","","","","","","","","",""
"321.59999999403954","","image-keyboard-response","328","908654","0.0-328.0","3VNL7UK1XG53R4TSZZBDCAEIUQQTFP","A3774HPOUKYTX7","388CL5C1RJ9X03EZUESK4LKS9TSHL1","","img/set1/S3.jpg","68","3","structured_load","72","structured_load,random,structured_incentive,structured_normal","3,4,2,1,2,3","2,3,4,1","false","","",""
"null","","html-keyboard-response","329","909006","0.0-329.0","3VNL7UK1XG53R4TSZZBDCAEIUQQTFP","A3774HPOUKYTX7","388CL5C1RJ9X03EZUESK4LKS9TSHL1","","<img src=""img/set1/S3.jpg"" width=""540"" height = ""360"">","null","","","","","","","","","",""
"null","","html-keyboard-response","330","909208","0.0-330.0","3VNL7UK1XG53R4TSZZBDCAEIUQQTFP","A3774HPOUKYTX7","388CL5C1RJ9X03EZUESK4LKS9TSHL1","","","null","","","","","","","","","",""
"579.8999999761581","","image-keyboard-response","331","909791","0.0-331.0","3VNL7UK1XG53R4TSZZBDCAEIUQQTFP","A3774HPOUKYTX7","388CL5C1RJ9X03EZUESK4LKS9TSHL1","","img/set1/S4.jpg","68","4","structured_load","74","structured_load,random,structured_incentive,structured_normal","3,4,2,1,2,3","2,3,4,1","false","","",""
"null","","html-keyboard-response","332","910145","0.0-332.0","3VNL7UK1XG53R4TSZZBDCAEIUQQTFP","A3774HPOUKYTX7","388CL5C1RJ9X03EZUESK4LKS9TSHL1","","<img src=""img/set1/S4.jpg"" width=""540"" height = ""360"">","null","","","","","","","","","",""
"null","","html-keyboard-response","333","910347","0.0-333.0","3VNL7UK1XG53R4TSZZBDCAEIUQQTFP","A3774HPOUKYTX7","388CL5C1RJ9X03EZUESK4LKS9TSHL1","","","null","","","","","","","","","",""
"127.09999999403954","","image-keyboard-response","334","910477","0.0-334.0","3VNL7UK1XG53R4TSZZBDCAEIUQQTFP","A3774HPOUKYTX7","388CL5C1RJ9X03EZUESK4LKS9TSHL1","","img/set1/S1.jpg","72","1","structured_load","83","structured_load,random,structured_incentive,structured_normal","3,4,2,1,2,3","2,3,4,1","false","","",""
"null","","html-keyboard-response","335","910832","0.0-335.0","3VNL7UK1XG53R4TSZZBDCAEIUQQTFP","A3774HPOUKYTX7","388CL5C1RJ9X03EZUESK4LKS9TSHL1","","<img src=""img/set1/S1.jpg"" width=""540"" height = ""360"">","null","","","","","","","","","",""
"null","","html-keyboard-response","336","911035","0.0-336.0","3VNL7UK1XG53R4TSZZBDCAEIUQQTFP","A3774HPOUKYTX7","388CL5C1RJ9X03EZUESK4LKS9TSHL1","","","null","","","","","","","","","",""
"330.59999999403954","","image-keyboard-response","337","911370","0.0-337.0","3VNL7UK1XG53R4TSZZBDCAEIUQQTFP","A3774HPOUKYTX7","388CL5C1RJ9X03EZUESK4LKS9TSHL1","","img/set1/S3.jpg","68","3","structured_load","72","structured_load,random,structured_incentive,structured_normal","3,4,2,1,2,3","2,3,4,1","false","","",""
"null","","html-keyboard-response","338","911725","0.0-338.0","3VNL7UK1XG53R4TSZZBDCAEIUQQTFP","A3774HPOUKYTX7","388CL5C1RJ9X03EZUESK4LKS9TSHL1","","<img src=""img/set1/S3.jpg"" width=""540"" height = ""360"">","null","","","","","","","","","",""
"null","","html-keyboard-response","339","911928","0.0-339.0","3VNL7UK1XG53R4TSZZBDCAEIUQQTFP","A3774HPOUKYTX7","388CL5C1RJ9X03EZUESK4LKS9TSHL1","","","null","","","","","","","","","",""
"300.69999998807907","","image-keyboard-response","340","912230","0.0-340.0","3VNL7UK1XG53R4TSZZBDCAEIUQQTFP","A3774HPOUKYTX7","388CL5C1RJ9X03EZUESK4LKS9TSHL1","","img/set1/S4.jpg","68","4","structured_load","74","structured_load,random,structured_incentive,structured_normal","3,4,2,1,2,3","2,3,4,1","false","","",""
"null","","html-keyboard-response","341","912584","0.0-341.0","3VNL7UK1XG53R4TSZZBDCAEIUQQTFP","A3774HPOUKYTX7","388CL5C1RJ9X03EZUESK4LKS9TSHL1","","<img src=""img/set1/S4.jpg"" width=""540"" height = ""360"">","null","","","","","","","","","",""
"null","","html-keyboard-response","342","912787","0.0-342.0","3VNL7UK1XG53R4TSZZBDCAEIUQQTFP","A3774HPOUKYTX7","388CL5C1RJ9X03EZUESK4LKS9TSHL1","","","null","","","","","","","","","",""
"150.80000001192093","","image-keyboard-response","343","912940","0.0-343.0","3VNL7UK1XG53R4TSZZBDCAEIUQQTFP","A3774HPOUKYTX7","388CL5C1RJ9X03EZUESK4LKS9TSHL1","","img/set1/S1.jpg","83","1","structured_load","83","structured_load,random,structured_incentive,structured_normal","3,4,2,1,2,3","2,3,4,1","true","","",""
"null","","html-keyboard-response","344","913292","0.0-344.0","3VNL7UK1XG53R4TSZZBDCAEIUQQTFP","A3774HPOUKYTX7","388CL5C1RJ9X03EZUESK4LKS9TSHL1","","<img src=""img/set1/S1.jpg"" width=""540"" height = ""360"" style=""border:16px solid orange"">","null","","","","","","","","","",""
"null","","html-keyboard-response","345","913495","0.0-345.0","3VNL7UK1XG53R4TSZZBDCAEIUQQTFP","A3774HPOUKYTX7","388CL5C1RJ9X03EZUESK4LKS9TSHL1","","","null","","","","","","","","","",""
"291.80000001192093","","image-keyboard-response","346","913789","0.0-346.0","3VNL7UK1XG53R4TSZZBDCAEIUQQTFP","A3774HPOUKYTX7","388CL5C1RJ9X03EZUESK4LKS9TSHL1","","img/set1/S1.jpg","83","1","structured_load","83","structured_load,random,structured_incentive,structured_normal","3,4,2,1,2,3","2,3,4,1","true","","",""
"null","","html-keyboard-response","347","914142","0.0-347.0","3VNL7UK1XG53R4TSZZBDCAEIUQQTFP","A3774HPOUKYTX7","388CL5C1RJ9X03EZUESK4LKS9TSHL1","","<img src=""img/set1/S1.jpg"" width=""540"" height = ""360"" style=""border:16px solid orange"">","null","","","","","","","","","",""
"null","","html-keyboard-response","348","914345","0.0-348.0","3VNL7UK1XG53R4TSZZBDCAEIUQQTFP","A3774HPOUKYTX7","388CL5C1RJ9X03EZUESK4LKS9TSHL1","","","null","","","","","","","","","",""
"190.7999999821186","","image-keyboard-response","349","914539","0.0-349.0","3VNL7UK1XG53R4TSZZBDCAEIUQQTFP","A3774HPOUKYTX7","388CL5C1RJ9X03EZUESK4LKS9TSHL1","","img/set1/S3.jpg","68","3","structured_load","72","structured_load,random,structured_incentive,structured_normal","3,4,2,1,2,3","2,3,4,1","false","","",""
"null","","html-keyboard-response","350","914893","0.0-350.0","3VNL7UK1XG53R4TSZZBDCAEIUQQTFP","A3774HPOUKYTX7","388CL5C1RJ9X03EZUESK4LKS9TSHL1","","<img src=""img/set1/S3.jpg"" width=""540"" height = ""360"">","null","","","","","","","","","",""
"null","","html-keyboard-response","351","915096","0.0-351.0","3VNL7UK1XG53R4TSZZBDCAEIUQQTFP","A3774HPOUKYTX7","388CL5C1RJ9X03EZUESK4LKS9TSHL1","","","null","","","","","","","","","",""
"156.19999998807907","","image-keyboard-response","352","915256","0.0-352.0","3VNL7UK1XG53R4TSZZBDCAEIUQQTFP","A3774HPOUKYTX7","388CL5C1RJ9X03EZUESK4LKS9TSHL1","","img/set1/S4.jpg","74","4","structured_load","74","structured_load,random,structured_incentive,structured_normal","3,4,2,1,2,3","2,3,4,1","true","","",""
"null","","html-keyboard-response","353","915611","0.0-353.0","3VNL7UK1XG53R4TSZZBDCAEIUQQTFP","A3774HPOUKYTX7","388CL5C1RJ9X03EZUESK4LKS9TSHL1","","<img src=""img/set1/S4.jpg"" width=""540"" height = ""360"" style=""border:16px solid orange"">","null","","","","","","","","","",""
"null","","html-keyboard-response","354","915815","0.0-354.0","3VNL7UK1XG53R4TSZZBDCAEIUQQTFP","A3774HPOUKYTX7","388CL5C1RJ9X03EZUESK4LKS9TSHL1","","","null","","","","","","","","","",""
"411.90000000596046","","image-keyboard-response","355","916230","0.0-355.0","3VNL7UK1XG53R4TSZZBDCAEIUQQTFP","A3774HPOUKYTX7","388CL5C1RJ9X03EZUESK4LKS9TSHL1","","img/set1/S2.jpg","72","2","structured_load","68","structured_load,random,structured_incentive,structured_normal","3,4,2,1,2,3","2,3,4,1","false","","",""
"null","","html-keyboard-response","356","916586","0.0-356.0","3VNL7UK1XG53R4TSZZBDCAEIUQQTFP","A3774HPOUKYTX7","388CL5C1RJ9X03EZUESK4LKS9TSHL1","","<img src=""img/set1/S2.jpg"" width=""540"" height = ""360"">","null","","","","","","","","","",""
"null","","html-keyboard-response","357","916791","0.0-357.0","3VNL7UK1XG53R4TSZZBDCAEIUQQTFP","A3774HPOUKYTX7","388CL5C1RJ9X03EZUESK4LKS9TSHL1","","","null","","","","","","","","","",""
"190.59999999403954","","image-keyboard-response","358","916983","0.0-358.0","3VNL7UK1XG53R4TSZZBDCAEIUQQTFP","A3774HPOUKYTX7","388CL5C1RJ9X03EZUESK4LKS9TSHL1","","img/set1/S3.jpg","72","3","structured_load","72","structured_load,random,structured_incentive,structured_normal","3,4,2,1,2,3","2,3,4,1","true","","",""
"null","","html-keyboard-response","359","917336","0.0-359.0","3VNL7UK1XG53R4TSZZBDCAEIUQQTFP","A3774HPOUKYTX7","388CL5C1RJ9X03EZUESK4LKS9TSHL1","","<img src=""img/set1/S3.jpg"" width=""540"" height = ""360"" style=""border:16px solid orange"">","null","","","","","","","","","",""
"null","","html-keyboard-response","360","917539","0.0-360.0","3VNL7UK1XG53R4TSZZBDCAEIUQQTFP","A3774HPOUKYTX7","388CL5C1RJ9X03EZUESK4LKS9TSHL1","","","null","","","","","","","","","",""
"344.40000000596046","","image-keyboard-response","361","917886","0.0-361.0","3VNL7UK1XG53R4TSZZBDCAEIUQQTFP","A3774HPOUKYTX7","388CL5C1RJ9X03EZUESK4LKS9TSHL1","","img/set1/S4.jpg","74","4","structured_load","74","structured_load,random,structured_incentive,structured_normal","3,4,2,1,2,3","2,3,4,1","true","","",""
"null","","html-keyboard-response","362","918238","0.0-362.0","3VNL7UK1XG53R4TSZZBDCAEIUQQTFP","A3774HPOUKYTX7","388CL5C1RJ9X03EZUESK4LKS9TSHL1","","<img src=""img/set1/S4.jpg"" width=""540"" height = ""360"" style=""border:16px solid orange"">","null","","","","","","","","","",""
"null","","html-keyboard-response","363","918441","0.0-363.0","3VNL7UK1XG53R4TSZZBDCAEIUQQTFP","A3774HPOUKYTX7","388CL5C1RJ9X03EZUESK4LKS9TSHL1","","","null","","","","","","","","","",""
"6705.5999999940395","","survey-multi-choice","364","925152","0.0-364.0","3VNL7UK1XG53R4TSZZBDCAEIUQQTFP","A3774HPOUKYTX7","388CL5C1RJ9X03EZUESK4LKS9TSHL1","","","","","","","","","","","{""Q0"":""Picture A""}","[0]",""
"1771.9000000059605","","html-keyboard-response","365","926929","0.0-365.0","3VNL7UK1XG53R4TSZZBDCAEIUQQTFP","A3774HPOUKYTX7","388CL5C1RJ9X03EZUESK4LKS9TSHL1","","<p class=""center-content"">Underfortunately, the answer you selected was incorrect. </p><p class=""center-content"">Please press any key to continue. </p>","32","","","","","","","","","",""
"1151.0999999940395","","html-keyboard-response","366","928083","0.0-366.0","3VNL7UK1XG53R4TSZZBDCAEIUQQTFP","A3774HPOUKYTX7","388CL5C1RJ9X03EZUESK4LKS9TSHL1","","<p class=""center-content"">You have completed a block! </p><p class=""center-content"">Press any key on the keyboard to continue, </p><p class=""center-content"">or wait for the automatic progression to the next block after one minute.</p>","32","","","","","","","","","",""
"2207","","instructions","367","930291","0.0-367.0","3VNL7UK1XG53R4TSZZBDCAEIUQQTFP","A3774HPOUKYTX7","388CL5C1RJ9X03EZUESK4LKS9TSHL1","[{""page_index"":0,""viewing_time"":2206.7999999821186}]","","","","","","","","","","","",""
"942.5999999940395","","instructions","368","931234","0.0-368.0","3VNL7UK1XG53R4TSZZBDCAEIUQQTFP","A3774HPOUKYTX7","388CL5C1RJ9X03EZUESK4LKS9TSHL1","[{""page_index"":0,""viewing_time"":942.3000000119209}]","","","","","","","","","","","",""
"585.7999999821186","","image-keyboard-response","369","931822","0.0-369.0","3VNL7UK1XG53R4TSZZBDCAEIUQQTFP","A3774HPOUKYTX7","388CL5C1RJ9X03EZUESK4LKS9TSHL1","","img/set2/S1.jpg","83","1","random","83","structured_load,random,structured_incentive,structured_normal","3,4,2,1,2,3","2,3,4,1","true","","",""
"null","","html-keyboard-response","370","932176","0.0-370.0","3VNL7UK1XG53R4TSZZBDCAEIUQQTFP","A3774HPOUKYTX7","388CL5C1RJ9X03EZUESK4LKS9TSHL1","","<img src=""img/set2/S1.jpg"" width=""540"" height = ""360"" style=""border:16px solid orange"">","null","","","","","","","","","",""
"null","","html-keyboard-response","371","932379","0.0-371.0","3VNL7UK1XG53R4TSZZBDCAEIUQQTFP","A3774HPOUKYTX7","388CL5C1RJ9X03EZUESK4LKS9TSHL1","","","null","","","","","","","","","",""
"24.30000001192093","","image-keyboard-response","372","932405","0.0-372.0","3VNL7UK1XG53R4TSZZBDCAEIUQQTFP","A3774HPOUKYTX7","388CL5C1RJ9X03EZUESK4LKS9TSHL1","","img/set2/S1.jpg","68","1","random","83","structured_load,random,structured_incentive,structured_normal","3,4,2,1,2,3","2,3,4,1","false","","",""
"null","","html-keyboard-response","373","932756","0.0-373.0","3VNL7UK1XG53R4TSZZBDCAEIUQQTFP","A3774HPOUKYTX7","388CL5C1RJ9X03EZUESK4LKS9TSHL1","","<img src=""img/set2/S1.jpg"" width=""540"" height = ""360"">","null","","","","","","","","","",""
"null","","html-keyboard-response","374","932959","0.0-374.0","3VNL7UK1XG53R4TSZZBDCAEIUQQTFP","A3774HPOUKYTX7","388CL5C1RJ9X03EZUESK4LKS9TSHL1","","","null","","","","","","","","","",""
"135.2000000178814","","image-keyboard-response","375","933096","0.0-375.0","3VNL7UK1XG53R4TSZZBDCAEIUQQTFP","A3774HPOUKYTX7","388CL5C1RJ9X03EZUESK4LKS9TSHL1","","img/set2/S3.jpg","74","3","random","72","structured_load,random,structured_incentive,structured_normal","3,4,2,1,2,3","2,3,4,1","false","","",""
"null","","html-keyboard-response","376","933453","0.0-376.0","3VNL7UK1XG53R4TSZZBDCAEIUQQTFP","A3774HPOUKYTX7","388CL5C1RJ9X03EZUESK4LKS9TSHL1","","<img src=""img/set2/S3.jpg"" width=""540"" height = ""360"">","null","","","","","","","","","",""
"null","","html-keyboard-response","377","933675","0.0-377.0","3VNL7UK1XG53R4TSZZBDCAEIUQQTFP","A3774HPOUKYTX7","388CL5C1RJ9X03EZUESK4LKS9TSHL1","","","null","","","","","","","","","",""
"716.7000000178814","","image-keyboard-response","378","934395","0.0-378.0","3VNL7UK1XG53R4TSZZBDCAEIUQQTFP","A3774HPOUKYTX7","388CL5C1RJ9X03EZUESK4LKS9TSHL1","","img/set2/S2.jpg","83","2","random","68","structured_load,random,structured_incentive,structured_normal","3,4,2,1,2,3","2,3,4,1","false","","",""
"null","","html-keyboard-response","379","934749","0.0-379.0","3VNL7UK1XG53R4TSZZBDCAEIUQQTFP","A3774HPOUKYTX7","388CL5C1RJ9X03EZUESK4LKS9TSHL1","","<img src=""img/set2/S2.jpg"" width=""540"" height = ""360"">","null","","","","","","","","","",""
"null","","html-keyboard-response","380","934952","0.0-380.0","3VNL7UK1XG53R4TSZZBDCAEIUQQTFP","A3774HPOUKYTX7","388CL5C1RJ9X03EZUESK4LKS9TSHL1","","","null","","","","","","","","","",""
"751.5","","image-keyboard-response","381","935708","0.0-381.0","3VNL7UK1XG53R4TSZZBDCAEIUQQTFP","A3774HPOUKYTX7","388CL5C1RJ9X03EZUESK4LKS9TSHL1","","img/set2/S1.jpg","68","1","random","83","structured_load,random,structured_incentive,structured_normal","3,4,2,1,2,3","2,3,4,1","false","","",""
"null","","html-keyboard-response","382","936062","0.0-382.0","3VNL7UK1XG53R4TSZZBDCAEIUQQTFP","A3774HPOUKYTX7","388CL5C1RJ9X03EZUESK4LKS9TSHL1","","<img src=""img/set2/S1.jpg"" width=""540"" height = ""360"">","null","","","","","","","","","",""
"null","","html-keyboard-response","383","936264","0.0-383.0","3VNL7UK1XG53R4TSZZBDCAEIUQQTFP","A3774HPOUKYTX7","388CL5C1RJ9X03EZUESK4LKS9TSHL1","","","null","","","","","","","","","",""
"339.39999997615814","","image-keyboard-response","384","936606","0.0-384.0","3VNL7UK1XG53R4TSZZBDCAEIUQQTFP","A3774HPOUKYTX7","388CL5C1RJ9X03EZUESK4LKS9TSHL1","","img/set2/S1.jpg","74","1","random","83","structured_load,random,structured_incentive,structured_normal","3,4,2,1,2,3","2,3,4,1","false","","",""
"null","","html-keyboard-response","385","936961","0.0-385.0","3VNL7UK1XG53R4TSZZBDCAEIUQQTFP","A3774HPOUKYTX7","388CL5C1RJ9X03EZUESK4LKS9TSHL1","","<img src=""img/set2/S1.jpg"" width=""540"" height = ""360"">","null","","","","","","","","","",""
"null","","html-keyboard-response","386","937164","0.0-386.0","3VNL7UK1XG53R4TSZZBDCAEIUQQTFP","A3774HPOUKYTX7","388CL5C1RJ9X03EZUESK4LKS9TSHL1","","","null","","","","","","","","","",""
"2075.9000000059605","","image-keyboard-response","387","939242","0.0-387.0","3VNL7UK1XG53R4TSZZBDCAEIUQQTFP","A3774HPOUKYTX7","388CL5C1RJ9X03EZUESK4LKS9TSHL1","","img/set2/S1.jpg","83","1","random","83","structured_load,random,structured_incentive,structured_normal","3,4,2,1,2,3","2,3,4,1","true","","",""
"null","","html-keyboard-response","388","939597","0.0-388.0","3VNL7UK1XG53R4TSZZBDCAEIUQQTFP","A3774HPOUKYTX7","388CL5C1RJ9X03EZUESK4LKS9TSHL1","","<img src=""img/set2/S1.jpg"" width=""540"" height = ""360"" style=""border:16px solid orange"">","null","","","","","","","","","",""
"null","","html-keyboard-response","389","939801","0.0-389.0","3VNL7UK1XG53R4TSZZBDCAEIUQQTFP","A3774HPOUKYTX7","388CL5C1RJ9X03EZUESK4LKS9TSHL1","","","null","","","","","","","","","",""
