"rt","url","trial_type","trial_index","time_elapsed","internal_node_id","view_history","stimulus","key_press","state","test_part","correct_response","order_block","order_chunk","correct","responses","bonus"
"91113.70000000298","consent.html","external-html","0","91199","0.0-0.0","","","","","","","","","","",""
"189519.30000001192","","instructions","1","280721","0.0-1.0","[{""page_index"":0,""viewing_time"":5961.9000000059605},{""page_index"":1,""viewing_time"":18867.90000000596},{""page_index"":2,""viewing_time"":19421.89999999106},{""page_index"":3,""viewing_time"":20379.5},{""page_index"":4,""viewing_time"":20736.70000000298},{""page_index"":5,""viewing_time"":33119.90000000596},{""page_index"":6,""viewing_time"":71030.19999998808}]","","","","","","","","","",""
"31097.39999999106","","instructions","2","311819","0.0-2.0","[{""page_index"":0,""viewing_time"":31096.89999999106}]","","","","","","","","","",""
"16923","","instructions","3","328743","0.0-3.0","[{""page_index"":0,""viewing_time"":16922.5}]","","","","","","","","","",""
"null","","image-keyboard-response","4","331254","0.0-4.0","","img/set1/S4.jpg","null","4","random","74","random,structured_load,structured_normal,structured_incentive","2,1,3,4,2,3","false","",""
"null","","html-keyboard-response","5","331616","0.0-5.0","","<img src=""img/set1/S4.jpg"" width=""540"" height = ""360"">","null","","","","","","","",""
"null","","html-keyboard-response","6","331834","0.0-6.0","","","null","","","","","","","",""
"62.599999994039536","","image-keyboard-response","7","331899","0.0-7.0","","img/set1/S1.jpg","72","1","random","83","random,structured_load,structured_normal,structured_incentive","2,1,3,4,2,3","false","",""
"null","","html-keyboard-response","8","332251","0.0-8.0","","<img src=""img/set1/S1.jpg"" width=""540"" height = ""360"">","null","","","","","","","",""
"null","","html-keyboard-response","9","332463","0.0-9.0","","","null","","","","","","","",""
"1116.800000011921","","image-keyboard-response","10","333582","0.0-10.0","","img/set1/S4.jpg","72","4","random","74","random,structured_load,structured_normal,structured_incentive","2,1,3,4,2,3","false","",""
"null","","html-keyboard-response","11","333948","0.0-11.0","","<img src=""img/set1/S4.jpg"" width=""540"" height = ""360"">","null","","","","","","","",""
"null","","html-keyboard-response","12","334157","0.0-12.0","","","null","","","","","","","",""
"939.9000000059605","","image-keyboard-response","13","335099","0.0-13.0","","img/set1/S3.jpg","68","3","random","72","random,structured_load,structured_normal,structured_incentive","2,1,3,4,2,3","false","",""
"null","","html-keyboard-response","14","335451","0.0-14.0","","<img src=""img/set1/S3.jpg"" width=""540"" height = ""360"">","null","","","","","","","",""
"null","","html-keyboard-response","15","335659","0.0-15.0","","","null","","","","","","","",""
"885","","image-keyboard-response","16","336545","0.0-16.0","","img/set1/S3.jpg","68","3","random","72","random,structured_load,structured_normal,structured_incentive","2,1,3,4,2,3","false","",""
"null","","html-keyboard-response","17","336898","0.0-17.0","","<img src=""img/set1/S3.jpg"" width=""540"" height = ""360"">","null","","","","","","","",""
"null","","html-keyboard-response","18","337107","0.0-18.0","","","null","","","","","","","",""
"566.3999999910593","","image-keyboard-response","19","337676","0.0-19.0","","img/set1/S4.jpg","83","4","random","74","random,structured_load,structured_normal,structured_incentive","2,1,3,4,2,3","false","",""
"null","","html-keyboard-response","20","338031","0.0-20.0","","<img src=""img/set1/S4.jpg"" width=""540"" height = ""360"">","null","","","","","","","",""
"null","","html-keyboard-response","21","338241","0.0-21.0","","","null","","","","","","","",""
"1123","","image-keyboard-response","22","339365","0.0-22.0","","img/set1/S4.jpg","74","4","random","74","random,structured_load,structured_normal,structured_incentive","2,1,3,4,2,3","true","",""
"null","","html-keyboard-response","23","339731","0.0-23.0","","<img src=""img/set1/S4.jpg"" width=""540"" height = ""360"" style=""border:16px solid orange"">","null","","","","","","","",""
"null","","html-keyboard-response","24","339941","0.0-24.0","","","null","","","","","","","",""
"903.7000000029802","","image-keyboard-response","25","340846","0.0-25.0","","img/set1/S4.jpg","74","4","random","74","random,structured_load,structured_normal,structured_incentive","2,1,3,4,2,3","true","",""
"null","","html-keyboard-response","26","341199","0.0-26.0","","<img src=""img/set1/S4.jpg"" width=""540"" height = ""360"" style=""border:16px solid orange"">","null","","","","","","","",""
"null","","html-keyboard-response","27","341408","0.0-27.0","","","null","","","","","","","",""
"1865.2999999970198","","image-keyboard-response","28","343275","0.0-28.0","","img/set1/S2.jpg","74","2","random","68","random,structured_load,structured_normal,structured_incentive","2,1,3,4,2,3","false","",""
"null","","html-keyboard-response","29","343631","0.0-29.0","","<img src=""img/set1/S2.jpg"" width=""540"" height = ""360"">","null","","","","","","","",""
"null","","html-keyboard-response","30","343840","0.0-30.0","","","null","","","","","","","",""
"989.2000000029802","","image-keyboard-response","31","344832","0.0-31.0","","img/set1/S4.jpg","74","4","random","74","random,structured_load,structured_normal,structured_incentive","2,1,3,4,2,3","true","",""
"null","","html-keyboard-response","32","345198","0.0-32.0","","<img src=""img/set1/S4.jpg"" width=""540"" height = ""360"" style=""border:16px solid orange"">","null","","","","","","","",""
"null","","html-keyboard-response","33","345406","0.0-33.0","","","null","","","","","","","",""
"620.8999999910593","","image-keyboard-response","34","346029","0.0-34.0","","img/set1/S4.jpg","72","4","random","74","random,structured_load,structured_normal,structured_incentive","2,1,3,4,2,3","false","",""
"null","","html-keyboard-response","35","346382","0.0-35.0","","<img src=""img/set1/S4.jpg"" width=""540"" height = ""360"">","null","","","","","","","",""
"null","","html-keyboard-response","36","346592","0.0-36.0","","","null","","","","","","","",""
"971.5999999940395","","image-keyboard-response","37","347566","0.0-37.0","","img/set1/S2.jpg","68","2","random","68","random,structured_load,structured_normal,structured_incentive","2,1,3,4,2,3","true","",""
"null","","html-keyboard-response","38","347928","0.0-38.0","","<img src=""img/set1/S2.jpg"" width=""540"" height = ""360"" style=""border:16px solid orange"">","null","","","","","","","",""
"null","","html-keyboard-response","39","348146","0.0-39.0","","","null","","","","","","","",""
"1348.5","","image-keyboard-response","40","349496","0.0-40.0","","img/set1/S3.jpg","83","3","random","72","random,structured_load,structured_normal,structured_incentive","2,1,3,4,2,3","false","",""
"null","","html-keyboard-response","41","349863","0.0-41.0","","<img src=""img/set1/S3.jpg"" width=""540"" height = ""360"">","null","","","","","","","",""
"null","","html-keyboard-response","42","350073","0.0-42.0","","","null","","","","","","","",""
"844.9000000059605","","image-keyboard-response","43","350920","0.0-43.0","","img/set1/S2.jpg","68","2","random","68","random,structured_load,structured_normal,structured_incentive","2,1,3,4,2,3","true","",""
"null","","html-keyboard-response","44","351280","0.0-44.0","","<img src=""img/set1/S2.jpg"" width=""540"" height = ""360"" style=""border:16px solid orange"">","null","","","","","","","",""
"null","","html-keyboard-response","45","351490","0.0-45.0","","","null","","","","","","","",""
"665.2999999970198","","image-keyboard-response","46","352157","0.0-46.0","","img/set1/S3.jpg","74","3","random","72","random,structured_load,structured_normal,structured_incentive","2,1,3,4,2,3","false","",""
"null","","html-keyboard-response","47","352530","0.0-47.0","","<img src=""img/set1/S3.jpg"" width=""540"" height = ""360"">","null","","","","","","","",""
"null","","html-keyboard-response","48","352740","0.0-48.0","","","null","","","","","","","",""
"506.3999999910593","","image-keyboard-response","49","353248","0.0-49.0","","img/set1/S3.jpg","72","3","random","72","random,structured_load,structured_normal,structured_incentive","2,1,3,4,2,3","true","",""
"null","","html-keyboard-response","50","353614","0.0-50.0","","<img src=""img/set1/S3.jpg"" width=""540"" height = ""360"" style=""border:16px solid orange"">","null","","","","","","","",""
"null","","html-keyboard-response","51","353824","0.0-51.0","","","null","","","","","","","",""
"1773.5","","image-keyboard-response","52","355599","0.0-52.0","","img/set1/S1.jpg","83","1","random","83","random,structured_load,structured_normal,structured_incentive","2,1,3,4,2,3","true","",""
"null","","html-keyboard-response","53","355963","0.0-53.0","","<img src=""img/set1/S1.jpg"" width=""540"" height = ""360"" style=""border:16px solid orange"">","null","","","","","","","",""
"null","","html-keyboard-response","54","356173","0.0-54.0","","","null","","","","","","","",""
"945.1999999880791","","image-keyboard-response","55","357120","0.0-55.0","","img/set1/S1.jpg","83","1","random","83","random,structured_load,structured_normal,structured_incentive","2,1,3,4,2,3","true","",""
"null","","html-keyboard-response","56","357482","0.0-56.0","","<img src=""img/set1/S1.jpg"" width=""540"" height = ""360"" style=""border:16px solid orange"">","null","","","","","","","",""
"null","","html-keyboard-response","57","357684","0.0-57.0","","","null","","","","","","","",""
"814.0999999940395","","image-keyboard-response","58","358491","0.0-58.0","","img/set1/S3.jpg","72","3","random","72","random,structured_load,structured_normal,structured_incentive","2,1,3,4,2,3","true","",""
"null","","html-keyboard-response","59","358857","0.0-59.0","","<img src=""img/set1/S3.jpg"" width=""540"" height = ""360"" style=""border:16px solid orange"">","null","","","","","","","",""
"null","","html-keyboard-response","60","359066","0.0-60.0","","","null","","","","","","","",""
"1425.0999999940395","","image-keyboard-response","61","360493","0.0-61.0","","img/set1/S1.jpg","74","1","random","83","random,structured_load,structured_normal,structured_incentive","2,1,3,4,2,3","false","",""
"null","","html-keyboard-response","62","360854","0.0-62.0","","<img src=""img/set1/S1.jpg"" width=""540"" height = ""360"">","null","","","","","","","",""
"null","","html-keyboard-response","63","361064","0.0-63.0","","","null","","","","","","","",""
"1186.2000000029802","","image-keyboard-response","64","362252","0.0-64.0","","img/set1/S4.jpg","74","4","random","74","random,structured_load,structured_normal,structured_incentive","2,1,3,4,2,3","true","",""
"null","","html-keyboard-response","65","362607","0.0-65.0","","<img src=""img/set1/S4.jpg"" width=""540"" height = ""360"" style=""border:16px solid orange"">","null","","","","","","","",""
"null","","html-keyboard-response","66","362816","0.0-66.0","","","null","","","","","","","",""
"1166","","image-keyboard-response","67","363983","0.0-67.0","","img/set1/S1.jpg","83","1","random","83","random,structured_load,structured_normal,structured_incentive","2,1,3,4,2,3","true","",""
"null","","html-keyboard-response","68","364345","0.0-68.0","","<img src=""img/set1/S1.jpg"" width=""540"" height = ""360"" style=""border:16px solid orange"">","null","","","","","","","",""
"null","","html-keyboard-response","69","364547","0.0-69.0","","","null","","","","","","","",""
"892.7000000029802","","image-keyboard-response","70","365444","0.0-70.0","","img/set1/S4.jpg","74","4","random","74","random,structured_load,structured_normal,structured_incentive","2,1,3,4,2,3","true","",""
"null","","html-keyboard-response","71","365804","0.0-71.0","","<img src=""img/set1/S4.jpg"" width=""540"" height = ""360"" style=""border:16px solid orange"">","null","","","","","","","",""
"null","","html-keyboard-response","72","366014","0.0-72.0","","","null","","","","","","","",""
"742.2000000029802","","image-keyboard-response","73","366758","0.0-73.0","","img/set1/S4.jpg","74","4","random","74","random,structured_load,structured_normal,structured_incentive","2,1,3,4,2,3","true","",""
"null","","html-keyboard-response","74","367121","0.0-74.0","","<img src=""img/set1/S4.jpg"" width=""540"" height = ""360"" style=""border:16px solid orange"">","null","","","","","","","",""
"null","","html-keyboard-response","75","367330","0.0-75.0","","","null","","","","","","","",""
"920.5999999940395","","image-keyboard-response","76","368252","0.0-76.0","","img/set1/S2.jpg","72","2","random","68","random,structured_load,structured_normal,structured_incentive","2,1,3,4,2,3","false","",""
"null","","html-keyboard-response","77","368613","0.0-77.0","","<img src=""img/set1/S2.jpg"" width=""540"" height = ""360"">","null","","","","","","","",""
"null","","html-keyboard-response","78","368830","0.0-78.0","","","null","","","","","","","",""
"868.5","","image-keyboard-response","79","369700","0.0-79.0","","img/set1/S3.jpg","72","3","random","72","random,structured_load,structured_normal,structured_incentive","2,1,3,4,2,3","true","",""
"null","","html-keyboard-response","80","370056","0.0-80.0","","<img src=""img/set1/S3.jpg"" width=""540"" height = ""360"" style=""border:16px solid orange"">","null","","","","","","","",""
"null","","html-keyboard-response","81","370268","0.0-81.0","","","null","","","","","","","",""
"655.1999999880791","","image-keyboard-response","82","370925","0.0-82.0","","img/set1/S1.jpg","68","1","random","83","random,structured_load,structured_normal,structured_incentive","2,1,3,4,2,3","false","",""
"null","","html-keyboard-response","83","371279","0.0-83.0","","<img src=""img/set1/S1.jpg"" width=""540"" height = ""360"">","null","","","","","","","",""
"null","","html-keyboard-response","84","371489","0.0-84.0","","","null","","","","","","","",""
"540.7000000029802","","image-keyboard-response","85","372031","0.0-85.0","","img/set1/S4.jpg","83","4","random","74","random,structured_load,structured_normal,structured_incentive","2,1,3,4,2,3","false","",""
"null","","html-keyboard-response","86","372388","0.0-86.0","","<img src=""img/set1/S4.jpg"" width=""540"" height = ""360"">","null","","","","","","","",""
"null","","html-keyboard-response","87","372599","0.0-87.0","","","null","","","","","","","",""
"1502.5","","image-keyboard-response","88","374103","0.0-88.0","","img/set1/S1.jpg","74","1","random","83","random,structured_load,structured_normal,structured_incentive","2,1,3,4,2,3","false","",""
"null","","html-keyboard-response","89","374456","0.0-89.0","","<img src=""img/set1/S1.jpg"" width=""540"" height = ""360"">","null","","","","","","","",""
"null","","html-keyboard-response","90","374664","0.0-90.0","","","null","","","","","","","",""
"1311","","image-keyboard-response","91","375977","0.0-91.0","","img/set1/S3.jpg","68","3","random","72","random,structured_load,structured_normal,structured_incentive","2,1,3,4,2,3","false","",""
"null","","html-keyboard-response","92","376336","0.0-92.0","","<img src=""img/set1/S3.jpg"" width=""540"" height = ""360"">","null","","","","","","","",""
"null","","html-keyboard-response","93","376546","0.0-93.0","","","null","","","","","","","",""
"1214","","image-keyboard-response","94","377762","0.0-94.0","","img/set1/S2.jpg","83","2","random","68","random,structured_load,structured_normal,structured_incentive","2,1,3,4,2,3","false","",""
"null","","html-keyboard-response","95","378120","0.0-95.0","","<img src=""img/set1/S2.jpg"" width=""540"" height = ""360"">","null","","","","","","","",""
"null","","html-keyboard-response","96","378330","0.0-96.0","","","null","","","","","","","",""
"992.3999999910593","","image-keyboard-response","97","379324","0.0-97.0","","img/set1/S4.jpg","74","4","random","74","random,structured_load,structured_normal,structured_incentive","2,1,3,4,2,3","true","",""
"null","","html-keyboard-response","98","379687","0.0-98.0","","<img src=""img/set1/S4.jpg"" width=""540"" height = ""360"" style=""border:16px solid orange"">","null","","","","","","","",""
"null","","html-keyboard-response","99","379896","0.0-99.0","","","null","","","","","","","",""
"667.3999999910593","","image-keyboard-response","100","380565","0.0-100.0","","img/set1/S2.jpg","68","2","random","68","random,structured_load,structured_normal,structured_incentive","2,1,3,4,2,3","true","",""
"null","","html-keyboard-response","101","380921","0.0-101.0","","<img src=""img/set1/S2.jpg"" width=""540"" height = ""360"" style=""border:16px solid orange"">","null","","","","","","","",""
"null","","html-keyboard-response","102","381131","0.0-102.0","","","null","","","","","","","",""
"637.2000000029802","","image-keyboard-response","103","381770","0.0-103.0","","img/set1/S2.jpg","68","2","random","68","random,structured_load,structured_normal,structured_incentive","2,1,3,4,2,3","true","",""
"null","","html-keyboard-response","104","382135","0.0-104.0","","<img src=""img/set1/S2.jpg"" width=""540"" height = ""360"" style=""border:16px solid orange"">","null","","","","","","","",""
"null","","html-keyboard-response","105","382346","0.0-105.0","","","null","","","","","","","",""
"1635.5","","image-keyboard-response","106","383983","0.0-106.0","","img/set1/S1.jpg","74","1","random","83","random,structured_load,structured_normal,structured_incentive","2,1,3,4,2,3","false","",""
"null","","html-keyboard-response","107","384349","0.0-107.0","","<img src=""img/set1/S1.jpg"" width=""540"" height = ""360"">","null","","","","","","","",""
"null","","html-keyboard-response","108","384562","0.0-108.0","","","null","","","","","","","",""
"627.1999999880791","","image-keyboard-response","109","385191","0.0-109.0","","img/set1/S4.jpg","68","4","random","74","random,structured_load,structured_normal,structured_incentive","2,1,3,4,2,3","false","",""
"null","","html-keyboard-response","110","385556","0.0-110.0","","<img src=""img/set1/S4.jpg"" width=""540"" height = ""360"">","null","","","","","","","",""
"null","","html-keyboard-response","111","385765","0.0-111.0","","","null","","","","","","","",""
"557.2999999970198","","image-keyboard-response","112","386324","0.0-112.0","","img/set1/S1.jpg","83","1","random","83","random,structured_load,structured_normal,structured_incentive","2,1,3,4,2,3","true","",""
"null","","html-keyboard-response","113","386685","0.0-113.0","","<img src=""img/set1/S1.jpg"" width=""540"" height = ""360"" style=""border:16px solid orange"">","null","","","","","","","",""
"null","","html-keyboard-response","114","386895","0.0-114.0","","","null","","","","","","","",""
"981.6999999880791","","image-keyboard-response","115","387879","0.0-115.0","","img/set1/S3.jpg","68","3","random","72","random,structured_load,structured_normal,structured_incentive","2,1,3,4,2,3","false","",""
"null","","html-keyboard-response","116","388236","0.0-116.0","","<img src=""img/set1/S3.jpg"" width=""540"" height = ""360"">","null","","","","","","","",""
"null","","html-keyboard-response","117","388446","0.0-117.0","","","null","","","","","","","",""
"634.5999999940395","","image-keyboard-response","118","389082","0.0-118.0","","img/set1/S1.jpg","83","1","random","83","random,structured_load,structured_normal,structured_incentive","2,1,3,4,2,3","true","",""
"null","","html-keyboard-response","119","389441","0.0-119.0","","<img src=""img/set1/S1.jpg"" width=""540"" height = ""360"" style=""border:16px solid orange"">","null","","","","","","","",""
"null","","html-keyboard-response","120","389652","0.0-120.0","","","null","","","","","","","",""
"780.2000000029802","","image-keyboard-response","121","390434","0.0-121.0","","img/set1/S3.jpg","72","3","random","72","random,structured_load,structured_normal,structured_incentive","2,1,3,4,2,3","true","",""
"null","","html-keyboard-response","122","390802","0.0-122.0","","<img src=""img/set1/S3.jpg"" width=""540"" height = ""360"" style=""border:16px solid orange"">","null","","","","","","","",""
"null","","html-keyboard-response","123","391012","0.0-123.0","","","null","","","","","","","",""
"980.2999999970198","","image-keyboard-response","124","391994","0.0-124.0","","img/set1/S1.jpg","83","1","random","83","random,structured_load,structured_normal,structured_incentive","2,1,3,4,2,3","true","",""
"null","","html-keyboard-response","125","392353","0.0-125.0","","<img src=""img/set1/S1.jpg"" width=""540"" height = ""360"" style=""border:16px solid orange"">","null","","","","","","","",""
"null","","html-keyboard-response","126","392562","0.0-126.0","","","null","","","","","","","",""
"639.2999999970198","","image-keyboard-response","127","393203","0.0-127.0","","img/set1/S3.jpg","72","3","random","72","random,structured_load,structured_normal,structured_incentive","2,1,3,4,2,3","true","",""
"null","","html-keyboard-response","128","393570","0.0-128.0","","<img src=""img/set1/S3.jpg"" width=""540"" height = ""360"" style=""border:16px solid orange"">","null","","","","","","","",""
"null","","html-keyboard-response","129","393779","0.0-129.0","","","null","","","","","","","",""
"617.6999999880791","","image-keyboard-response","130","394399","0.0-130.0","","img/set1/S1.jpg","83","1","random","83","random,structured_load,structured_normal,structured_incentive","2,1,3,4,2,3","true","",""
"null","","html-keyboard-response","131","394752","0.0-131.0","","<img src=""img/set1/S1.jpg"" width=""540"" height = ""360"" style=""border:16px solid orange"">","null","","","","","","","",""
"null","","html-keyboard-response","132","394961","0.0-132.0","","","null","","","","","","","",""
"609.1999999880791","","image-keyboard-response","133","395572","0.0-133.0","","img/set1/S1.jpg","83","1","random","83","random,structured_load,structured_normal,structured_incentive","2,1,3,4,2,3","true","",""
"null","","html-keyboard-response","134","395935","0.0-134.0","","<img src=""img/set1/S1.jpg"" width=""540"" height = ""360"" style=""border:16px solid orange"">","null","","","","","","","",""
"null","","html-keyboard-response","135","396145","0.0-135.0","","","null","","","","","","","",""
"987.7000000029802","","image-keyboard-response","136","397134","0.0-136.0","","img/set1/S2.jpg","68","2","random","68","random,structured_load,structured_normal,structured_incentive","2,1,3,4,2,3","true","",""
"null","","html-keyboard-response","137","397495","0.0-137.0","","<img src=""img/set1/S2.jpg"" width=""540"" height = ""360"" style=""border:16px solid orange"">","null","","","","","","","",""
"null","","html-keyboard-response","138","397712","0.0-138.0","","","null","","","","","","","",""
"990.0999999940395","","image-keyboard-response","139","398704","0.0-139.0","","img/set1/S3.jpg","72","3","random","72","random,structured_load,structured_normal,structured_incentive","2,1,3,4,2,3","true","",""
"null","","html-keyboard-response","140","399059","0.0-140.0","","<img src=""img/set1/S3.jpg"" width=""540"" height = ""360"" style=""border:16px solid orange"">","null","","","","","","","",""
"null","","html-keyboard-response","141","399263","0.0-141.0","","","null","","","","","","","",""
"655.5999999940395","","image-keyboard-response","142","399920","0.0-142.0","","img/set1/S1.jpg","83","1","random","83","random,structured_load,structured_normal,structured_incentive","2,1,3,4,2,3","true","",""
"null","","html-keyboard-response","143","400286","0.0-143.0","","<img src=""img/set1/S1.jpg"" width=""540"" height = ""360"" style=""border:16px solid orange"">","null","","","","","","","",""
"null","","html-keyboard-response","144","400495","0.0-144.0","","","null","","","","","","","",""
"842.6000000089407","","image-keyboard-response","145","401339","0.0-145.0","","img/set1/S2.jpg","68","2","random","68","random,structured_load,structured_normal,structured_incentive","2,1,3,4,2,3","true","",""
"null","","html-keyboard-response","146","401702","0.0-146.0","","<img src=""img/set1/S2.jpg"" width=""540"" height = ""360"" style=""border:16px solid orange"">","null","","","","","","","",""
"null","","html-keyboard-response","147","401911","0.0-147.0","","","null","","","","","","","",""
"617.2000000029802","","image-keyboard-response","148","402530","0.0-148.0","","img/set1/S4.jpg","74","4","random","74","random,structured_load,structured_normal,structured_incentive","2,1,3,4,2,3","true","",""
"null","","html-keyboard-response","149","402886","0.0-149.0","","<img src=""img/set1/S4.jpg"" width=""540"" height = ""360"" style=""border:16px solid orange"">","null","","","","","","","",""
"null","","html-keyboard-response","150","403096","0.0-150.0","","","null","","","","","","","",""
"1286.5","","image-keyboard-response","151","404384","0.0-151.0","","img/set1/S1.jpg","72","1","random","83","random,structured_load,structured_normal,structured_incentive","2,1,3,4,2,3","false","",""
"null","","html-keyboard-response","152","404738","0.0-152.0","","<img src=""img/set1/S1.jpg"" width=""540"" height = ""360"">","null","","","","","","","",""
"null","","html-keyboard-response","153","404940","0.0-153.0","","","null","","","","","","","",""
"658.7000000029802","","image-keyboard-response","154","405599","0.0-154.0","","img/set1/S1.jpg","83","1","random","83","random,structured_load,structured_normal,structured_incentive","2,1,3,4,2,3","true","",""
"null","","html-keyboard-response","155","405967","0.0-155.0","","<img src=""img/set1/S1.jpg"" width=""540"" height = ""360"" style=""border:16px solid orange"">","null","","","","","","","",""
"null","","html-keyboard-response","156","406171","0.0-156.0","","","null","","","","","","","",""
"942.7000000029802","","image-keyboard-response","157","407116","0.0-157.0","","img/set1/S3.jpg","72","3","random","72","random,structured_load,structured_normal,structured_incentive","2,1,3,4,2,3","true","",""
"null","","html-keyboard-response","158","407469","0.0-158.0","","<img src=""img/set1/S3.jpg"" width=""540"" height = ""360"" style=""border:16px solid orange"">","null","","","","","","","",""
"null","","html-keyboard-response","159","407686","0.0-159.0","","","null","","","","","","","",""
"608","","image-keyboard-response","160","408296","0.0-160.0","","img/set1/S4.jpg","74","4","random","74","random,structured_load,structured_normal,structured_incentive","2,1,3,4,2,3","true","",""
"null","","html-keyboard-response","161","408653","0.0-161.0","","<img src=""img/set1/S4.jpg"" width=""540"" height = ""360"" style=""border:16px solid orange"">","null","","","","","","","",""
"null","","html-keyboard-response","162","408862","0.0-162.0","","","null","","","","","","","",""
"665.5","","image-keyboard-response","163","409530","0.0-163.0","","img/set1/S2.jpg","68","2","random","68","random,structured_load,structured_normal,structured_incentive","2,1,3,4,2,3","true","",""
"null","","html-keyboard-response","164","409886","0.0-164.0","","<img src=""img/set1/S2.jpg"" width=""540"" height = ""360"" style=""border:16px solid orange"">","null","","","","","","","",""
"null","","html-keyboard-response","165","410095","0.0-165.0","","","null","","","","","","","",""
"640.5999999940395","","image-keyboard-response","166","410738","0.0-166.0","","img/set1/S1.jpg","83","1","random","83","random,structured_load,structured_normal,structured_incentive","2,1,3,4,2,3","true","",""
"null","","html-keyboard-response","167","411102","0.0-167.0","","<img src=""img/set1/S1.jpg"" width=""540"" height = ""360"" style=""border:16px solid orange"">","null","","","","","","","",""
"null","","html-keyboard-response","168","411312","0.0-168.0","","","null","","","","","","","",""
"619.9000000059605","","image-keyboard-response","169","411933","0.0-169.0","","img/set1/S1.jpg","83","1","random","83","random,structured_load,structured_normal,structured_incentive","2,1,3,4,2,3","true","",""
"null","","html-keyboard-response","170","412292","0.0-170.0","","<img src=""img/set1/S1.jpg"" width=""540"" height = ""360"" style=""border:16px solid orange"">","null","","","","","","","",""
"null","","html-keyboard-response","171","412496","0.0-171.0","","","null","","","","","","","",""
"750.1000000089407","","image-keyboard-response","172","413248","0.0-172.0","","img/set1/S3.jpg","72","3","random","72","random,structured_load,structured_normal,structured_incentive","2,1,3,4,2,3","true","",""
"null","","html-keyboard-response","173","413600","0.0-173.0","","<img src=""img/set1/S3.jpg"" width=""540"" height = ""360"" style=""border:16px solid orange"">","null","","","","","","","",""
"null","","html-keyboard-response","174","413815","0.0-174.0","","","null","","","","","","","",""
"650.0999999940395","","image-keyboard-response","175","414466","0.0-175.0","","img/set1/S4.jpg","74","4","random","74","random,structured_load,structured_normal,structured_incentive","2,1,3,4,2,3","true","",""
"null","","html-keyboard-response","176","414819","0.0-176.0","","<img src=""img/set1/S4.jpg"" width=""540"" height = ""360"" style=""border:16px solid orange"">","null","","","","","","","",""
"null","","html-keyboard-response","177","415028","0.0-177.0","","","null","","","","","","","",""
"874.2000000029802","","image-keyboard-response","178","415904","0.0-178.0","","img/set1/S3.jpg","72","3","random","72","random,structured_load,structured_normal,structured_incentive","2,1,3,4,2,3","true","",""
"null","","html-keyboard-response","179","416257","0.0-179.0","","<img src=""img/set1/S3.jpg"" width=""540"" height = ""360"" style=""border:16px solid orange"">","null","","","","","","","",""
"null","","html-keyboard-response","180","416465","0.0-180.0","","","null","","","","","","","",""
"556.7999999970198","","image-keyboard-response","181","417024","0.0-181.0","","img/set1/S2.jpg","74","2","random","68","random,structured_load,structured_normal,structured_incentive","2,1,3,4,2,3","false","",""
"null","","html-keyboard-response","182","417385","0.0-182.0","","<img src=""img/set1/S2.jpg"" width=""540"" height = ""360"">","null","","","","","","","",""
"null","","html-keyboard-response","183","417594","0.0-183.0","","","null","","","","","","","",""
"974.9000000059605","","image-keyboard-response","184","418579","0.0-184.0","","img/set1/S1.jpg","83","1","random","83","random,structured_load,structured_normal,structured_incentive","2,1,3,4,2,3","true","",""
"null","","html-keyboard-response","185","418945","0.0-185.0","","<img src=""img/set1/S1.jpg"" width=""540"" height = ""360"" style=""border:16px solid orange"">","null","","","","","","","",""
"null","","html-keyboard-response","186","419152","0.0-186.0","","","null","","","","","","","",""
"796.2000000029802","","image-keyboard-response","187","419950","0.0-187.0","","img/set1/S3.jpg","72","3","random","72","random,structured_load,structured_normal,structured_incentive","2,1,3,4,2,3","true","",""
"null","","html-keyboard-response","188","420309","0.0-188.0","","<img src=""img/set1/S3.jpg"" width=""540"" height = ""360"" style=""border:16px solid orange"">","null","","","","","","","",""
"null","","html-keyboard-response","189","420518","0.0-189.0","","","null","","","","","","","",""
"524.2999999970198","","image-keyboard-response","190","421044","0.0-190.0","","img/set1/S2.jpg","68","2","random","68","random,structured_load,structured_normal,structured_incentive","2,1,3,4,2,3","true","",""
"null","","html-keyboard-response","191","421410","0.0-191.0","","<img src=""img/set1/S2.jpg"" width=""540"" height = ""360"" style=""border:16px solid orange"">","null","","","","","","","",""
"null","","html-keyboard-response","192","421622","0.0-192.0","","","null","","","","","","","",""
"673","","image-keyboard-response","193","422297","0.0-193.0","","img/set1/S3.jpg","72","3","random","72","random,structured_load,structured_normal,structured_incentive","2,1,3,4,2,3","true","",""
"null","","html-keyboard-response","194","422658","0.0-194.0","","<img src=""img/set1/S3.jpg"" width=""540"" height = ""360"" style=""border:16px solid orange"">","null","","","","","","","",""
"null","","html-keyboard-response","195","422867","0.0-195.0","","","null","","","","","","","",""
"534.5999999940395","","image-keyboard-response","196","423404","0.0-196.0","","img/set1/S1.jpg","68","1","random","83","random,structured_load,structured_normal,structured_incentive","2,1,3,4,2,3","false","",""
"null","","html-keyboard-response","197","423761","0.0-197.0","","<img src=""img/set1/S1.jpg"" width=""540"" height = ""360"">","null","","","","","","","",""
"null","","html-keyboard-response","198","423971","0.0-198.0","","","null","","","","","","","",""
"913.7999999970198","","image-keyboard-response","199","424887","0.0-199.0","","img/set1/S2.jpg","68","2","random","68","random,structured_load,structured_normal,structured_incentive","2,1,3,4,2,3","true","",""
"null","","html-keyboard-response","200","425241","0.0-200.0","","<img src=""img/set1/S2.jpg"" width=""540"" height = ""360"" style=""border:16px solid orange"">","null","","","","","","","",""
"null","","html-keyboard-response","201","425450","0.0-201.0","","","null","","","","","","","",""
"666.0999999940395","","image-keyboard-response","202","426118","0.0-202.0","","img/set1/S1.jpg","83","1","random","83","random,structured_load,structured_normal,structured_incentive","2,1,3,4,2,3","true","",""
"null","","html-keyboard-response","203","426476","0.0-203.0","","<img src=""img/set1/S1.jpg"" width=""540"" height = ""360"" style=""border:16px solid orange"">","null","","","","","","","",""
"null","","html-keyboard-response","204","426686","0.0-204.0","","","null","","","","","","","",""
"928.5","","image-keyboard-response","205","427616","0.0-205.0","","img/set1/S2.jpg","68","2","random","68","random,structured_load,structured_normal,structured_incentive","2,1,3,4,2,3","true","",""
"null","","html-keyboard-response","206","427972","0.0-206.0","","<img src=""img/set1/S2.jpg"" width=""540"" height = ""360"" style=""border:16px solid orange"">","null","","","","","","","",""
"null","","html-keyboard-response","207","428185","0.0-207.0","","","null","","","","","","","",""
"677.0999999940395","","image-keyboard-response","208","428864","0.0-208.0","","img/set1/S4.jpg","74","4","random","74","random,structured_load,structured_normal,structured_incentive","2,1,3,4,2,3","true","",""
"null","","html-keyboard-response","209","429226","0.0-209.0","","<img src=""img/set1/S4.jpg"" width=""540"" height = ""360"" style=""border:16px solid orange"">","null","","","","","","","",""
"null","","html-keyboard-response","210","429435","0.0-210.0","","","null","","","","","","","",""
"657.5","","image-keyboard-response","211","430094","0.0-211.0","","img/set1/S3.jpg","72","3","random","72","random,structured_load,structured_normal,structured_incentive","2,1,3,4,2,3","true","",""
"null","","html-keyboard-response","212","430459","0.0-212.0","","<img src=""img/set1/S3.jpg"" width=""540"" height = ""360"" style=""border:16px solid orange"">","null","","","","","","","",""
"null","","html-keyboard-response","213","430670","0.0-213.0","","","null","","","","","","","",""
"769.2999999970198","","image-keyboard-response","214","431441","0.0-214.0","","img/set1/S2.jpg","68","2","random","68","random,structured_load,structured_normal,structured_incentive","2,1,3,4,2,3","true","",""
"null","","html-keyboard-response","215","431808","0.0-215.0","","<img src=""img/set1/S2.jpg"" width=""540"" height = ""360"" style=""border:16px solid orange"">","null","","","","","","","",""
"null","","html-keyboard-response","216","432019","0.0-216.0","","","null","","","","","","","",""
"658.2999999970198","","image-keyboard-response","217","432679","0.0-217.0","","img/set1/S3.jpg","72","3","random","72","random,structured_load,structured_normal,structured_incentive","2,1,3,4,2,3","true","",""
"null","","html-keyboard-response","218","433040","0.0-218.0","","<img src=""img/set1/S3.jpg"" width=""540"" height = ""360"" style=""border:16px solid orange"">","null","","","","","","","",""
"null","","html-keyboard-response","219","433250","0.0-219.0","","","null","","","","","","","",""
"660.5","","image-keyboard-response","220","433912","0.0-220.0","","img/set1/S3.jpg","72","3","random","72","random,structured_load,structured_normal,structured_incentive","2,1,3,4,2,3","true","",""
"null","","html-keyboard-response","221","434274","0.0-221.0","","<img src=""img/set1/S3.jpg"" width=""540"" height = ""360"" style=""border:16px solid orange"">","null","","","","","","","",""
"null","","html-keyboard-response","222","434484","0.0-222.0","","","null","","","","","","","",""
"740.5999999940395","","image-keyboard-response","223","435227","0.0-223.0","","img/set1/S4.jpg","74","4","random","74","random,structured_load,structured_normal,structured_incentive","2,1,3,4,2,3","true","",""
"null","","html-keyboard-response","224","435590","0.0-224.0","","<img src=""img/set1/S4.jpg"" width=""540"" height = ""360"" style=""border:16px solid orange"">","null","","","","","","","",""
"null","","html-keyboard-response","225","435799","0.0-225.0","","","null","","","","","","","",""
"704.2000000029802","","image-keyboard-response","226","436505","0.0-226.0","","img/set1/S1.jpg","83","1","random","83","random,structured_load,structured_normal,structured_incentive","2,1,3,4,2,3","true","",""
"null","","html-keyboard-response","227","436872","0.0-227.0","","<img src=""img/set1/S1.jpg"" width=""540"" height = ""360"" style=""border:16px solid orange"">","null","","","","","","","",""
"null","","html-keyboard-response","228","437082","0.0-228.0","","","null","","","","","","","",""
"691.7999999970198","","image-keyboard-response","229","437776","0.0-229.0","","img/set1/S4.jpg","74","4","random","74","random,structured_load,structured_normal,structured_incentive","2,1,3,4,2,3","true","",""
"null","","html-keyboard-response","230","438143","0.0-230.0","","<img src=""img/set1/S4.jpg"" width=""540"" height = ""360"" style=""border:16px solid orange"">","null","","","","","","","",""
"null","","html-keyboard-response","231","438352","0.0-231.0","","","null","","","","","","","",""
"645.1999999880791","","image-keyboard-response","232","438999","0.0-232.0","","img/set1/S4.jpg","74","4","random","74","random,structured_load,structured_normal,structured_incentive","2,1,3,4,2,3","true","",""
"null","","html-keyboard-response","233","439356","0.0-233.0","","<img src=""img/set1/S4.jpg"" width=""540"" height = ""360"" style=""border:16px solid orange"">","null","","","","","","","",""
"null","","html-keyboard-response","234","439566","0.0-234.0","","","null","","","","","","","",""
"678.0999999940395","","image-keyboard-response","235","440246","0.0-235.0","","img/set1/S2.jpg","72","2","random","68","random,structured_load,structured_normal,structured_incentive","2,1,3,4,2,3","false","",""
"null","","html-keyboard-response","236","440608","0.0-236.0","","<img src=""img/set1/S2.jpg"" width=""540"" height = ""360"">","null","","","","","","","",""
"null","","html-keyboard-response","237","440817","0.0-237.0","","","null","","","","","","","",""
"610.2000000029802","","image-keyboard-response","238","441429","0.0-238.0","","img/set1/S2.jpg","68","2","random","68","random,structured_load,structured_normal,structured_incentive","2,1,3,4,2,3","true","",""
"null","","html-keyboard-response","239","441791","0.0-239.0","","<img src=""img/set1/S2.jpg"" width=""540"" height = ""360"" style=""border:16px solid orange"">","null","","","","","","","",""
"null","","html-keyboard-response","240","442001","0.0-240.0","","","null","","","","","","","",""
"590","","image-keyboard-response","241","442593","0.0-241.0","","img/set1/S2.jpg","68","2","random","68","random,structured_load,structured_normal,structured_incentive","2,1,3,4,2,3","true","",""
"null","","html-keyboard-response","242","442958","0.0-242.0","","<img src=""img/set1/S2.jpg"" width=""540"" height = ""360"" style=""border:16px solid orange"">","null","","","","","","","",""
"null","","html-keyboard-response","243","443171","0.0-243.0","","","null","","","","","","","",""
"625.2999999970198","","image-keyboard-response","244","443799","0.0-244.0","","img/set1/S1.jpg","83","1","random","83","random,structured_load,structured_normal,structured_incentive","2,1,3,4,2,3","true","",""
"null","","html-keyboard-response","245","444166","0.0-245.0","","<img src=""img/set1/S1.jpg"" width=""540"" height = ""360"" style=""border:16px solid orange"">","null","","","","","","","",""
"null","","html-keyboard-response","246","444369","0.0-246.0","","","null","","","","","","","",""
"665.2999999970198","","image-keyboard-response","247","445036","0.0-247.0","","img/set1/S4.jpg","74","4","random","74","random,structured_load,structured_normal,structured_incentive","2,1,3,4,2,3","true","",""
"null","","html-keyboard-response","248","445390","0.0-248.0","","<img src=""img/set1/S4.jpg"" width=""540"" height = ""360"" style=""border:16px solid orange"">","null","","","","","","","",""
"null","","html-keyboard-response","249","445599","0.0-249.0","","","null","","","","","","","",""
"498.3999999910593","","image-keyboard-response","250","446100","0.0-250.0","","img/set1/S4.jpg","74","4","random","74","random,structured_load,structured_normal,structured_incentive","2,1,3,4,2,3","true","",""
"null","","html-keyboard-response","251","446458","0.0-251.0","","<img src=""img/set1/S4.jpg"" width=""540"" height = ""360"" style=""border:16px solid orange"">","null","","","","","","","",""
"null","","html-keyboard-response","252","446665","0.0-252.0","","","null","","","","","","","",""
"594.5","","image-keyboard-response","253","447262","0.0-253.0","","img/set1/S3.jpg","72","3","random","72","random,structured_load,structured_normal,structured_incentive","2,1,3,4,2,3","true","",""
"null","","html-keyboard-response","254","447624","0.0-254.0","","<img src=""img/set1/S3.jpg"" width=""540"" height = ""360"" style=""border:16px solid orange"">","null","","","","","","","",""
"null","","html-keyboard-response","255","447832","0.0-255.0","","","null","","","","","","","",""
"677.2000000029802","","image-keyboard-response","256","448511","0.0-256.0","","img/set1/S4.jpg","74","4","random","74","random,structured_load,structured_normal,structured_incentive","2,1,3,4,2,3","true","",""
"null","","html-keyboard-response","257","448876","0.0-257.0","","<img src=""img/set1/S4.jpg"" width=""540"" height = ""360"" style=""border:16px solid orange"">","null","","","","","","","",""
"null","","html-keyboard-response","258","449084","0.0-258.0","","","null","","","","","","","",""
"643.0999999940395","","image-keyboard-response","259","449729","0.0-259.0","","img/set1/S2.jpg","68","2","random","68","random,structured_load,structured_normal,structured_incentive","2,1,3,4,2,3","true","",""
"null","","html-keyboard-response","260","450090","0.0-260.0","","<img src=""img/set1/S2.jpg"" width=""540"" height = ""360"" style=""border:16px solid orange"">","null","","","","","","","",""
"null","","html-keyboard-response","261","450300","0.0-261.0","","","null","","","","","","","",""
"528.0999999940395","","image-keyboard-response","262","450830","0.0-262.0","","img/set1/S3.jpg","74","3","random","72","random,structured_load,structured_normal,structured_incentive","2,1,3,4,2,3","false","",""
"null","","html-keyboard-response","263","451189","0.0-263.0","","<img src=""img/set1/S3.jpg"" width=""540"" height = ""360"">","null","","","","","","","",""
"null","","html-keyboard-response","264","451399","0.0-264.0","","","null","","","","","","","",""
"680.6999999880791","","image-keyboard-response","265","452081","0.0-265.0","","img/set1/S2.jpg","68","2","random","68","random,structured_load,structured_normal,structured_incentive","2,1,3,4,2,3","true","",""
"null","","html-keyboard-response","266","452443","0.0-266.0","","<img src=""img/set1/S2.jpg"" width=""540"" height = ""360"" style=""border:16px solid orange"">","null","","","","","","","",""
"null","","html-keyboard-response","267","452649","0.0-267.0","","","null","","","","","","","",""
"504.1000000089407","","image-keyboard-response","268","453155","0.0-268.0","","img/set1/S3.jpg","72","3","random","72","random,structured_load,structured_normal,structured_incentive","2,1,3,4,2,3","true","",""
"null","","html-keyboard-response","269","453511","0.0-269.0","","<img src=""img/set1/S3.jpg"" width=""540"" height = ""360"" style=""border:16px solid orange"">","null","","","","","","","",""
"null","","html-keyboard-response","270","453716","0.0-270.0","","","null","","","","","","","",""
"674.9000000059605","","image-keyboard-response","271","454393","0.0-271.0","","img/set1/S4.jpg","74","4","random","74","random,structured_load,structured_normal,structured_incentive","2,1,3,4,2,3","true","",""
"null","","html-keyboard-response","272","454756","0.0-272.0","","<img src=""img/set1/S4.jpg"" width=""540"" height = ""360"" style=""border:16px solid orange"">","null","","","","","","","",""
"null","","html-keyboard-response","273","454967","0.0-273.0","","","null","","","","","","","",""
"612.7999999970198","","image-keyboard-response","274","455581","0.0-274.0","","img/set1/S2.jpg","68","2","random","68","random,structured_load,structured_normal,structured_incentive","2,1,3,4,2,3","true","",""
"null","","html-keyboard-response","275","455940","0.0-275.0","","<img src=""img/set1/S2.jpg"" width=""540"" height = ""360"" style=""border:16px solid orange"">","null","","","","","","","",""
"null","","html-keyboard-response","276","456149","0.0-276.0","","","null","","","","","","","",""
"674.7000000029802","","image-keyboard-response","277","456826","0.0-277.0","","img/set1/S1.jpg","83","1","random","83","random,structured_load,structured_normal,structured_incentive","2,1,3,4,2,3","true","",""
"null","","html-keyboard-response","278","457191","0.0-278.0","","<img src=""img/set1/S1.jpg"" width=""540"" height = ""360"" style=""border:16px solid orange"">","null","","","","","","","",""
"null","","html-keyboard-response","279","457401","0.0-279.0","","","null","","","","","","","",""
"735.9000000059605","","image-keyboard-response","280","458139","0.0-280.0","","img/set1/S3.jpg","72","3","random","72","random,structured_load,structured_normal,structured_incentive","2,1,3,4,2,3","true","",""
"null","","html-keyboard-response","281","458506","0.0-281.0","","<img src=""img/set1/S3.jpg"" width=""540"" height = ""360"" style=""border:16px solid orange"">","null","","","","","","","",""
"null","","html-keyboard-response","282","458716","0.0-282.0","","","null","","","","","","","",""
"646.7000000029802","","image-keyboard-response","283","459365","0.0-283.0","","img/set1/S3.jpg","72","3","random","72","random,structured_load,structured_normal,structured_incentive","2,1,3,4,2,3","true","",""
"null","","html-keyboard-response","284","459722","0.0-284.0","","<img src=""img/set1/S3.jpg"" width=""540"" height = ""360"" style=""border:16px solid orange"">","null","","","","","","","",""
"null","","html-keyboard-response","285","459932","0.0-285.0","","","null","","","","","","","",""
"703.6999999880791","","image-keyboard-response","286","460637","0.0-286.0","","img/set1/S2.jpg","68","2","random","68","random,structured_load,structured_normal,structured_incentive","2,1,3,4,2,3","true","",""
"null","","html-keyboard-response","287","461004","0.0-287.0","","<img src=""img/set1/S2.jpg"" width=""540"" height = ""360"" style=""border:16px solid orange"">","null","","","","","","","",""
"null","","html-keyboard-response","288","461215","0.0-288.0","","","null","","","","","","","",""
"599.5","","image-keyboard-response","289","461817","0.0-289.0","","img/set1/S2.jpg","68","2","random","68","random,structured_load,structured_normal,structured_incentive","2,1,3,4,2,3","true","",""
"null","","html-keyboard-response","290","462173","0.0-290.0","","<img src=""img/set1/S2.jpg"" width=""540"" height = ""360"" style=""border:16px solid orange"">","null","","","","","","","",""
"null","","html-keyboard-response","291","462383","0.0-291.0","","","null","","","","","","","",""
"725.2999999970198","","image-keyboard-response","292","463110","0.0-292.0","","img/set1/S1.jpg","83","1","random","83","random,structured_load,structured_normal,structured_incentive","2,1,3,4,2,3","true","",""
"null","","html-keyboard-response","293","463472","0.0-293.0","","<img src=""img/set1/S1.jpg"" width=""540"" height = ""360"" style=""border:16px solid orange"">","null","","","","","","","",""
"null","","html-keyboard-response","294","463682","0.0-294.0","","","null","","","","","","","",""
"609.3000000119209","","image-keyboard-response","295","464294","0.0-295.0","","img/set1/S3.jpg","72","3","random","72","random,structured_load,structured_normal,structured_incentive","2,1,3,4,2,3","true","",""
"null","","html-keyboard-response","296","464655","0.0-296.0","","<img src=""img/set1/S3.jpg"" width=""540"" height = ""360"" style=""border:16px solid orange"">","null","","","","","","","",""
"null","","html-keyboard-response","297","464864","0.0-297.0","","","null","","","","","","","",""
"676.2000000029802","","image-keyboard-response","298","465542","0.0-298.0","","img/set1/S2.jpg","68","2","random","68","random,structured_load,structured_normal,structured_incentive","2,1,3,4,2,3","true","",""
"null","","html-keyboard-response","299","465905","0.0-299.0","","<img src=""img/set1/S2.jpg"" width=""540"" height = ""360"" style=""border:16px solid orange"">","null","","","","","","","",""
"null","","html-keyboard-response","300","466116","0.0-300.0","","","null","","","","","","","",""
"586.2000000029802","","image-keyboard-response","301","466704","0.0-301.0","","img/set1/S2.jpg","68","2","random","68","random,structured_load,structured_normal,structured_incentive","2,1,3,4,2,3","true","",""
"null","","html-keyboard-response","302","467070","0.0-302.0","","<img src=""img/set1/S2.jpg"" width=""540"" height = ""360"" style=""border:16px solid orange"">","null","","","","","","","",""
"null","","html-keyboard-response","303","467281","0.0-303.0","","","null","","","","","","","",""
"790.4000000059605","","image-keyboard-response","304","468073","0.0-304.0","","img/set1/S1.jpg","83","1","random","83","random,structured_load,structured_normal,structured_incentive","2,1,3,4,2,3","true","",""
"null","","html-keyboard-response","305","468440","0.0-305.0","","<img src=""img/set1/S1.jpg"" width=""540"" height = ""360"" style=""border:16px solid orange"">","null","","","","","","","",""
"null","","html-keyboard-response","306","468648","0.0-306.0","","","null","","","","","","","",""
"603.7000000029802","","image-keyboard-response","307","469253","0.0-307.0","","img/set1/S4.jpg","74","4","random","74","random,structured_load,structured_normal,structured_incentive","2,1,3,4,2,3","true","",""
"null","","html-keyboard-response","308","469621","0.0-308.0","","<img src=""img/set1/S4.jpg"" width=""540"" height = ""360"" style=""border:16px solid orange"">","null","","","","","","","",""
"null","","html-keyboard-response","309","469830","0.0-309.0","","","null","","","","","","","",""
"723.8999999910593","","image-keyboard-response","310","470555","0.0-310.0","","img/set1/S2.jpg","68","2","random","68","random,structured_load,structured_normal,structured_incentive","2,1,3,4,2,3","true","",""
"null","","html-keyboard-response","311","470908","0.0-311.0","","<img src=""img/set1/S2.jpg"" width=""540"" height = ""360"" style=""border:16px solid orange"">","null","","","","","","","",""
"null","","html-keyboard-response","312","471110","0.0-312.0","","","null","","","","","","","",""
"650.8000000119209","","image-keyboard-response","313","471762","0.0-313.0","","img/set1/S4.jpg","74","4","random","74","random,structured_load,structured_normal,structured_incentive","2,1,3,4,2,3","true","",""
"null","","html-keyboard-response","314","472124","0.0-314.0","","<img src=""img/set1/S4.jpg"" width=""540"" height = ""360"" style=""border:16px solid orange"">","null","","","","","","","",""
"null","","html-keyboard-response","315","472334","0.0-315.0","","","null","","","","","","","",""
"655.2999999970198","","image-keyboard-response","316","472990","0.0-316.0","","img/set1/S2.jpg","68","2","random","68","random,structured_load,structured_normal,structured_incentive","2,1,3,4,2,3","true","",""
"null","","html-keyboard-response","317","473357","0.0-317.0","","<img src=""img/set1/S2.jpg"" width=""540"" height = ""360"" style=""border:16px solid orange"">","null","","","","","","","",""
"null","","html-keyboard-response","318","473568","0.0-318.0","","","null","","","","","","","",""
"619.8000000119209","","image-keyboard-response","319","474189","0.0-319.0","","img/set1/S2.jpg","68","2","random","68","random,structured_load,structured_normal,structured_incentive","2,1,3,4,2,3","true","",""
"null","","html-keyboard-response","320","474541","0.0-320.0","","<img src=""img/set1/S2.jpg"" width=""540"" height = ""360"" style=""border:16px solid orange"">","null","","","","","","","",""
"null","","html-keyboard-response","321","474748","0.0-321.0","","","null","","","","","","","",""
"561.7000000029802","","image-keyboard-response","322","475312","0.0-322.0","","img/set1/S2.jpg","68","2","random","68","random,structured_load,structured_normal,structured_incentive","2,1,3,4,2,3","true","",""
"null","","html-keyboard-response","323","475673","0.0-323.0","","<img src=""img/set1/S2.jpg"" width=""540"" height = ""360"" style=""border:16px solid orange"">","null","","","","","","","",""
"null","","html-keyboard-response","324","475881","0.0-324.0","","","null","","","","","","","",""
"665.0999999940395","","image-keyboard-response","325","476548","0.0-325.0","","img/set1/S1.jpg","83","1","random","83","random,structured_load,structured_normal,structured_incentive","2,1,3,4,2,3","true","",""
"null","","html-keyboard-response","326","476906","0.0-326.0","","<img src=""img/set1/S1.jpg"" width=""540"" height = ""360"" style=""border:16px solid orange"">","null","","","","","","","",""
"null","","html-keyboard-response","327","477115","0.0-327.0","","","null","","","","","","","",""
"597.9000000059605","","image-keyboard-response","328","477715","0.0-328.0","","img/set1/S3.jpg","72","3","random","72","random,structured_load,structured_normal,structured_incentive","2,1,3,4,2,3","true","",""
"null","","html-keyboard-response","329","478072","0.0-329.0","","<img src=""img/set1/S3.jpg"" width=""540"" height = ""360"" style=""border:16px solid orange"">","null","","","","","","","",""
"null","","html-keyboard-response","330","478283","0.0-330.0","","","null","","","","","","","",""
"868","","image-keyboard-response","331","479150","0.0-331.0","","img/set1/S1.jpg","83","1","random","83","random,structured_load,structured_normal,structured_incentive","2,1,3,4,2,3","true","",""
"null","","html-keyboard-response","332","479511","0.0-332.0","","<img src=""img/set1/S1.jpg"" width=""540"" height = ""360"" style=""border:16px solid orange"">","null","","","","","","","",""
"null","","html-keyboard-response","333","479728","0.0-333.0","","","null","","","","","","","",""
"538.7000000029802","","image-keyboard-response","334","480268","0.0-334.0","","img/set1/S4.jpg","72","4","random","74","random,structured_load,structured_normal,structured_incentive","2,1,3,4,2,3","false","",""
"null","","html-keyboard-response","335","480635","0.0-335.0","","<img src=""img/set1/S4.jpg"" width=""540"" height = ""360"">","null","","","","","","","",""
"null","","html-keyboard-response","336","480844","0.0-336.0","","","null","","","","","","","",""
"825.6999999880791","","image-keyboard-response","337","481671","0.0-337.0","","img/set1/S3.jpg","72","3","random","72","random,structured_load,structured_normal,structured_incentive","2,1,3,4,2,3","true","",""
"null","","html-keyboard-response","338","482036","0.0-338.0","","<img src=""img/set1/S3.jpg"" width=""540"" height = ""360"" style=""border:16px solid orange"">","null","","","","","","","",""
"null","","html-keyboard-response","339","482245","0.0-339.0","","","null","","","","","","","",""
"527.9000000059605","","image-keyboard-response","340","482774","0.0-340.0","","img/set1/S4.jpg","74","4","random","74","random,structured_load,structured_normal,structured_incentive","2,1,3,4,2,3","true","",""
"null","","html-keyboard-response","341","483134","0.0-341.0","","<img src=""img/set1/S4.jpg"" width=""540"" height = ""360"" style=""border:16px solid orange"">","null","","","","","","","",""
"null","","html-keyboard-response","342","483346","0.0-342.0","","","null","","","","","","","",""
"648.0999999940395","","image-keyboard-response","343","483995","0.0-343.0","","img/set1/S2.jpg","68","2","random","68","random,structured_load,structured_normal,structured_incentive","2,1,3,4,2,3","true","",""
"null","","html-keyboard-response","344","484351","0.0-344.0","","<img src=""img/set1/S2.jpg"" width=""540"" height = ""360"" style=""border:16px solid orange"">","null","","","","","","","",""
"null","","html-keyboard-response","345","484559","0.0-345.0","","","null","","","","","","","",""
"628.5999999940395","","image-keyboard-response","346","485189","0.0-346.0","","img/set1/S4.jpg","74","4","random","74","random,structured_load,structured_normal,structured_incentive","2,1,3,4,2,3","true","",""
"null","","html-keyboard-response","347","485551","0.0-347.0","","<img src=""img/set1/S4.jpg"" width=""540"" height = ""360"" style=""border:16px solid orange"">","null","","","","","","","",""
"null","","html-keyboard-response","348","485761","0.0-348.0","","","null","","","","","","","",""
"821.0999999940395","","image-keyboard-response","349","486584","0.0-349.0","","img/set1/S4.jpg","74","4","random","74","random,structured_load,structured_normal,structured_incentive","2,1,3,4,2,3","true","",""
"null","","html-keyboard-response","350","486938","0.0-350.0","","<img src=""img/set1/S4.jpg"" width=""540"" height = ""360"" style=""border:16px solid orange"">","null","","","","","","","",""
"null","","html-keyboard-response","351","487146","0.0-351.0","","","null","","","","","","","",""
"600.2000000029802","","image-keyboard-response","352","487747","0.0-352.0","","img/set1/S1.jpg","68","1","random","83","random,structured_load,structured_normal,structured_incentive","2,1,3,4,2,3","false","",""
"null","","html-keyboard-response","353","488104","0.0-353.0","","<img src=""img/set1/S1.jpg"" width=""540"" height = ""360"">","null","","","","","","","",""
"null","","html-keyboard-response","354","488312","0.0-354.0","","","null","","","","","","","",""
"537.5","","image-keyboard-response","355","488851","0.0-355.0","","img/set1/S1.jpg","83","1","random","83","random,structured_load,structured_normal,structured_incentive","2,1,3,4,2,3","true","",""
"null","","html-keyboard-response","356","489209","0.0-356.0","","<img src=""img/set1/S1.jpg"" width=""540"" height = ""360"" style=""border:16px solid orange"">","null","","","","","","","",""
"null","","html-keyboard-response","357","489411","0.0-357.0","","","null","","","","","","","",""
"627","","image-keyboard-response","358","490039","0.0-358.0","","img/set1/S3.jpg","72","3","random","72","random,structured_load,structured_normal,structured_incentive","2,1,3,4,2,3","true","",""
"null","","html-keyboard-response","359","490401","0.0-359.0","","<img src=""img/set1/S3.jpg"" width=""540"" height = ""360"" style=""border:16px solid orange"">","null","","","","","","","",""
"null","","html-keyboard-response","360","490610","0.0-360.0","","","null","","","","","","","",""
"539.2000000029802","","image-keyboard-response","361","491150","0.0-361.0","","img/set1/S3.jpg","72","3","random","72","random,structured_load,structured_normal,structured_incentive","2,1,3,4,2,3","true","",""
"null","","html-keyboard-response","362","491510","0.0-362.0","","<img src=""img/set1/S3.jpg"" width=""540"" height = ""360"" style=""border:16px solid orange"">","null","","","","","","","",""
"null","","html-keyboard-response","363","491713","0.0-363.0","","","null","","","","","","","",""
"16686.60000000894","","html-keyboard-response","364","508401","0.0-364.0","","<p class=""center-content"">You have completed a block! </p><p class=""center-content"">Press any key on the keyboard to continue, </p><p class=""center-content"">or wait for the automatic progression to the next block after one minute.</p>","32","","","","","","","",""
"14394.29999999702","","instructions","365","522796","0.0-365.0","[{""page_index"":0,""viewing_time"":14393.90000000596}]","","","","","","","","","",""
"53719.70000000298","","instructions","366","576521","0.0-366.0","[{""page_index"":0,""viewing_time"":46221.29999999702},{""page_index"":1,""viewing_time"":7498.100000008941}]","","","","","","","","","",""
"2101.6000000089407","","image-keyboard-response","367","578624","0.0-367.0","","img/set2/S2.jpg","68","2","structured_load","68","random,structured_load,structured_normal,structured_incentive","2,1,3,4,2,3","true","",""
"null","","html-keyboard-response","368","578991","0.0-368.0","","<img src=""img/set2/S2.jpg"" width=""540"" height = ""360"" style=""border:16px solid orange"">","null","","","","","","","",""
"null","","html-keyboard-response","369","579194","0.0-369.0","","","null","","","","","","","",""
"1685.2999999970198","","image-keyboard-response","370","580880","0.0-370.0","","img/set2/S1.jpg","72","1","structured_load","83","random,structured_load,structured_normal,structured_incentive","2,1,3,4,2,3","false","",""
"null","","html-keyboard-response","371","581242","0.0-371.0","","<img src=""img/set2/S1.jpg"" width=""540"" height = ""360"">","null","","","","","","","",""
"null","","html-keyboard-response","372","581444","0.0-372.0","","","null","","","","","","","",""
"765.7999999970198","","image-keyboard-response","373","582211","0.0-373.0","","img/set2/S2.jpg","68","2","structured_load","68","random,structured_load,structured_normal,structured_incentive","2,1,3,4,2,3","true","",""
"null","","html-keyboard-response","374","582576","0.0-374.0","","<img src=""img/set2/S2.jpg"" width=""540"" height = ""360"" style=""border:16px solid orange"">","null","","","","","","","",""
"null","","html-keyboard-response","375","582792","0.0-375.0","","","null","","","","","","","",""
"null","","image-keyboard-response","376","585294","0.0-376.0","","img/set2/S1.jpg","null","1","structured_load","83","random,structured_load,structured_normal,structured_incentive","2,1,3,4,2,3","false","",""
"null","","html-keyboard-response","377","585657","0.0-377.0","","<img src=""img/set2/S1.jpg"" width=""540"" height = ""360"">","null","","","","","","","",""
"null","","html-keyboard-response","378","585862","0.0-378.0","","","null","","","","","","","",""
"1546.4000000059605","","image-keyboard-response","379","587410","0.0-379.0","","img/set2/S2.jpg","68","2","structured_load","68","random,structured_load,structured_normal,structured_incentive","2,1,3,4,2,3","true","",""
"null","","html-keyboard-response","380","587762","0.0-380.0","","<img src=""img/set2/S2.jpg"" width=""540"" height = ""360"" style=""border:16px solid orange"">","null","","","","","","","",""
"null","","html-keyboard-response","381","587975","0.0-381.0","","","null","","","","","","","",""
"null","","image-keyboard-response","382","590489","0.0-382.0","","img/set2/S1.jpg","null","1","structured_load","83","random,structured_load,structured_normal,structured_incentive","2,1,3,4,2,3","false","",""
"null","","html-keyboard-response","383","590842","0.0-383.0","","<img src=""img/set2/S1.jpg"" width=""540"" height = ""360"">","null","","","","","","","",""
"null","","html-keyboard-response","384","591043","0.0-384.0","","","null","","","","","","","",""
"758.9000000059605","","image-keyboard-response","385","591804","0.0-385.0","","img/set2/S2.jpg","68","2","structured_load","68","random,structured_load,structured_normal,structured_incentive","2,1,3,4,2,3","true","",""
"null","","html-keyboard-response","386","592169","0.0-386.0","","<img src=""img/set2/S2.jpg"" width=""540"" height = ""360"" style=""border:16px solid orange"">","null","","","","","","","",""
"null","","html-keyboard-response","387","592374","0.0-387.0","","","null","","","","","","","",""
"885.9000000059605","","image-keyboard-response","388","593262","0.0-388.0","","img/set2/S1.jpg","83","1","structured_load","83","random,structured_load,structured_normal,structured_incentive","2,1,3,4,2,3","true","",""
"null","","html-keyboard-response","389","593617","0.0-389.0","","<img src=""img/set2/S1.jpg"" width=""540"" height = ""360"" style=""border:16px solid orange"">","null","","","","","","","",""
"null","","html-keyboard-response","390","593819","0.0-390.0","","","null","","","","","","","",""
"675.1999999880791","","image-keyboard-response","391","594495","0.0-391.0","","img/set2/S2.jpg","68","2","structured_load","68","random,structured_load,structured_normal,structured_incentive","2,1,3,4,2,3","true","",""
"null","","html-keyboard-response","392","594857","0.0-392.0","","<img src=""img/set2/S2.jpg"" width=""540"" height = ""360"" style=""border:16px solid orange"">","null","","","","","","","",""
"null","","html-keyboard-response","393","595062","0.0-393.0","","","null","","","","","","","",""
"1891.2000000029802","","image-keyboard-response","394","596955","0.0-394.0","","img/set2/S1.jpg","83","1","structured_load","83","random,structured_load,structured_normal,structured_incentive","2,1,3,4,2,3","true","",""
"null","","html-keyboard-response","395","597316","0.0-395.0","","<img src=""img/set2/S1.jpg"" width=""540"" height = ""360"" style=""border:16px solid orange"">","null","","","","","","","",""
"null","","html-keyboard-response","396","597524","0.0-396.0","","","null","","","","","","","",""
"1307","","image-keyboard-response","397","598832","0.0-397.0","","img/set2/S2.jpg","68","2","structured_load","68","random,structured_load,structured_normal,structured_incentive","2,1,3,4,2,3","true","",""
"null","","html-keyboard-response","398","599197","0.0-398.0","","<img src=""img/set2/S2.jpg"" width=""540"" height = ""360"" style=""border:16px solid orange"">","null","","","","","","","",""
"null","","html-keyboard-response","399","599410","0.0-399.0","","","null","","","","","","","",""
"1773.2000000029802","","image-keyboard-response","400","601185","0.0-400.0","","img/set2/S1.jpg","83","1","structured_load","83","random,structured_load,structured_normal,structured_incentive","2,1,3,4,2,3","true","",""
"null","","html-keyboard-response","401","601553","0.0-401.0","","<img src=""img/set2/S1.jpg"" width=""540"" height = ""360"" style=""border:16px solid orange"">","null","","","","","","","",""
"null","","html-keyboard-response","402","601762","0.0-402.0","","","null","","","","","","","",""
"null","","image-keyboard-response","403","604275","0.0-403.0","","img/set2/S3.jpg","null","3","structured_load","72","random,structured_load,structured_normal,structured_incentive","2,1,3,4,2,3","false","",""
"null","","html-keyboard-response","404","604634","0.0-404.0","","<img src=""img/set2/S3.jpg"" width=""540"" height = ""360"">","null","","","","","","","",""
"null","","html-keyboard-response","405","604845","0.0-405.0","","","null","","","","","","","",""
"2475.2999999970198","","image-keyboard-response","406","607322","0.0-406.0","","img/set2/S4.jpg","72","4","structured_load","74","random,structured_load,structured_normal,structured_incentive","2,1,3,4,2,3","false","",""
"null","","html-keyboard-response","407","607682","0.0-407.0","","<img src=""img/set2/S4.jpg"" width=""540"" height = ""360"">","null","","","","","","","",""
"null","","html-keyboard-response","408","607891","0.0-408.0","","","null","","","","","","","",""
"1504.5","","image-keyboard-response","409","609398","0.0-409.0","","img/set2/S3.jpg","74","3","structured_load","72","random,structured_load,structured_normal,structured_incentive","2,1,3,4,2,3","false","",""
"null","","html-keyboard-response","410","609754","0.0-410.0","","<img src=""img/set2/S3.jpg"" width=""540"" height = ""360"">","null","","","","","","","",""
"null","","html-keyboard-response","411","609959","0.0-411.0","","","null","","","","","","","",""
"932.2999999970198","","image-keyboard-response","412","610893","0.0-412.0","","img/set2/S3.jpg","72","3","structured_load","72","random,structured_load,structured_normal,structured_incentive","2,1,3,4,2,3","true","",""
"null","","html-keyboard-response","413","611256","0.0-413.0","","<img src=""img/set2/S3.jpg"" width=""540"" height = ""360"" style=""border:16px solid orange"">","null","","","","","","","",""
"null","","html-keyboard-response","414","611459","0.0-414.0","","","null","","","","","","","",""
"885.7999999970198","","image-keyboard-response","415","612346","0.0-415.0","","img/set2/S2.jpg","68","2","structured_load","68","random,structured_load,structured_normal,structured_incentive","2,1,3,4,2,3","true","",""
"null","","html-keyboard-response","416","612713","0.0-416.0","","<img src=""img/set2/S2.jpg"" width=""540"" height = ""360"" style=""border:16px solid orange"">","null","","","","","","","",""
"null","","html-keyboard-response","417","612917","0.0-417.0","","","null","","","","","","","",""
"1820.6000000089407","","image-keyboard-response","418","614740","0.0-418.0","","img/set2/S1.jpg","83","1","structured_load","83","random,structured_load,structured_normal,structured_incentive","2,1,3,4,2,3","true","",""
"null","","html-keyboard-response","419","615098","0.0-419.0","","<img src=""img/set2/S1.jpg"" width=""540"" height = ""360"" style=""border:16px solid orange"">","null","","","","","","","",""
"null","","html-keyboard-response","420","615308","0.0-420.0","","","null","","","","","","","",""
"843.7999999970198","","image-keyboard-response","421","616154","0.0-421.0","","img/set2/S2.jpg","68","2","structured_load","68","random,structured_load,structured_normal,structured_incentive","2,1,3,4,2,3","true","",""
"null","","html-keyboard-response","422","616515","0.0-422.0","","<img src=""img/set2/S2.jpg"" width=""540"" height = ""360"" style=""border:16px solid orange"">","null","","","","","","","",""
"null","","html-keyboard-response","423","616726","0.0-423.0","","","null","","","","","","","",""
"721.5","","image-keyboard-response","424","617449","0.0-424.0","","img/set2/S1.jpg","83","1","structured_load","83","random,structured_load,structured_normal,structured_incentive","2,1,3,4,2,3","true","",""
"null","","html-keyboard-response","425","617815","0.0-425.0","","<img src=""img/set2/S1.jpg"" width=""540"" height = ""360"" style=""border:16px solid orange"">","null","","","","","","","",""
"null","","html-keyboard-response","426","618026","0.0-426.0","","","null","","","","","","","",""
"647.5999999940395","","image-keyboard-response","427","618675","0.0-427.0","","img/set2/S2.jpg","68","2","structured_load","68","random,structured_load,structured_normal,structured_incentive","2,1,3,4,2,3","true","",""
"null","","html-keyboard-response","428","619032","0.0-428.0","","<img src=""img/set2/S2.jpg"" width=""540"" height = ""360"" style=""border:16px solid orange"">","null","","","","","","","",""
"null","","html-keyboard-response","429","619247","0.0-429.0","","","null","","","","","","","",""
"628.7999999970198","","image-keyboard-response","430","619878","0.0-430.0","","img/set2/S1.jpg","68","1","structured_load","83","random,structured_load,structured_normal,structured_incentive","2,1,3,4,2,3","false","",""
"null","","html-keyboard-response","431","620232","0.0-431.0","","<img src=""img/set2/S1.jpg"" width=""540"" height = ""360"">","null","","","","","","","",""
"null","","html-keyboard-response","432","620441","0.0-432.0","","","null","","","","","","","",""
"1287.2000000029802","","image-keyboard-response","433","621730","0.0-433.0","","img/set2/S4.jpg","74","4","structured_load","74","random,structured_load,structured_normal,structured_incentive","2,1,3,4,2,3","true","",""
"null","","html-keyboard-response","434","622098","0.0-434.0","","<img src=""img/set2/S4.jpg"" width=""540"" height = ""360"" style=""border:16px solid orange"">","null","","","","","","","",""
"null","","html-keyboard-response","435","622307","0.0-435.0","","","null","","","","","","","",""
"742.0999999940395","","image-keyboard-response","436","623051","0.0-436.0","","img/set2/S2.jpg","68","2","structured_load","68","random,structured_load,structured_normal,structured_incentive","2,1,3,4,2,3","true","",""
"null","","html-keyboard-response","437","623416","0.0-437.0","","<img src=""img/set2/S2.jpg"" width=""540"" height = ""360"" style=""border:16px solid orange"">","null","","","","","","","",""
"null","","html-keyboard-response","438","623625","0.0-438.0","","","null","","","","","","","",""
"580.3999999910593","","image-keyboard-response","439","624207","0.0-439.0","","img/set2/S1.jpg","83","1","structured_load","83","random,structured_load,structured_normal,structured_incentive","2,1,3,4,2,3","true","",""
"null","","html-keyboard-response","440","624567","0.0-440.0","","<img src=""img/set2/S1.jpg"" width=""540"" height = ""360"" style=""border:16px solid orange"">","null","","","","","","","",""
"null","","html-keyboard-response","441","624776","0.0-441.0","","","null","","","","","","","",""
"543.2000000029802","","image-keyboard-response","442","625321","0.0-442.0","","img/set2/S4.jpg","74","4","structured_load","74","random,structured_load,structured_normal,structured_incentive","2,1,3,4,2,3","true","",""
"null","","html-keyboard-response","443","625681","0.0-443.0","","<img src=""img/set2/S4.jpg"" width=""540"" height = ""360"" style=""border:16px solid orange"">","null","","","","","","","",""
"null","","html-keyboard-response","444","625891","0.0-444.0","","","null","","","","","","","",""
"660.2999999970198","","image-keyboard-response","445","626553","0.0-445.0","","img/set2/S4.jpg","74","4","structured_load","74","random,structured_load,structured_normal,structured_incentive","2,1,3,4,2,3","true","",""
"null","","html-keyboard-response","446","626915","0.0-446.0","","<img src=""img/set2/S4.jpg"" width=""540"" height = ""360"" style=""border:16px solid orange"">","null","","","","","","","",""
"null","","html-keyboard-response","447","627125","0.0-447.0","","","null","","","","","","","",""
"739.5999999940395","","image-keyboard-response","448","627866","0.0-448.0","","img/set2/S2.jpg","68","2","structured_load","68","random,structured_load,structured_normal,structured_incentive","2,1,3,4,2,3","true","",""
"null","","html-keyboard-response","449","628232","0.0-449.0","","<img src=""img/set2/S2.jpg"" width=""540"" height = ""360"" style=""border:16px solid orange"">","null","","","","","","","",""
"null","","html-keyboard-response","450","628442","0.0-450.0","","","null","","","","","","","",""
"788.5","","image-keyboard-response","451","629232","0.0-451.0","","img/set2/S1.jpg","83","1","structured_load","83","random,structured_load,structured_normal,structured_incentive","2,1,3,4,2,3","true","",""
"null","","html-keyboard-response","452","629588","0.0-452.0","","<img src=""img/set2/S1.jpg"" width=""540"" height = ""360"" style=""border:16px solid orange"">","null","","","","","","","",""
"null","","html-keyboard-response","453","629791","0.0-453.0","","","null","","","","","","","",""
"871.2000000029802","","image-keyboard-response","454","630664","0.0-454.0","","img/set2/S4.jpg","72","4","structured_load","74","random,structured_load,structured_normal,structured_incentive","2,1,3,4,2,3","false","",""
"null","","html-keyboard-response","455","631020","0.0-455.0","","<img src=""img/set2/S4.jpg"" width=""540"" height = ""360"">","null","","","","","","","",""
"null","","html-keyboard-response","456","631226","0.0-456.0","","","null","","","","","","","",""
"1114.5","","image-keyboard-response","457","632342","0.0-457.0","","img/set2/S2.jpg","68","2","structured_load","68","random,structured_load,structured_normal,structured_incentive","2,1,3,4,2,3","true","",""
"null","","html-keyboard-response","458","632709","0.0-458.0","","<img src=""img/set2/S2.jpg"" width=""540"" height = ""360"" style=""border:16px solid orange"">","null","","","","","","","",""
"null","","html-keyboard-response","459","632912","0.0-459.0","","","null","","","","","","","",""
"586.9000000059605","","image-keyboard-response","460","633501","0.0-460.0","","img/set2/S1.jpg","83","1","structured_load","83","random,structured_load,structured_normal,structured_incentive","2,1,3,4,2,3","true","",""
"null","","html-keyboard-response","461","633855","0.0-461.0","","<img src=""img/set2/S1.jpg"" width=""540"" height = ""360"" style=""border:16px solid orange"">","null","","","","","","","",""
"null","","html-keyboard-response","462","634061","0.0-462.0","","","null","","","","","","","",""
"796.6000000089407","","image-keyboard-response","463","634859","0.0-463.0","","img/set2/S4.jpg","74","4","structured_load","74","random,structured_load,structured_normal,structured_incentive","2,1,3,4,2,3","true","",""
"null","","html-keyboard-response","464","635226","0.0-464.0","","<img src=""img/set2/S4.jpg"" width=""540"" height = ""360"" style=""border:16px solid orange"">","null","","","","","","","",""
"null","","html-keyboard-response","465","635429","0.0-465.0","","","null","","","","","","","",""
"642.2000000029802","","image-keyboard-response","466","636073","0.0-466.0","","img/set2/S4.jpg","74","4","structured_load","74","random,structured_load,structured_normal,structured_incentive","2,1,3,4,2,3","true","",""
"null","","html-keyboard-response","467","636436","0.0-467.0","","<img src=""img/set2/S4.jpg"" width=""540"" height = ""360"" style=""border:16px solid orange"">","null","","","","","","","",""
"null","","html-keyboard-response","468","636640","0.0-468.0","","","null","","","","","","","",""
"552.2999999970198","","image-keyboard-response","469","637194","0.0-469.0","","img/set2/S4.jpg","74","4","structured_load","74","random,structured_load,structured_normal,structured_incentive","2,1,3,4,2,3","true","",""
"null","","html-keyboard-response","470","637547","0.0-470.0","","<img src=""img/set2/S4.jpg"" width=""540"" height = ""360"" style=""border:16px solid orange"">","null","","","","","","","",""
"null","","html-keyboard-response","471","637758","0.0-471.0","","","null","","","","","","","",""
"530.7000000029802","","image-keyboard-response","472","638290","0.0-472.0","","img/set2/S4.jpg","74","4","structured_load","74","random,structured_load,structured_normal,structured_incentive","2,1,3,4,2,3","true","",""
"null","","html-keyboard-response","473","638648","0.0-473.0","","<img src=""img/set2/S4.jpg"" width=""540"" height = ""360"" style=""border:16px solid orange"">","null","","","","","","","",""
"null","","html-keyboard-response","474","638857","0.0-474.0","","","null","","","","","","","",""
"719.2999999970198","","image-keyboard-response","475","639578","0.0-475.0","","img/set2/S2.jpg","68","2","structured_load","68","random,structured_load,structured_normal,structured_incentive","2,1,3,4,2,3","true","",""
"null","","html-keyboard-response","476","639932","0.0-476.0","","<img src=""img/set2/S2.jpg"" width=""540"" height = ""360"" style=""border:16px solid orange"">","null","","","","","","","",""
"null","","html-keyboard-response","477","640142","0.0-477.0","","","null","","","","","","","",""
"910.4000000059605","","image-keyboard-response","478","641054","0.0-478.0","","img/set2/S1.jpg","83","1","structured_load","83","random,structured_load,structured_normal,structured_incentive","2,1,3,4,2,3","true","",""
"null","","html-keyboard-response","479","641414","0.0-479.0","","<img src=""img/set2/S1.jpg"" width=""540"" height = ""360"" style=""border:16px solid orange"">","null","","","","","","","",""
"null","","html-keyboard-response","480","641623","0.0-480.0","","","null","","","","","","","",""
"819.7999999970198","","image-keyboard-response","481","642445","0.0-481.0","","img/set2/S3.jpg","72","3","structured_load","72","random,structured_load,structured_normal,structured_incentive","2,1,3,4,2,3","true","",""
"null","","html-keyboard-response","482","642812","0.0-482.0","","<img src=""img/set2/S3.jpg"" width=""540"" height = ""360"" style=""border:16px solid orange"">","null","","","","","","","",""
"null","","html-keyboard-response","483","643023","0.0-483.0","","","null","","","","","","","",""
"787.2999999970198","","image-keyboard-response","484","643812","0.0-484.0","","img/set2/S2.jpg","68","2","structured_load","68","random,structured_load,structured_normal,structured_incentive","2,1,3,4,2,3","true","",""
"null","","html-keyboard-response","485","644190","0.0-485.0","","<img src=""img/set2/S2.jpg"" width=""540"" height = ""360"" style=""border:16px solid orange"">","null","","","","","","","",""
"null","","html-keyboard-response","486","644406","0.0-486.0","","","null","","","","","","","",""
"656.9000000059605","","image-keyboard-response","487","645064","0.0-487.0","","img/set2/S1.jpg","83","1","structured_load","83","random,structured_load,structured_normal,structured_incentive","2,1,3,4,2,3","true","",""
"null","","html-keyboard-response","488","645430","0.0-488.0","","<img src=""img/set2/S1.jpg"" width=""540"" height = ""360"" style=""border:16px solid orange"">","null","","","","","","","",""
"null","","html-keyboard-response","489","645639","0.0-489.0","","","null","","","","","","","",""
"754.2999999970198","","image-keyboard-response","490","646395","0.0-490.0","","img/set2/S3.jpg","74","3","structured_load","72","random,structured_load,structured_normal,structured_incentive","2,1,3,4,2,3","false","",""
"null","","html-keyboard-response","491","646762","0.0-491.0","","<img src=""img/set2/S3.jpg"" width=""540"" height = ""360"">","null","","","","","","","",""
"null","","html-keyboard-response","492","646972","0.0-492.0","","","null","","","","","","","",""
"1911.5999999940395","","image-keyboard-response","493","648886","0.0-493.0","","img/set2/S2.jpg","68","2","structured_load","68","random,structured_load,structured_normal,structured_incentive","2,1,3,4,2,3","true","",""
"null","","html-keyboard-response","494","649243","0.0-494.0","","<img src=""img/set2/S2.jpg"" width=""540"" height = ""360"" style=""border:16px solid orange"">","null","","","","","","","",""
"null","","html-keyboard-response","495","649455","0.0-495.0","","","null","","","","","","","",""
"788.1000000089407","","image-keyboard-response","496","650244","0.0-496.0","","img/set2/S1.jpg","83","1","structured_load","83","random,structured_load,structured_normal,structured_incentive","2,1,3,4,2,3","true","",""
"null","","html-keyboard-response","497","650599","0.0-497.0","","<img src=""img/set2/S1.jpg"" width=""540"" height = ""360"" style=""border:16px solid orange"">","null","","","","","","","",""
"null","","html-keyboard-response","498","650811","0.0-498.0","","","null","","","","","","","",""
"826.4000000059605","","image-keyboard-response","499","651639","0.0-499.0","","img/set2/S2.jpg","68","2","structured_load","68","random,structured_load,structured_normal,structured_incentive","2,1,3,4,2,3","true","",""
"null","","html-keyboard-response","500","651997","0.0-500.0","","<img src=""img/set2/S2.jpg"" width=""540"" height = ""360"" style=""border:16px solid orange"">","null","","","","","","","",""
"null","","html-keyboard-response","501","652207","0.0-501.0","","","null","","","","","","","",""
"545.6000000089407","","image-keyboard-response","502","652755","0.0-502.0","","img/set2/S1.jpg","83","1","structured_load","83","random,structured_load,structured_normal,structured_incentive","2,1,3,4,2,3","true","",""
"null","","html-keyboard-response","503","653116","0.0-503.0","","<img src=""img/set2/S1.jpg"" width=""540"" height = ""360"" style=""border:16px solid orange"">","null","","","","","","","",""
"null","","html-keyboard-response","504","653325","0.0-504.0","","","null","","","","","","","",""
"957.3999999910593","","image-keyboard-response","505","654284","0.0-505.0","","img/set2/S4.jpg","74","4","structured_load","74","random,structured_load,structured_normal,structured_incentive","2,1,3,4,2,3","true","",""
"null","","html-keyboard-response","506","654648","0.0-506.0","","<img src=""img/set2/S4.jpg"" width=""540"" height = ""360"" style=""border:16px solid orange"">","null","","","","","","","",""
"null","","html-keyboard-response","507","654858","0.0-507.0","","","null","","","","","","","",""
"474.70000000298023","","image-keyboard-response","508","655335","0.0-508.0","","img/set2/S4.jpg","74","4","structured_load","74","random,structured_load,structured_normal,structured_incentive","2,1,3,4,2,3","true","",""
"null","","html-keyboard-response","509","655696","0.0-509.0","","<img src=""img/set2/S4.jpg"" width=""540"" height = ""360"" style=""border:16px solid orange"">","null","","","","","","","",""
"null","","html-keyboard-response","510","655907","0.0-510.0","","","null","","","","","","","",""
"681.3999999910593","","image-keyboard-response","511","656590","0.0-511.0","","img/set2/S3.jpg","72","3","structured_load","72","random,structured_load,structured_normal,structured_incentive","2,1,3,4,2,3","true","",""
"null","","html-keyboard-response","512","656946","0.0-512.0","","<img src=""img/set2/S3.jpg"" width=""540"" height = ""360"" style=""border:16px solid orange"">","null","","","","","","","",""
"null","","html-keyboard-response","513","657155","0.0-513.0","","","null","","","","","","","",""
"543.7000000029802","","image-keyboard-response","514","657700","0.0-514.0","","img/set2/S3.jpg","72","3","structured_load","72","random,structured_load,structured_normal,structured_incentive","2,1,3,4,2,3","true","",""
"null","","html-keyboard-response","515","658062","0.0-515.0","","<img src=""img/set2/S3.jpg"" width=""540"" height = ""360"" style=""border:16px solid orange"">","null","","","","","","","",""
"null","","html-keyboard-response","516","658274","0.0-516.0","","","null","","","","","","","",""
"550.2000000029802","","image-keyboard-response","517","658826","0.0-517.0","","img/set2/S3.jpg","72","3","structured_load","72","random,structured_load,structured_normal,structured_incentive","2,1,3,4,2,3","true","",""
"null","","html-keyboard-response","518","659181","0.0-518.0","","<img src=""img/set2/S3.jpg"" width=""540"" height = ""360"" style=""border:16px solid orange"">","null","","","","","","","",""
"null","","html-keyboard-response","519","659390","0.0-519.0","","","null","","","","","","","",""
"540.6999999880791","","image-keyboard-response","520","659933","0.0-520.0","","img/set2/S3.jpg","72","3","structured_load","72","random,structured_load,structured_normal,structured_incentive","2,1,3,4,2,3","true","",""
"null","","html-keyboard-response","521","660295","0.0-521.0","","<img src=""img/set2/S3.jpg"" width=""540"" height = ""360"" style=""border:16px solid orange"">","null","","","","","","","",""
"null","","html-keyboard-response","522","660505","0.0-522.0","","","null","","","","","","","",""
"844.2999999970198","","image-keyboard-response","523","661351","0.0-523.0","","img/set2/S4.jpg","74","4","structured_load","74","random,structured_load,structured_normal,structured_incentive","2,1,3,4,2,3","true","",""
"null","","html-keyboard-response","524","661712","0.0-524.0","","<img src=""img/set2/S4.jpg"" width=""540"" height = ""360"" style=""border:16px solid orange"">","null","","","","","","","",""
"null","","html-keyboard-response","525","661921","0.0-525.0","","","null","","","","","","","",""
"608.8999999910593","","image-keyboard-response","526","662532","0.0-526.0","","img/set2/S3.jpg","72","3","structured_load","72","random,structured_load,structured_normal,structured_incentive","2,1,3,4,2,3","true","",""
"null","","html-keyboard-response","527","662897","0.0-527.0","","<img src=""img/set2/S3.jpg"" width=""540"" height = ""360"" style=""border:16px solid orange"">","null","","","","","","","",""
"null","","html-keyboard-response","528","663106","0.0-528.0","","","null","","","","","","","",""
"701.4000000059605","","image-keyboard-response","529","663810","0.0-529.0","","img/set2/S2.jpg","68","2","structured_load","68","random,structured_load,structured_normal,structured_incentive","2,1,3,4,2,3","true","",""
"null","","html-keyboard-response","530","664162","0.0-530.0","","<img src=""img/set2/S2.jpg"" width=""540"" height = ""360"" style=""border:16px solid orange"">","null","","","","","","","",""
"null","","html-keyboard-response","531","664373","0.0-531.0","","","null","","","","","","","",""
"515.8999999910593","","image-keyboard-response","532","664890","0.0-532.0","","img/set2/S1.jpg","83","1","structured_load","83","random,structured_load,structured_normal,structured_incentive","2,1,3,4,2,3","true","",""
"null","","html-keyboard-response","533","665246","0.0-533.0","","<img src=""img/set2/S1.jpg"" width=""540"" height = ""360"" style=""border:16px solid orange"">","null","","","","","","","",""
"null","","html-keyboard-response","534","665456","0.0-534.0","","","null","","","","","","","",""
"759.7000000029802","","image-keyboard-response","535","666218","0.0-535.0","","img/set2/S3.jpg","72","3","structured_load","72","random,structured_load,structured_normal,structured_incentive","2,1,3,4,2,3","true","",""
"null","","html-keyboard-response","536","666578","0.0-536.0","","<img src=""img/set2/S3.jpg"" width=""540"" height = ""360"" style=""border:16px solid orange"">","null","","","","","","","",""
"null","","html-keyboard-response","537","666788","0.0-537.0","","","null","","","","","","","",""
"505.1000000089407","","image-keyboard-response","538","667295","0.0-538.0","","img/set2/S4.jpg","74","4","structured_load","74","random,structured_load,structured_normal,structured_incentive","2,1,3,4,2,3","true","",""
"null","","html-keyboard-response","539","667661","0.0-539.0","","<img src=""img/set2/S4.jpg"" width=""540"" height = ""360"" style=""border:16px solid orange"">","null","","","","","","","",""
"null","","html-keyboard-response","540","667871","0.0-540.0","","","null","","","","","","","",""
"534.7000000029802","","image-keyboard-response","541","668408","0.0-541.0","","img/set2/S4.jpg","74","4","structured_load","74","random,structured_load,structured_normal,structured_incentive","2,1,3,4,2,3","true","",""
"null","","html-keyboard-response","542","668766","0.0-542.0","","<img src=""img/set2/S4.jpg"" width=""540"" height = ""360"" style=""border:16px solid orange"">","null","","","","","","","",""
"null","","html-keyboard-response","543","668972","0.0-543.0","","","null","","","","","","","",""
"751.7000000029802","","image-keyboard-response","544","669726","0.0-544.0","","img/set2/S3.jpg","72","3","structured_load","72","random,structured_load,structured_normal,structured_incentive","2,1,3,4,2,3","true","",""
"null","","html-keyboard-response","545","670082","0.0-545.0","","<img src=""img/set2/S3.jpg"" width=""540"" height = ""360"" style=""border:16px solid orange"">","null","","","","","","","",""
"null","","html-keyboard-response","546","670297","0.0-546.0","","","null","","","","","","","",""
"1150.8999999910593","","image-keyboard-response","547","671450","0.0-547.0","","img/set2/S4.jpg","68","4","structured_load","74","random,structured_load,structured_normal,structured_incentive","2,1,3,4,2,3","false","",""
"null","","html-keyboard-response","548","671812","0.0-548.0","","<img src=""img/set2/S4.jpg"" width=""540"" height = ""360"">","null","","","","","","","",""
"null","","html-keyboard-response","549","672021","0.0-549.0","","","null","","","","","","","",""
"1028.0999999940395","","image-keyboard-response","550","673051","0.0-550.0","","img/set2/S4.jpg","74","4","structured_load","74","random,structured_load,structured_normal,structured_incentive","2,1,3,4,2,3","true","",""
"null","","html-keyboard-response","551","673411","0.0-551.0","","<img src=""img/set2/S4.jpg"" width=""540"" height = ""360"" style=""border:16px solid orange"">","null","","","","","","","",""
"null","","html-keyboard-response","552","673621","0.0-552.0","","","null","","","","","","","",""
"507.3999999910593","","image-keyboard-response","553","674130","0.0-553.0","","img/set2/S4.jpg","74","4","structured_load","74","random,structured_load,structured_normal,structured_incentive","2,1,3,4,2,3","true","",""
"null","","html-keyboard-response","554","674495","0.0-554.0","","<img src=""img/set2/S4.jpg"" width=""540"" height = ""360"" style=""border:16px solid orange"">","null","","","","","","","",""
"null","","html-keyboard-response","555","674706","0.0-555.0","","","null","","","","","","","",""
"735.7999999970198","","image-keyboard-response","556","675444","0.0-556.0","","img/set2/S2.jpg","68","2","structured_load","68","random,structured_load,structured_normal,structured_incentive","2,1,3,4,2,3","true","",""
"null","","html-keyboard-response","557","675811","0.0-557.0","","<img src=""img/set2/S2.jpg"" width=""540"" height = ""360"" style=""border:16px solid orange"">","null","","","","","","","",""
"null","","html-keyboard-response","558","676021","0.0-558.0","","","null","","","","","","","",""
"711.7999999970198","","image-keyboard-response","559","676734","0.0-559.0","","img/set2/S1.jpg","83","1","structured_load","83","random,structured_load,structured_normal,structured_incentive","2,1,3,4,2,3","true","",""
"null","","html-keyboard-response","560","677101","0.0-560.0","","<img src=""img/set2/S1.jpg"" width=""540"" height = ""360"" style=""border:16px solid orange"">","null","","","","","","","",""
"null","","html-keyboard-response","561","677305","0.0-561.0","","","null","","","","","","","",""
"648.8999999910593","","image-keyboard-response","562","677955","0.0-562.0","","img/set2/S3.jpg","72","3","structured_load","72","random,structured_load,structured_normal,structured_incentive","2,1,3,4,2,3","true","",""
"null","","html-keyboard-response","563","678315","0.0-563.0","","<img src=""img/set2/S3.jpg"" width=""540"" height = ""360"" style=""border:16px solid orange"">","null","","","","","","","",""
"null","","html-keyboard-response","564","678521","0.0-564.0","","","null","","","","","","","",""
"509.20000000298023","","image-keyboard-response","565","679034","0.0-565.0","","img/set2/S4.jpg","74","4","structured_load","74","random,structured_load,structured_normal,structured_incentive","2,1,3,4,2,3","true","",""
"null","","html-keyboard-response","566","679398","0.0-566.0","","<img src=""img/set2/S4.jpg"" width=""540"" height = ""360"" style=""border:16px solid orange"">","null","","","","","","","",""
"null","","html-keyboard-response","567","679606","0.0-567.0","","","null","","","","","","","",""
"655.6999999880791","","image-keyboard-response","568","680263","0.0-568.0","","img/set2/S4.jpg","74","4","structured_load","74","random,structured_load,structured_normal,structured_incentive","2,1,3,4,2,3","true","",""
"null","","html-keyboard-response","569","680615","0.0-569.0","","<img src=""img/set2/S4.jpg"" width=""540"" height = ""360"" style=""border:16px solid orange"">","null","","","","","","","",""
"null","","html-keyboard-response","570","680822","0.0-570.0","","","null","","","","","","","",""
"490.29999999701977","","image-keyboard-response","571","681314","0.0-571.0","","img/set2/S4.jpg","74","4","structured_load","74","random,structured_load,structured_normal,structured_incentive","2,1,3,4,2,3","true","",""
"null","","html-keyboard-response","572","681679","0.0-572.0","","<img src=""img/set2/S4.jpg"" width=""540"" height = ""360"" style=""border:16px solid orange"">","null","","","","","","","",""
"null","","html-keyboard-response","573","681887","0.0-573.0","","","null","","","","","","","",""
"480.80000001192093","","image-keyboard-response","574","682369","0.0-574.0","","img/set2/S4.jpg","74","4","structured_load","74","random,structured_load,structured_normal,structured_incentive","2,1,3,4,2,3","true","",""
"null","","html-keyboard-response","575","682727","0.0-575.0","","<img src=""img/set2/S4.jpg"" width=""540"" height = ""360"" style=""border:16px solid orange"">","null","","","","","","","",""
"null","","html-keyboard-response","576","682937","0.0-576.0","","","null","","","","","","","",""
"788.4000000059605","","image-keyboard-response","577","683727","0.0-577.0","","img/set2/S3.jpg","72","3","structured_load","72","random,structured_load,structured_normal,structured_incentive","2,1,3,4,2,3","true","",""
"null","","html-keyboard-response","578","684079","0.0-578.0","","<img src=""img/set2/S3.jpg"" width=""540"" height = ""360"" style=""border:16px solid orange"">","null","","","","","","","",""
"null","","html-keyboard-response","579","684288","0.0-579.0","","","null","","","","","","","",""
"658.2000000029802","","image-keyboard-response","580","684948","0.0-580.0","","img/set2/S4.jpg","68","4","structured_load","74","random,structured_load,structured_normal,structured_incentive","2,1,3,4,2,3","false","",""
"null","","html-keyboard-response","581","685311","0.0-581.0","","<img src=""img/set2/S4.jpg"" width=""540"" height = ""360"">","null","","","","","","","",""
"null","","html-keyboard-response","582","685521","0.0-582.0","","","null","","","","","","","",""
"741.4000000059605","","image-keyboard-response","583","686264","0.0-583.0","","img/set2/S4.jpg","74","4","structured_load","74","random,structured_load,structured_normal,structured_incentive","2,1,3,4,2,3","true","",""
"null","","html-keyboard-response","584","686629","0.0-584.0","","<img src=""img/set2/S4.jpg"" width=""540"" height = ""360"" style=""border:16px solid orange"">","null","","","","","","","",""
"null","","html-keyboard-response","585","686838","0.0-585.0","","","null","","","","","","","",""
"889.2999999970198","","image-keyboard-response","586","687729","0.0-586.0","","img/set2/S3.jpg","72","3","structured_load","72","random,structured_load,structured_normal,structured_incentive","2,1,3,4,2,3","true","",""
"null","","html-keyboard-response","587","688089","0.0-587.0","","<img src=""img/set2/S3.jpg"" width=""540"" height = ""360"" style=""border:16px solid orange"">","null","","","","","","","",""
"null","","html-keyboard-response","588","688303","0.0-588.0","","","null","","","","","","","",""
"598.7999999970198","","image-keyboard-response","589","688904","0.0-589.0","","img/set2/S4.jpg","74","4","structured_load","74","random,structured_load,structured_normal,structured_incentive","2,1,3,4,2,3","true","",""
"null","","html-keyboard-response","590","689271","0.0-590.0","","<img src=""img/set2/S4.jpg"" width=""540"" height = ""360"" style=""border:16px solid orange"">","null","","","","","","","",""
"null","","html-keyboard-response","591","689476","0.0-591.0","","","null","","","","","","","",""
"735.7999999970198","","image-keyboard-response","592","690213","0.0-592.0","","img/set2/S4.jpg","74","4","structured_load","74","random,structured_load,structured_normal,structured_incentive","2,1,3,4,2,3","true","",""
"null","","html-keyboard-response","593","690578","0.0-593.0","","<img src=""img/set2/S4.jpg"" width=""540"" height = ""360"" style=""border:16px solid orange"">","null","","","","","","","",""
"null","","html-keyboard-response","594","690784","0.0-594.0","","","null","","","","","","","",""
