"rt","url","trial_type","trial_index","time_elapsed","internal_node_id","view_history","stimulus","key_press","state","test_part","correct_response","order_block","order_chunk","order_freq","correct","responses","question_order","bonus"
"3126.5999999940395","consent.html","external-html","0","3198","0.0-0.0","","","","","","","","","","","","",""
"202092.09999999404","","instructions","1","205291","0.0-1.0","[{""page_index"":0,""viewing_time"":8114.0999999940395},{""page_index"":1,""viewing_time"":5543.5},{""page_index"":2,""viewing_time"":4144},{""page_index"":3,""viewing_time"":162493.90000000596},{""page_index"":4,""viewing_time"":4224.199999988079},{""page_index"":5,""viewing_time"":8601.70000000298},{""page_index"":6,""viewing_time"":8970.10000000894}]","","","","","","","","","","","",""
"13303.29999999702","","instructions","2","218594","0.0-2.0","[{""page_index"":0,""viewing_time"":13303.09999999404}]","","","","","","","","","","","",""
"9681.09999999404","","instructions","3","228276","0.0-3.0","[{""page_index"":0,""viewing_time"":7903.0999999940395},{""page_index"":1,""viewing_time"":1777.800000011921}]","","","","","","","","","","","",""
"null","","image-keyboard-response","4","230785","0.0-4.0","","img/set1/S1.jpg","null","1","structured_load","83","structured_load,random,structured_normal,structured_incentive","2,3,3,4,2,1","1,2,4,3","false","","",""
"null","","html-keyboard-response","5","231147","0.0-5.0","","<img src=""img/set1/S1.jpg"" width=""540"" height = ""360"">","null","","","","","","","","","",""
"null","","html-keyboard-response","6","231353","0.0-6.0","","","null","","","","","","","","","",""
"2154.300000011921","","image-keyboard-response","7","233510","0.0-7.0","","img/set1/S1.jpg","83","1","structured_load","83","structured_load,random,structured_normal,structured_incentive","2,3,3,4,2,1","1,2,4,3","true","","",""
"null","","html-keyboard-response","8","233877","0.0-8.0","","<img src=""img/set1/S1.jpg"" width=""540"" height = ""360"" style=""border:16px solid orange"">","null","","","","","","","","","",""
"null","","html-keyboard-response","9","234082","0.0-9.0","","","null","","","","","","","","","",""
"448","","image-keyboard-response","10","234531","0.0-10.0","","img/set1/S1.jpg","83","1","structured_load","83","structured_load,random,structured_normal,structured_incentive","2,3,3,4,2,1","1,2,4,3","true","","",""
"null","","html-keyboard-response","11","234885","0.0-11.0","","<img src=""img/set1/S1.jpg"" width=""540"" height = ""360"" style=""border:16px solid orange"">","null","","","","","","","","","",""
"null","","html-keyboard-response","12","235090","0.0-12.0","","","null","","","","","","","","","",""
"191.29999999701977","","image-keyboard-response","13","235282","0.0-13.0","","img/set1/S4.jpg","83","4","structured_load","74","structured_load,random,structured_normal,structured_incentive","2,3,3,4,2,1","1,2,4,3","false","","",""
"null","","html-keyboard-response","14","235641","0.0-14.0","","<img src=""img/set1/S4.jpg"" width=""540"" height = ""360"">","null","","","","","","","","","",""
"null","","html-keyboard-response","15","235846","0.0-15.0","","","null","","","","","","","","","",""
"50.20000000298023","","image-keyboard-response","16","235898","0.0-16.0","","img/set1/S4.jpg","72","4","structured_load","74","structured_load,random,structured_normal,structured_incentive","2,3,3,4,2,1","1,2,4,3","false","","",""
"null","","html-keyboard-response","17","236256","0.0-17.0","","<img src=""img/set1/S4.jpg"" width=""540"" height = ""360"">","null","","","","","","","","","",""
"null","","html-keyboard-response","18","236460","0.0-18.0","","","null","","","","","","","","","",""
"333.3999999910593","","image-keyboard-response","19","236795","0.0-19.0","","img/set1/S4.jpg","74","4","structured_load","74","structured_load,random,structured_normal,structured_incentive","2,3,3,4,2,1","1,2,4,3","true","","",""
"null","","html-keyboard-response","20","237149","0.0-20.0","","<img src=""img/set1/S4.jpg"" width=""540"" height = ""360"" style=""border:16px solid orange"">","null","","","","","","","","","",""
"null","","html-keyboard-response","21","237353","0.0-21.0","","","null","","","","","","","","","",""
"144.20000000298023","","image-keyboard-response","22","237498","0.0-22.0","","img/set1/S1.jpg","74","1","structured_load","83","structured_load,random,structured_normal,structured_incentive","2,3,3,4,2,1","1,2,4,3","false","","",""
"null","","html-keyboard-response","23","237853","0.0-23.0","","<img src=""img/set1/S1.jpg"" width=""540"" height = ""360"">","null","","","","","","","","","",""
"null","","html-keyboard-response","24","238059","0.0-24.0","","","null","","","","","","","","","",""
"180.8999999910593","","image-keyboard-response","25","238242","0.0-25.0","","img/set1/S4.jpg","72","4","structured_load","74","structured_load,random,structured_normal,structured_incentive","2,3,3,4,2,1","1,2,4,3","false","","",""
"null","","html-keyboard-response","26","238602","0.0-26.0","","<img src=""img/set1/S4.jpg"" width=""540"" height = ""360"">","null","","","","","","","","","",""
"null","","html-keyboard-response","27","238812","0.0-27.0","","","null","","","","","","","","","",""
"92.5","","image-keyboard-response","28","238906","0.0-28.0","","img/set1/S2.jpg","83","2","structured_load","68","structured_load,random,structured_normal,structured_incentive","2,3,3,4,2,1","1,2,4,3","false","","",""
"null","","html-keyboard-response","29","239271","0.0-29.0","","<img src=""img/set1/S2.jpg"" width=""540"" height = ""360"">","null","","","","","","","","","",""
"null","","html-keyboard-response","30","239487","0.0-30.0","","","null","","","","","","","","","",""
"3","","image-keyboard-response","31","239492","0.0-31.0","","img/set1/S3.jpg","68","3","structured_load","72","structured_load,random,structured_normal,structured_incentive","2,3,3,4,2,1","1,2,4,3","false","","",""
"null","","html-keyboard-response","32","239851","0.0-32.0","","<img src=""img/set1/S3.jpg"" width=""540"" height = ""360"">","null","","","","","","","","","",""
"null","","html-keyboard-response","33","240059","0.0-33.0","","","null","","","","","","","","","",""
"117.8999999910593","","image-keyboard-response","34","240178","0.0-34.0","","img/set1/S1.jpg","83","1","structured_load","83","structured_load,random,structured_normal,structured_incentive","2,3,3,4,2,1","1,2,4,3","true","","",""
"null","","html-keyboard-response","35","240532","0.0-35.0","","<img src=""img/set1/S1.jpg"" width=""540"" height = ""360"" style=""border:16px solid orange"">","null","","","","","","","","","",""
"null","","html-keyboard-response","36","240737","0.0-36.0","","","null","","","","","","","","","",""
"95.3999999910593","","image-keyboard-response","37","240833","0.0-37.0","","img/set1/S4.jpg","68","4","structured_load","74","structured_load,random,structured_normal,structured_incentive","2,3,3,4,2,1","1,2,4,3","false","","",""
"null","","html-keyboard-response","38","241189","0.0-38.0","","<img src=""img/set1/S4.jpg"" width=""540"" height = ""360"">","null","","","","","","","","","",""
"null","","html-keyboard-response","39","241395","0.0-39.0","","","null","","","","","","","","","",""
"46.400000005960464","","image-keyboard-response","40","241443","0.0-40.0","","img/set1/S2.jpg","72","2","structured_load","68","structured_load,random,structured_normal,structured_incentive","2,3,3,4,2,1","1,2,4,3","false","","",""
"null","","html-keyboard-response","41","241801","0.0-41.0","","<img src=""img/set1/S2.jpg"" width=""540"" height = ""360"">","null","","","","","","","","","",""
"null","","html-keyboard-response","42","242005","0.0-42.0","","","null","","","","","","","","","",""
"83.8999999910593","","image-keyboard-response","43","242092","0.0-43.0","","img/set1/S3.jpg","83","3","structured_load","72","structured_load,random,structured_normal,structured_incentive","2,3,3,4,2,1","1,2,4,3","false","","",""
"null","","html-keyboard-response","44","242447","0.0-44.0","","<img src=""img/set1/S3.jpg"" width=""540"" height = ""360"">","null","","","","","","","","","",""
"null","","html-keyboard-response","45","242650","0.0-45.0","","","null","","","","","","","","","",""
"7.399999991059303","","image-keyboard-response","46","242659","0.0-46.0","","img/set1/S2.jpg","83","2","structured_load","68","structured_load,random,structured_normal,structured_incentive","2,3,3,4,2,1","1,2,4,3","false","","",""
"null","","html-keyboard-response","47","243025","0.0-47.0","","<img src=""img/set1/S2.jpg"" width=""540"" height = ""360"">","null","","","","","","","","","",""
"null","","html-keyboard-response","48","243226","0.0-48.0","","","null","","","","","","","","","",""
"128.29999999701977","","image-keyboard-response","49","243356","0.0-49.0","","img/set1/S3.jpg","72","3","structured_load","72","structured_load,random,structured_normal,structured_incentive","2,3,3,4,2,1","1,2,4,3","true","","",""
"null","","html-keyboard-response","50","243714","0.0-50.0","","<img src=""img/set1/S3.jpg"" width=""540"" height = ""360"" style=""border:16px solid orange"">","null","","","","","","","","","",""
"null","","html-keyboard-response","51","243918","0.0-51.0","","","null","","","","","","","","","",""
"130.70000000298023","","image-keyboard-response","52","244049","0.0-52.0","","img/set1/S2.jpg","72","2","structured_load","68","structured_load,random,structured_normal,structured_incentive","2,3,3,4,2,1","1,2,4,3","false","","",""
"null","","html-keyboard-response","53","244408","0.0-53.0","","<img src=""img/set1/S2.jpg"" width=""540"" height = ""360"">","null","","","","","","","","","",""
"null","","html-keyboard-response","54","244611","0.0-54.0","","","null","","","","","","","","","",""
"85.8999999910593","","image-keyboard-response","55","244699","0.0-55.0","","img/set1/S3.jpg","68","3","structured_load","72","structured_load,random,structured_normal,structured_incentive","2,3,3,4,2,1","1,2,4,3","false","","",""
"null","","html-keyboard-response","56","245056","0.0-56.0","","<img src=""img/set1/S3.jpg"" width=""540"" height = ""360"">","null","","","","","","","","","",""
"null","","html-keyboard-response","57","245259","0.0-57.0","","","null","","","","","","","","","",""
"62.5","","image-keyboard-response","58","245324","0.0-58.0","","img/set1/S1.jpg","74","1","structured_load","83","structured_load,random,structured_normal,structured_incentive","2,3,3,4,2,1","1,2,4,3","false","","",""
"null","","html-keyboard-response","59","245686","0.0-59.0","","<img src=""img/set1/S1.jpg"" width=""540"" height = ""360"">","null","","","","","","","","","",""
"null","","html-keyboard-response","60","245889","0.0-60.0","","","null","","","","","","","","","",""
"110.90000000596046","","image-keyboard-response","61","246001","0.0-61.0","","img/set1/S1.jpg","74","1","structured_load","83","structured_load,random,structured_normal,structured_incentive","2,3,3,4,2,1","1,2,4,3","false","","",""
"null","","html-keyboard-response","62","246360","0.0-62.0","","<img src=""img/set1/S1.jpg"" width=""540"" height = ""360"">","null","","","","","","","","","",""
"null","","html-keyboard-response","63","246562","0.0-63.0","","","null","","","","","","","","","",""
"55.400000005960464","","image-keyboard-response","64","246618","0.0-64.0","","img/set1/S2.jpg","68","2","structured_load","68","structured_load,random,structured_normal,structured_incentive","2,3,3,4,2,1","1,2,4,3","true","","",""
"null","","html-keyboard-response","65","246970","0.0-65.0","","<img src=""img/set1/S2.jpg"" width=""540"" height = ""360"" style=""border:16px solid orange"">","null","","","","","","","","","",""
"null","","html-keyboard-response","66","247174","0.0-66.0","","","null","","","","","","","","","",""
"114.59999999403954","","image-keyboard-response","67","247289","0.0-67.0","","img/set1/S3.jpg","72","3","structured_load","72","structured_load,random,structured_normal,structured_incentive","2,3,3,4,2,1","1,2,4,3","true","","",""
"null","","html-keyboard-response","68","247644","0.0-68.0","","<img src=""img/set1/S3.jpg"" width=""540"" height = ""360"" style=""border:16px solid orange"">","null","","","","","","","","","",""
"null","","html-keyboard-response","69","247847","0.0-69.0","","","null","","","","","","","","","",""
"126.20000000298023","","image-keyboard-response","70","247978","0.0-70.0","","img/set1/S4.jpg","72","4","structured_load","74","structured_load,random,structured_normal,structured_incentive","2,3,3,4,2,1","1,2,4,3","false","","",""
"null","","html-keyboard-response","71","248331","0.0-71.0","","<img src=""img/set1/S4.jpg"" width=""540"" height = ""360"">","null","","","","","","","","","",""
"null","","html-keyboard-response","72","248536","0.0-72.0","","","null","","","","","","","","","",""
"224.40000000596046","","image-keyboard-response","73","248761","0.0-73.0","","img/set1/S2.jpg","68","2","structured_load","68","structured_load,random,structured_normal,structured_incentive","2,3,3,4,2,1","1,2,4,3","true","","",""
"null","","html-keyboard-response","74","249128","0.0-74.0","","<img src=""img/set1/S2.jpg"" width=""540"" height = ""360"" style=""border:16px solid orange"">","null","","","","","","","","","",""
"null","","html-keyboard-response","75","249331","0.0-75.0","","","null","","","","","","","","","",""
"558.1000000089407","","image-keyboard-response","76","249890","0.0-76.0","","img/set1/S3.jpg","72","3","structured_load","72","structured_load,random,structured_normal,structured_incentive","2,3,3,4,2,1","1,2,4,3","true","","",""
"null","","html-keyboard-response","77","250241","0.0-77.0","","<img src=""img/set1/S3.jpg"" width=""540"" height = ""360"" style=""border:16px solid orange"">","null","","","","","","","","","",""
"null","","html-keyboard-response","78","250443","0.0-78.0","","","null","","","","","","","","","",""
"429.59999999403954","","image-keyboard-response","79","250874","0.0-79.0","","img/set1/S1.jpg","72","1","structured_load","83","structured_load,random,structured_normal,structured_incentive","2,3,3,4,2,1","1,2,4,3","false","","",""
"null","","html-keyboard-response","80","251227","0.0-80.0","","<img src=""img/set1/S1.jpg"" width=""540"" height = ""360"">","null","","","","","","","","","",""
"null","","html-keyboard-response","81","251432","0.0-81.0","","","null","","","","","","","","","",""
"639.8999999910593","","image-keyboard-response","82","252073","0.0-82.0","","img/set1/S2.jpg","68","2","structured_load","68","structured_load,random,structured_normal,structured_incentive","2,3,3,4,2,1","1,2,4,3","true","","",""
"null","","html-keyboard-response","83","252434","0.0-83.0","","<img src=""img/set1/S2.jpg"" width=""540"" height = ""360"" style=""border:16px solid orange"">","null","","","","","","","","","",""
"null","","html-keyboard-response","84","252639","0.0-84.0","","","null","","","","","","","","","",""
"744.2999999970198","","image-keyboard-response","85","253385","0.0-85.0","","img/set1/S3.jpg","74","3","structured_load","72","structured_load,random,structured_normal,structured_incentive","2,3,3,4,2,1","1,2,4,3","false","","",""
"null","","html-keyboard-response","86","253745","0.0-86.0","","<img src=""img/set1/S3.jpg"" width=""540"" height = ""360"">","null","","","","","","","","","",""
"null","","html-keyboard-response","87","253948","0.0-87.0","","","null","","","","","","","","","",""
"381.8999999910593","","image-keyboard-response","88","254331","0.0-88.0","","img/set1/S2.jpg","74","2","structured_load","68","structured_load,random,structured_normal,structured_incentive","2,3,3,4,2,1","1,2,4,3","false","","",""
"null","","html-keyboard-response","89","254689","0.0-89.0","","<img src=""img/set1/S2.jpg"" width=""540"" height = ""360"">","null","","","","","","","","","",""
"null","","html-keyboard-response","90","254894","0.0-90.0","","","null","","","","","","","","","",""
"203.09999999403954","","image-keyboard-response","91","255098","0.0-91.0","","img/set1/S3.jpg","83","3","structured_load","72","structured_load,random,structured_normal,structured_incentive","2,3,3,4,2,1","1,2,4,3","false","","",""
"null","","html-keyboard-response","92","255459","0.0-92.0","","<img src=""img/set1/S3.jpg"" width=""540"" height = ""360"">","null","","","","","","","","","",""
"null","","html-keyboard-response","93","255662","0.0-93.0","","","null","","","","","","","","","",""
"395.20000000298023","","image-keyboard-response","94","256059","0.0-94.0","","img/set1/S2.jpg","83","2","structured_load","68","structured_load,random,structured_normal,structured_incentive","2,3,3,4,2,1","1,2,4,3","false","","",""
"null","","html-keyboard-response","95","256416","0.0-95.0","","<img src=""img/set1/S2.jpg"" width=""540"" height = ""360"">","null","","","","","","","","","",""
"null","","html-keyboard-response","96","256622","0.0-96.0","","","null","","","","","","","","","",""
"355.40000000596046","","image-keyboard-response","97","256979","0.0-97.0","","img/set1/S3.jpg","68","3","structured_load","72","structured_load,random,structured_normal,structured_incentive","2,3,3,4,2,1","1,2,4,3","false","","",""
"null","","html-keyboard-response","98","257344","0.0-98.0","","<img src=""img/set1/S3.jpg"" width=""540"" height = ""360"">","null","","","","","","","","","",""
"null","","html-keyboard-response","99","257551","0.0-99.0","","","null","","","","","","","","","",""
"354","","image-keyboard-response","100","257906","0.0-100.0","","img/set1/S1.jpg","72","1","structured_load","83","structured_load,random,structured_normal,structured_incentive","2,3,3,4,2,1","1,2,4,3","false","","",""
"null","","html-keyboard-response","101","258272","0.0-101.0","","<img src=""img/set1/S1.jpg"" width=""540"" height = ""360"">","null","","","","","","","","","",""
"null","","html-keyboard-response","102","258474","0.0-102.0","","","null","","","","","","","","","",""
"576","","image-keyboard-response","103","259051","0.0-103.0","","img/set1/S1.jpg","72","1","structured_load","83","structured_load,random,structured_normal,structured_incentive","2,3,3,4,2,1","1,2,4,3","false","","",""
"null","","html-keyboard-response","104","259420","0.0-104.0","","<img src=""img/set1/S1.jpg"" width=""540"" height = ""360"">","null","","","","","","","","","",""
"null","","html-keyboard-response","105","259624","0.0-105.0","","","null","","","","","","","","","",""
"737.2999999970198","","image-keyboard-response","106","260363","0.0-106.0","","img/set1/S2.jpg","74","2","structured_load","68","structured_load,random,structured_normal,structured_incentive","2,3,3,4,2,1","1,2,4,3","false","","",""
"null","","html-keyboard-response","107","260729","0.0-107.0","","<img src=""img/set1/S2.jpg"" width=""540"" height = ""360"">","null","","","","","","","","","",""
"null","","html-keyboard-response","108","260934","0.0-108.0","","","null","","","","","","","","","",""
"978.8999999910593","","image-keyboard-response","109","261913","0.0-109.0","","img/set1/S3.jpg","72","3","structured_load","72","structured_load,random,structured_normal,structured_incentive","2,3,3,4,2,1","1,2,4,3","true","","",""
"null","","html-keyboard-response","110","262278","0.0-110.0","","<img src=""img/set1/S3.jpg"" width=""540"" height = ""360"" style=""border:16px solid orange"">","null","","","","","","","","","",""
"null","","html-keyboard-response","111","262481","0.0-111.0","","","null","","","","","","","","","",""
"1608.5","","image-keyboard-response","112","264091","0.0-112.0","","img/set1/S4.jpg","83","4","structured_load","74","structured_load,random,structured_normal,structured_incentive","2,3,3,4,2,1","1,2,4,3","false","","",""
"null","","html-keyboard-response","113","264457","0.0-113.0","","<img src=""img/set1/S4.jpg"" width=""540"" height = ""360"">","null","","","","","","","","","",""
"null","","html-keyboard-response","114","264658","0.0-114.0","","","null","","","","","","","","","",""
"973.8999999910593","","image-keyboard-response","115","265633","0.0-115.0","","img/set1/S2.jpg","83","2","structured_load","68","structured_load,random,structured_normal,structured_incentive","2,3,3,4,2,1","1,2,4,3","false","","",""
"null","","html-keyboard-response","116","265991","0.0-116.0","","<img src=""img/set1/S2.jpg"" width=""540"" height = ""360"">","null","","","","","","","","","",""
"null","","html-keyboard-response","117","266195","0.0-117.0","","","null","","","","","","","","","",""
"101.70000000298023","","image-keyboard-response","118","266299","0.0-118.0","","img/set1/S3.jpg","68","3","structured_load","72","structured_load,random,structured_normal,structured_incentive","2,3,3,4,2,1","1,2,4,3","false","","",""
"null","","html-keyboard-response","119","266662","0.0-119.0","","<img src=""img/set1/S3.jpg"" width=""540"" height = ""360"">","null","","","","","","","","","",""
"null","","html-keyboard-response","120","266870","0.0-120.0","","","null","","","","","","","","","",""
"628.0999999940395","","image-keyboard-response","121","267499","0.0-121.0","","img/set1/S4.jpg","83","4","structured_load","74","structured_load,random,structured_normal,structured_incentive","2,3,3,4,2,1","1,2,4,3","false","","",""
"null","","html-keyboard-response","122","267859","0.0-122.0","","<img src=""img/set1/S4.jpg"" width=""540"" height = ""360"">","null","","","","","","","","","",""
"null","","html-keyboard-response","123","268062","0.0-123.0","","","null","","","","","","","","","",""
"563.7000000029802","","image-keyboard-response","124","268627","0.0-124.0","","img/set1/S1.jpg","68","1","structured_load","83","structured_load,random,structured_normal,structured_incentive","2,3,3,4,2,1","1,2,4,3","false","","",""
"null","","html-keyboard-response","125","268992","0.0-125.0","","<img src=""img/set1/S1.jpg"" width=""540"" height = ""360"">","null","","","","","","","","","",""
"null","","html-keyboard-response","126","269195","0.0-126.0","","","null","","","","","","","","","",""
"748.5","","image-keyboard-response","127","269945","0.0-127.0","","img/set1/S2.jpg","83","2","structured_load","68","structured_load,random,structured_normal,structured_incentive","2,3,3,4,2,1","1,2,4,3","false","","",""
"null","","html-keyboard-response","128","270297","0.0-128.0","","<img src=""img/set1/S2.jpg"" width=""540"" height = ""360"">","null","","","","","","","","","",""
"null","","html-keyboard-response","129","270500","0.0-129.0","","","null","","","","","","","","","",""
"773.4000000059605","","image-keyboard-response","130","271275","0.0-130.0","","img/set1/S3.jpg","72","3","structured_load","72","structured_load,random,structured_normal,structured_incentive","2,3,3,4,2,1","1,2,4,3","true","","",""
"null","","html-keyboard-response","131","271635","0.0-131.0","","<img src=""img/set1/S3.jpg"" width=""540"" height = ""360"" style=""border:16px solid orange"">","null","","","","","","","","","",""
"null","","html-keyboard-response","132","271840","0.0-132.0","","","null","","","","","","","","","",""
"1624.5","","image-keyboard-response","133","273466","0.0-133.0","","img/set1/S1.jpg","74","1","structured_load","83","structured_load,random,structured_normal,structured_incentive","2,3,3,4,2,1","1,2,4,3","false","","",""
"null","","html-keyboard-response","134","273827","0.0-134.0","","<img src=""img/set1/S1.jpg"" width=""540"" height = ""360"">","null","","","","","","","","","",""
"null","","html-keyboard-response","135","274032","0.0-135.0","","","null","","","","","","","","","",""
"1352.699999988079","","image-keyboard-response","136","275386","0.0-136.0","","img/set1/S1.jpg","83","1","structured_load","83","structured_load,random,structured_normal,structured_incentive","2,3,3,4,2,1","1,2,4,3","true","","",""
"null","","html-keyboard-response","137","275750","0.0-137.0","","<img src=""img/set1/S1.jpg"" width=""540"" height = ""360"" style=""border:16px solid orange"">","null","","","","","","","","","",""
"null","","html-keyboard-response","138","275958","0.0-138.0","","","null","","","","","","","","","",""
"null","","image-keyboard-response","139","278474","0.0-139.0","","img/set1/S2.jpg","null","2","structured_load","68","structured_load,random,structured_normal,structured_incentive","2,3,3,4,2,1","1,2,4,3","false","","",""
"null","","html-keyboard-response","140","278833","0.0-140.0","","<img src=""img/set1/S2.jpg"" width=""540"" height = ""360"">","null","","","","","","","","","",""
"null","","html-keyboard-response","141","279035","0.0-141.0","","","null","","","","","","","","","",""
"1068.7999999970198","","image-keyboard-response","142","280105","0.0-142.0","","img/set1/S3.jpg","72","3","structured_load","72","structured_load,random,structured_normal,structured_incentive","2,3,3,4,2,1","1,2,4,3","true","","",""
"null","","html-keyboard-response","143","280458","0.0-143.0","","<img src=""img/set1/S3.jpg"" width=""540"" height = ""360"" style=""border:16px solid orange"">","null","","","","","","","","","",""
"null","","html-keyboard-response","144","280664","0.0-144.0","","","null","","","","","","","","","",""
"625.5","","image-keyboard-response","145","281291","0.0-145.0","","img/set1/S1.jpg","83","1","structured_load","83","structured_load,random,structured_normal,structured_incentive","2,3,3,4,2,1","1,2,4,3","true","","",""
"null","","html-keyboard-response","146","281655","0.0-146.0","","<img src=""img/set1/S1.jpg"" width=""540"" height = ""360"" style=""border:16px solid orange"">","null","","","","","","","","","",""
"null","","html-keyboard-response","147","281859","0.0-147.0","","","null","","","","","","","","","",""
"613.7999999970198","","image-keyboard-response","148","282474","0.0-148.0","","img/set1/S4.jpg","74","4","structured_load","74","structured_load,random,structured_normal,structured_incentive","2,3,3,4,2,1","1,2,4,3","true","","",""
"null","","html-keyboard-response","149","282837","0.0-149.0","","<img src=""img/set1/S4.jpg"" width=""540"" height = ""360"" style=""border:16px solid orange"">","null","","","","","","","","","",""
"null","","html-keyboard-response","150","283044","0.0-150.0","","","null","","","","","","","","","",""
"581.2000000029802","","image-keyboard-response","151","283627","0.0-151.0","","img/set1/S4.jpg","74","4","structured_load","74","structured_load,random,structured_normal,structured_incentive","2,3,3,4,2,1","1,2,4,3","true","","",""
"null","","html-keyboard-response","152","283987","0.0-152.0","","<img src=""img/set1/S4.jpg"" width=""540"" height = ""360"" style=""border:16px solid orange"">","null","","","","","","","","","",""
"null","","html-keyboard-response","153","284191","0.0-153.0","","","null","","","","","","","","","",""
"1249.2999999970198","","image-keyboard-response","154","285442","0.0-154.0","","img/set1/S2.jpg","68","2","structured_load","68","structured_load,random,structured_normal,structured_incentive","2,3,3,4,2,1","1,2,4,3","true","","",""
"null","","html-keyboard-response","155","285798","0.0-155.0","","<img src=""img/set1/S2.jpg"" width=""540"" height = ""360"" style=""border:16px solid orange"">","null","","","","","","","","","",""
"null","","html-keyboard-response","156","286000","0.0-156.0","","","null","","","","","","","","","",""
"1065","","image-keyboard-response","157","287066","0.0-157.0","","img/set1/S3.jpg","72","3","structured_load","72","structured_load,random,structured_normal,structured_incentive","2,3,3,4,2,1","1,2,4,3","true","","",""
"null","","html-keyboard-response","158","287418","0.0-158.0","","<img src=""img/set1/S3.jpg"" width=""540"" height = ""360"" style=""border:16px solid orange"">","null","","","","","","","","","",""
"null","","html-keyboard-response","159","287622","0.0-159.0","","","null","","","","","","","","","",""
"1172.2999999970198","","image-keyboard-response","160","288795","0.0-160.0","","img/set1/S2.jpg","83","2","structured_load","68","structured_load,random,structured_normal,structured_incentive","2,3,3,4,2,1","1,2,4,3","false","","",""
"null","","html-keyboard-response","161","289162","0.0-161.0","","<img src=""img/set1/S2.jpg"" width=""540"" height = ""360"">","null","","","","","","","","","",""
"null","","html-keyboard-response","162","289366","0.0-162.0","","","null","","","","","","","","","",""
"746.4000000059605","","image-keyboard-response","163","290114","0.0-163.0","","img/set1/S3.jpg","72","3","structured_load","72","structured_load,random,structured_normal,structured_incentive","2,3,3,4,2,1","1,2,4,3","true","","",""
"null","","html-keyboard-response","164","290480","0.0-164.0","","<img src=""img/set1/S3.jpg"" width=""540"" height = ""360"" style=""border:16px solid orange"">","null","","","","","","","","","",""
"null","","html-keyboard-response","165","290687","0.0-165.0","","","null","","","","","","","","","",""
"2258.6000000089407","","image-keyboard-response","166","292947","0.0-166.0","","img/set1/S1.jpg","83","1","structured_load","83","structured_load,random,structured_normal,structured_incentive","2,3,3,4,2,1","1,2,4,3","true","","",""
"null","","html-keyboard-response","167","293304","0.0-167.0","","<img src=""img/set1/S1.jpg"" width=""540"" height = ""360"" style=""border:16px solid orange"">","null","","","","","","","","","",""
"null","","html-keyboard-response","168","293509","0.0-168.0","","","null","","","","","","","","","",""
"548.2999999970198","","image-keyboard-response","169","294059","0.0-169.0","","img/set1/S1.jpg","83","1","structured_load","83","structured_load,random,structured_normal,structured_incentive","2,3,3,4,2,1","1,2,4,3","true","","",""
"null","","html-keyboard-response","170","294418","0.0-170.0","","<img src=""img/set1/S1.jpg"" width=""540"" height = ""360"" style=""border:16px solid orange"">","null","","","","","","","","","",""
"null","","html-keyboard-response","171","294625","0.0-171.0","","","null","","","","","","","","","",""
"1455.9000000059605","","image-keyboard-response","172","296082","0.0-172.0","","img/set1/S4.jpg","68","4","structured_load","74","structured_load,random,structured_normal,structured_incentive","2,3,3,4,2,1","1,2,4,3","false","","",""
"null","","html-keyboard-response","173","296448","0.0-173.0","","<img src=""img/set1/S4.jpg"" width=""540"" height = ""360"">","null","","","","","","","","","",""
"null","","html-keyboard-response","174","296652","0.0-174.0","","","null","","","","","","","","","",""
"645.7000000029802","","image-keyboard-response","175","297299","0.0-175.0","","img/set1/S4.jpg","74","4","structured_load","74","structured_load,random,structured_normal,structured_incentive","2,3,3,4,2,1","1,2,4,3","true","","",""
"null","","html-keyboard-response","176","297659","0.0-176.0","","<img src=""img/set1/S4.jpg"" width=""540"" height = ""360"" style=""border:16px solid orange"">","null","","","","","","","","","",""
"null","","html-keyboard-response","177","297865","0.0-177.0","","","null","","","","","","","","","",""
"528","","image-keyboard-response","178","298394","0.0-178.0","","img/set1/S4.jpg","74","4","structured_load","74","structured_load,random,structured_normal,structured_incentive","2,3,3,4,2,1","1,2,4,3","true","","",""
"null","","html-keyboard-response","179","298760","0.0-179.0","","<img src=""img/set1/S4.jpg"" width=""540"" height = ""360"" style=""border:16px solid orange"">","null","","","","","","","","","",""
"null","","html-keyboard-response","180","298971","0.0-180.0","","","null","","","","","","","","","",""
"610.0999999940395","","image-keyboard-response","181","299582","0.0-181.0","","img/set1/S4.jpg","74","4","structured_load","74","structured_load,random,structured_normal,structured_incentive","2,3,3,4,2,1","1,2,4,3","true","","",""
"null","","html-keyboard-response","182","299942","0.0-182.0","","<img src=""img/set1/S4.jpg"" width=""540"" height = ""360"" style=""border:16px solid orange"">","null","","","","","","","","","",""
"null","","html-keyboard-response","183","300147","0.0-183.0","","","null","","","","","","","","","",""
"470.20000000298023","","image-keyboard-response","184","300618","0.0-184.0","","img/set1/S4.jpg","74","4","structured_load","74","structured_load,random,structured_normal,structured_incentive","2,3,3,4,2,1","1,2,4,3","true","","",""
"null","","html-keyboard-response","185","300980","0.0-185.0","","<img src=""img/set1/S4.jpg"" width=""540"" height = ""360"" style=""border:16px solid orange"">","null","","","","","","","","","",""
"null","","html-keyboard-response","186","301184","0.0-186.0","","","null","","","","","","","","","",""
"632.7999999970198","","image-keyboard-response","187","301818","0.0-187.0","","img/set1/S4.jpg","74","4","structured_load","74","structured_load,random,structured_normal,structured_incentive","2,3,3,4,2,1","1,2,4,3","true","","",""
"null","","html-keyboard-response","188","302177","0.0-188.0","","<img src=""img/set1/S4.jpg"" width=""540"" height = ""360"" style=""border:16px solid orange"">","null","","","","","","","","","",""
"null","","html-keyboard-response","189","302381","0.0-189.0","","","null","","","","","","","","","",""
"1331.0999999940395","","image-keyboard-response","190","303714","0.0-190.0","","img/set1/S2.jpg","68","2","structured_load","68","structured_load,random,structured_normal,structured_incentive","2,3,3,4,2,1","1,2,4,3","true","","",""
"null","","html-keyboard-response","191","304079","0.0-191.0","","<img src=""img/set1/S2.jpg"" width=""540"" height = ""360"" style=""border:16px solid orange"">","null","","","","","","","","","",""
"null","","html-keyboard-response","192","304283","0.0-192.0","","","null","","","","","","","","","",""
"798.5999999940395","","image-keyboard-response","193","305082","0.0-193.0","","img/set1/S3.jpg","72","3","structured_load","72","structured_load,random,structured_normal,structured_incentive","2,3,3,4,2,1","1,2,4,3","true","","",""
"null","","html-keyboard-response","194","305446","0.0-194.0","","<img src=""img/set1/S3.jpg"" width=""540"" height = ""360"" style=""border:16px solid orange"">","null","","","","","","","","","",""
"null","","html-keyboard-response","195","305649","0.0-195.0","","","null","","","","","","","","","",""
"1257.199999988079","","image-keyboard-response","196","306907","0.0-196.0","","img/set1/S2.jpg","68","2","structured_load","68","structured_load,random,structured_normal,structured_incentive","2,3,3,4,2,1","1,2,4,3","true","","",""
"null","","html-keyboard-response","197","307272","0.0-197.0","","<img src=""img/set1/S2.jpg"" width=""540"" height = ""360"" style=""border:16px solid orange"">","null","","","","","","","","","",""
"null","","html-keyboard-response","198","307484","0.0-198.0","","","null","","","","","","","","","",""
"876.2999999970198","","image-keyboard-response","199","308361","0.0-199.0","","img/set1/S3.jpg","72","3","structured_load","72","structured_load,random,structured_normal,structured_incentive","2,3,3,4,2,1","1,2,4,3","true","","",""
"null","","html-keyboard-response","200","308726","0.0-200.0","","<img src=""img/set1/S3.jpg"" width=""540"" height = ""360"" style=""border:16px solid orange"">","null","","","","","","","","","",""
"null","","html-keyboard-response","201","308929","0.0-201.0","","","null","","","","","","","","","",""
"1190.5999999940395","","image-keyboard-response","202","310121","0.0-202.0","","img/set1/S1.jpg","83","1","structured_load","83","structured_load,random,structured_normal,structured_incentive","2,3,3,4,2,1","1,2,4,3","true","","",""
"null","","html-keyboard-response","203","310486","0.0-203.0","","<img src=""img/set1/S1.jpg"" width=""540"" height = ""360"" style=""border:16px solid orange"">","null","","","","","","","","","",""
"null","","html-keyboard-response","204","310689","0.0-204.0","","","null","","","","","","","","","",""
"807.7000000029802","","image-keyboard-response","205","311498","0.0-205.0","","img/set1/S4.jpg","74","4","structured_load","74","structured_load,random,structured_normal,structured_incentive","2,3,3,4,2,1","1,2,4,3","true","","",""
"null","","html-keyboard-response","206","311864","0.0-206.0","","<img src=""img/set1/S4.jpg"" width=""540"" height = ""360"" style=""border:16px solid orange"">","null","","","","","","","","","",""
"null","","html-keyboard-response","207","312068","0.0-207.0","","","null","","","","","","","","","",""
"1149.7999999970198","","image-keyboard-response","208","313219","0.0-208.0","","img/set1/S2.jpg","68","2","structured_load","68","structured_load,random,structured_normal,structured_incentive","2,3,3,4,2,1","1,2,4,3","true","","",""
"null","","html-keyboard-response","209","313574","0.0-209.0","","<img src=""img/set1/S2.jpg"" width=""540"" height = ""360"" style=""border:16px solid orange"">","null","","","","","","","","","",""
"null","","html-keyboard-response","210","313780","0.0-210.0","","","null","","","","","","","","","",""
"757.8999999910593","","image-keyboard-response","211","314539","0.0-211.0","","img/set1/S3.jpg","72","3","structured_load","72","structured_load,random,structured_normal,structured_incentive","2,3,3,4,2,1","1,2,4,3","true","","",""
"null","","html-keyboard-response","212","314898","0.0-212.0","","<img src=""img/set1/S3.jpg"" width=""540"" height = ""360"" style=""border:16px solid orange"">","null","","","","","","","","","",""
"null","","html-keyboard-response","213","315101","0.0-213.0","","","null","","","","","","","","","",""
"null","","image-keyboard-response","214","317609","0.0-214.0","","img/set1/S2.jpg","null","2","structured_load","68","structured_load,random,structured_normal,structured_incentive","2,3,3,4,2,1","1,2,4,3","false","","",""
"null","","html-keyboard-response","215","317971","0.0-215.0","","<img src=""img/set1/S2.jpg"" width=""540"" height = ""360"">","null","","","","","","","","","",""
"null","","html-keyboard-response","216","318176","0.0-216.0","","","null","","","","","","","","","",""
"1423.8999999910593","","image-keyboard-response","217","319602","0.0-217.0","","img/set1/S3.jpg","72","3","structured_load","72","structured_load,random,structured_normal,structured_incentive","2,3,3,4,2,1","1,2,4,3","true","","",""
"null","","html-keyboard-response","218","319963","0.0-218.0","","<img src=""img/set1/S3.jpg"" width=""540"" height = ""360"" style=""border:16px solid orange"">","null","","","","","","","","","",""
"null","","html-keyboard-response","219","320164","0.0-219.0","","","null","","","","","","","","","",""
"1488.0999999940395","","image-keyboard-response","220","321654","0.0-220.0","","img/set1/S1.jpg","83","1","structured_load","83","structured_load,random,structured_normal,structured_incentive","2,3,3,4,2,1","1,2,4,3","true","","",""
"null","","html-keyboard-response","221","322011","0.0-221.0","","<img src=""img/set1/S1.jpg"" width=""540"" height = ""360"" style=""border:16px solid orange"">","null","","","","","","","","","",""
"null","","html-keyboard-response","222","322216","0.0-222.0","","","null","","","","","","","","","",""
"649.2999999970198","","image-keyboard-response","223","322866","0.0-223.0","","img/set1/S1.jpg","83","1","structured_load","83","structured_load,random,structured_normal,structured_incentive","2,3,3,4,2,1","1,2,4,3","true","","",""
"null","","html-keyboard-response","224","323225","0.0-224.0","","<img src=""img/set1/S1.jpg"" width=""540"" height = ""360"" style=""border:16px solid orange"">","null","","","","","","","","","",""
"null","","html-keyboard-response","225","323429","0.0-225.0","","","null","","","","","","","","","",""
"1108.6000000089407","","image-keyboard-response","226","324539","0.0-226.0","","img/set1/S2.jpg","68","2","structured_load","68","structured_load,random,structured_normal,structured_incentive","2,3,3,4,2,1","1,2,4,3","true","","",""
"null","","html-keyboard-response","227","324895","0.0-227.0","","<img src=""img/set1/S2.jpg"" width=""540"" height = ""360"" style=""border:16px solid orange"">","null","","","","","","","","","",""
"null","","html-keyboard-response","228","325100","0.0-228.0","","","null","","","","","","","","","",""
"789.2999999970198","","image-keyboard-response","229","325890","0.0-229.0","","img/set1/S3.jpg","72","3","structured_load","72","structured_load,random,structured_normal,structured_incentive","2,3,3,4,2,1","1,2,4,3","true","","",""
"null","","html-keyboard-response","230","326248","0.0-230.0","","<img src=""img/set1/S3.jpg"" width=""540"" height = ""360"" style=""border:16px solid orange"">","null","","","","","","","","","",""
"null","","html-keyboard-response","231","326453","0.0-231.0","","","null","","","","","","","","","",""
"787.5999999940395","","image-keyboard-response","232","327242","0.0-232.0","","img/set1/S4.jpg","74","4","structured_load","74","structured_load,random,structured_normal,structured_incentive","2,3,3,4,2,1","1,2,4,3","true","","",""
"null","","html-keyboard-response","233","327609","0.0-233.0","","<img src=""img/set1/S4.jpg"" width=""540"" height = ""360"" style=""border:16px solid orange"">","null","","","","","","","","","",""
"null","","html-keyboard-response","234","327813","0.0-234.0","","","null","","","","","","","","","",""
"988.1000000089407","","image-keyboard-response","235","328803","0.0-235.0","","img/set1/S1.jpg","83","1","structured_load","83","structured_load,random,structured_normal,structured_incentive","2,3,3,4,2,1","1,2,4,3","true","","",""
"null","","html-keyboard-response","236","329168","0.0-236.0","","<img src=""img/set1/S1.jpg"" width=""540"" height = ""360"" style=""border:16px solid orange"">","null","","","","","","","","","",""
"null","","html-keyboard-response","237","329373","0.0-237.0","","","null","","","","","","","","","",""
"612.2999999970198","","image-keyboard-response","238","329987","0.0-238.0","","img/set1/S1.jpg","83","1","structured_load","83","structured_load,random,structured_normal,structured_incentive","2,3,3,4,2,1","1,2,4,3","true","","",""
"null","","html-keyboard-response","239","330348","0.0-239.0","","<img src=""img/set1/S1.jpg"" width=""540"" height = ""360"" style=""border:16px solid orange"">","null","","","","","","","","","",""
"null","","html-keyboard-response","240","330554","0.0-240.0","","","null","","","","","","","","","",""
"638.3000000119209","","image-keyboard-response","241","331194","0.0-241.0","","img/set1/S1.jpg","83","1","structured_load","83","structured_load,random,structured_normal,structured_incentive","2,3,3,4,2,1","1,2,4,3","true","","",""
"null","","html-keyboard-response","242","331559","0.0-242.0","","<img src=""img/set1/S1.jpg"" width=""540"" height = ""360"" style=""border:16px solid orange"">","null","","","","","","","","","",""
"null","","html-keyboard-response","243","331763","0.0-243.0","","","null","","","","","","","","","",""
"519","","image-keyboard-response","244","332283","0.0-244.0","","img/set1/S1.jpg","83","1","structured_load","83","structured_load,random,structured_normal,structured_incentive","2,3,3,4,2,1","1,2,4,3","true","","",""
"null","","html-keyboard-response","245","332636","0.0-245.0","","<img src=""img/set1/S1.jpg"" width=""540"" height = ""360"" style=""border:16px solid orange"">","null","","","","","","","","","",""
"null","","html-keyboard-response","246","332842","0.0-246.0","","","null","","","","","","","","","",""
"671.2999999970198","","image-keyboard-response","247","333515","0.0-247.0","","img/set1/S4.jpg","74","4","structured_load","74","structured_load,random,structured_normal,structured_incentive","2,3,3,4,2,1","1,2,4,3","true","","",""
"null","","html-keyboard-response","248","333881","0.0-248.0","","<img src=""img/set1/S4.jpg"" width=""540"" height = ""360"" style=""border:16px solid orange"">","null","","","","","","","","","",""
"null","","html-keyboard-response","249","334084","0.0-249.0","","","null","","","","","","","","","",""
"861.2999999970198","","image-keyboard-response","250","334947","0.0-250.0","","img/set1/S2.jpg","68","2","structured_load","68","structured_load,random,structured_normal,structured_incentive","2,3,3,4,2,1","1,2,4,3","true","","",""
"null","","html-keyboard-response","251","335312","0.0-251.0","","<img src=""img/set1/S2.jpg"" width=""540"" height = ""360"" style=""border:16px solid orange"">","null","","","","","","","","","",""
"null","","html-keyboard-response","252","335518","0.0-252.0","","","null","","","","","","","","","",""
"748.0999999940395","","image-keyboard-response","253","336267","0.0-253.0","","img/set1/S3.jpg","72","3","structured_load","72","structured_load,random,structured_normal,structured_incentive","2,3,3,4,2,1","1,2,4,3","true","","",""
"null","","html-keyboard-response","254","336620","0.0-254.0","","<img src=""img/set1/S3.jpg"" width=""540"" height = ""360"" style=""border:16px solid orange"">","null","","","","","","","","","",""
"null","","html-keyboard-response","255","336824","0.0-255.0","","","null","","","","","","","","","",""
"704.5","","image-keyboard-response","256","337531","0.0-256.0","","img/set1/S4.jpg","74","4","structured_load","74","structured_load,random,structured_normal,structured_incentive","2,3,3,4,2,1","1,2,4,3","true","","",""
"null","","html-keyboard-response","257","337895","0.0-257.0","","<img src=""img/set1/S4.jpg"" width=""540"" height = ""360"" style=""border:16px solid orange"">","null","","","","","","","","","",""
"null","","html-keyboard-response","258","338098","0.0-258.0","","","null","","","","","","","","","",""
"854.9000000059605","","image-keyboard-response","259","338954","0.0-259.0","","img/set1/S1.jpg","83","1","structured_load","83","structured_load,random,structured_normal,structured_incentive","2,3,3,4,2,1","1,2,4,3","true","","",""
"null","","html-keyboard-response","260","339308","0.0-260.0","","<img src=""img/set1/S1.jpg"" width=""540"" height = ""360"" style=""border:16px solid orange"">","null","","","","","","","","","",""
"null","","html-keyboard-response","261","339511","0.0-261.0","","","null","","","","","","","","","",""
"818.2999999970198","","image-keyboard-response","262","340330","0.0-262.0","","img/set1/S2.jpg","68","2","structured_load","68","structured_load,random,structured_normal,structured_incentive","2,3,3,4,2,1","1,2,4,3","true","","",""
"null","","html-keyboard-response","263","340689","0.0-263.0","","<img src=""img/set1/S2.jpg"" width=""540"" height = ""360"" style=""border:16px solid orange"">","null","","","","","","","","","",""
"null","","html-keyboard-response","264","340894","0.0-264.0","","","null","","","","","","","","","",""
"769.8999999910593","","image-keyboard-response","265","341666","0.0-265.0","","img/set1/S3.jpg","72","3","structured_load","72","structured_load,random,structured_normal,structured_incentive","2,3,3,4,2,1","1,2,4,3","true","","",""
"null","","html-keyboard-response","266","342028","0.0-266.0","","<img src=""img/set1/S3.jpg"" width=""540"" height = ""360"" style=""border:16px solid orange"">","null","","","","","","","","","",""
"null","","html-keyboard-response","267","342235","0.0-267.0","","","null","","","","","","","","","",""
"null","","image-keyboard-response","268","344747","0.0-268.0","","img/set1/S2.jpg","null","2","structured_load","68","structured_load,random,structured_normal,structured_incentive","2,3,3,4,2,1","1,2,4,3","false","","",""
"null","","html-keyboard-response","269","345099","0.0-269.0","","<img src=""img/set1/S2.jpg"" width=""540"" height = ""360"">","null","","","","","","","","","",""
"null","","html-keyboard-response","270","345311","0.0-270.0","","","null","","","","","","","","","",""
"780","","image-keyboard-response","271","346093","0.0-271.0","","img/set1/S3.jpg","68","3","structured_load","72","structured_load,random,structured_normal,structured_incentive","2,3,3,4,2,1","1,2,4,3","false","","",""
"null","","html-keyboard-response","272","346457","0.0-272.0","","<img src=""img/set1/S3.jpg"" width=""540"" height = ""360"">","null","","","","","","","","","",""
"null","","html-keyboard-response","273","346661","0.0-273.0","","","null","","","","","","","","","",""
"828.5","","image-keyboard-response","274","347492","0.0-274.0","","img/set1/S1.jpg","83","1","structured_load","83","structured_load,random,structured_normal,structured_incentive","2,3,3,4,2,1","1,2,4,3","true","","",""
"null","","html-keyboard-response","275","347857","0.0-275.0","","<img src=""img/set1/S1.jpg"" width=""540"" height = ""360"" style=""border:16px solid orange"">","null","","","","","","","","","",""
"null","","html-keyboard-response","276","348072","0.0-276.0","","","null","","","","","","","","","",""
"657","","image-keyboard-response","277","348731","0.0-277.0","","img/set1/S4.jpg","74","4","structured_load","74","structured_load,random,structured_normal,structured_incentive","2,3,3,4,2,1","1,2,4,3","true","","",""
"null","","html-keyboard-response","278","349096","0.0-278.0","","<img src=""img/set1/S4.jpg"" width=""540"" height = ""360"" style=""border:16px solid orange"">","null","","","","","","","","","",""
"null","","html-keyboard-response","279","349299","0.0-279.0","","","null","","","","","","","","","",""
"805.9000000059605","","image-keyboard-response","280","350106","0.0-280.0","","img/set1/S2.jpg","83","2","structured_load","68","structured_load,random,structured_normal,structured_incentive","2,3,3,4,2,1","1,2,4,3","false","","",""
"null","","html-keyboard-response","281","350463","0.0-281.0","","<img src=""img/set1/S2.jpg"" width=""540"" height = ""360"">","null","","","","","","","","","",""
"null","","html-keyboard-response","282","350668","0.0-282.0","","","null","","","","","","","","","",""
"780.1999999880791","","image-keyboard-response","283","351450","0.0-283.0","","img/set1/S3.jpg","72","3","structured_load","72","structured_load,random,structured_normal,structured_incentive","2,3,3,4,2,1","1,2,4,3","true","","",""
"null","","html-keyboard-response","284","351813","0.0-284.0","","<img src=""img/set1/S3.jpg"" width=""540"" height = ""360"" style=""border:16px solid orange"">","null","","","","","","","","","",""
"null","","html-keyboard-response","285","352017","0.0-285.0","","","null","","","","","","","","","",""
"1184","","image-keyboard-response","286","353202","0.0-286.0","","img/set1/S2.jpg","68","2","structured_load","68","structured_load,random,structured_normal,structured_incentive","2,3,3,4,2,1","1,2,4,3","true","","",""
"null","","html-keyboard-response","287","353558","0.0-287.0","","<img src=""img/set1/S2.jpg"" width=""540"" height = ""360"" style=""border:16px solid orange"">","null","","","","","","","","","",""
"null","","html-keyboard-response","288","353763","0.0-288.0","","","null","","","","","","","","","",""
"687.2999999970198","","image-keyboard-response","289","354451","0.0-289.0","","img/set1/S3.jpg","74","3","structured_load","72","structured_load,random,structured_normal,structured_incentive","2,3,3,4,2,1","1,2,4,3","false","","",""
"null","","html-keyboard-response","290","354817","0.0-290.0","","<img src=""img/set1/S3.jpg"" width=""540"" height = ""360"">","null","","","","","","","","","",""
"null","","html-keyboard-response","291","355021","0.0-291.0","","","null","","","","","","","","","",""
"797.2000000029802","","image-keyboard-response","292","355819","0.0-292.0","","img/set1/S1.jpg","83","1","structured_load","83","structured_load,random,structured_normal,structured_incentive","2,3,3,4,2,1","1,2,4,3","true","","",""
"null","","html-keyboard-response","293","356183","0.0-293.0","","<img src=""img/set1/S1.jpg"" width=""540"" height = ""360"" style=""border:16px solid orange"">","null","","","","","","","","","",""
"null","","html-keyboard-response","294","356385","0.0-294.0","","","null","","","","","","","","","",""
"615.5","","image-keyboard-response","295","357002","0.0-295.0","","img/set1/S4.jpg","74","4","structured_load","74","structured_load,random,structured_normal,structured_incentive","2,3,3,4,2,1","1,2,4,3","true","","",""
"null","","html-keyboard-response","296","357362","0.0-296.0","","<img src=""img/set1/S4.jpg"" width=""540"" height = ""360"" style=""border:16px solid orange"">","null","","","","","","","","","",""
"null","","html-keyboard-response","297","357565","0.0-297.0","","","null","","","","","","","","","",""
"1236.7999999970198","","image-keyboard-response","298","358803","0.0-298.0","","img/set1/S1.jpg","83","1","structured_load","83","structured_load,random,structured_normal,structured_incentive","2,3,3,4,2,1","1,2,4,3","true","","",""
"null","","html-keyboard-response","299","359160","0.0-299.0","","<img src=""img/set1/S1.jpg"" width=""540"" height = ""360"" style=""border:16px solid orange"">","null","","","","","","","","","",""
"null","","html-keyboard-response","300","359364","0.0-300.0","","","null","","","","","","","","","",""
"720.7999999970198","","image-keyboard-response","301","360086","0.0-301.0","","img/set1/S2.jpg","68","2","structured_load","68","structured_load,random,structured_normal,structured_incentive","2,3,3,4,2,1","1,2,4,3","true","","",""
"null","","html-keyboard-response","302","360450","0.0-302.0","","<img src=""img/set1/S2.jpg"" width=""540"" height = ""360"" style=""border:16px solid orange"">","null","","","","","","","","","",""
"null","","html-keyboard-response","303","360654","0.0-303.0","","","null","","","","","","","","","",""
"658.7000000029802","","image-keyboard-response","304","361314","0.0-304.0","","img/set1/S3.jpg","72","3","structured_load","72","structured_load,random,structured_normal,structured_incentive","2,3,3,4,2,1","1,2,4,3","true","","",""
"null","","html-keyboard-response","305","361675","0.0-305.0","","<img src=""img/set1/S3.jpg"" width=""540"" height = ""360"" style=""border:16px solid orange"">","null","","","","","","","","","",""
"null","","html-keyboard-response","306","361877","0.0-306.0","","","null","","","","","","","","","",""
"1275","","image-keyboard-response","307","363154","0.0-307.0","","img/set1/S1.jpg","83","1","structured_load","83","structured_load,random,structured_normal,structured_incentive","2,3,3,4,2,1","1,2,4,3","true","","",""
"null","","html-keyboard-response","308","363513","0.0-308.0","","<img src=""img/set1/S1.jpg"" width=""540"" height = ""360"" style=""border:16px solid orange"">","null","","","","","","","","","",""
"null","","html-keyboard-response","309","363718","0.0-309.0","","","null","","","","","","","","","",""
"490.5","","image-keyboard-response","310","364210","0.0-310.0","","img/set1/S1.jpg","83","1","structured_load","83","structured_load,random,structured_normal,structured_incentive","2,3,3,4,2,1","1,2,4,3","true","","",""
"null","","html-keyboard-response","311","364565","0.0-311.0","","<img src=""img/set1/S1.jpg"" width=""540"" height = ""360"" style=""border:16px solid orange"">","null","","","","","","","","","",""
"null","","html-keyboard-response","312","364767","0.0-312.0","","","null","","","","","","","","","",""
"1250.7000000029802","","image-keyboard-response","313","366019","0.0-313.0","","img/set1/S2.jpg","68","2","structured_load","68","structured_load,random,structured_normal,structured_incentive","2,3,3,4,2,1","1,2,4,3","true","","",""
"null","","html-keyboard-response","314","366380","0.0-314.0","","<img src=""img/set1/S2.jpg"" width=""540"" height = ""360"" style=""border:16px solid orange"">","null","","","","","","","","","",""
"null","","html-keyboard-response","315","366585","0.0-315.0","","","null","","","","","","","","","",""
"136.90000000596046","","image-keyboard-response","316","366723","0.0-316.0","","img/set1/S3.jpg","72","3","structured_load","72","structured_load,random,structured_normal,structured_incentive","2,3,3,4,2,1","1,2,4,3","true","","",""
"null","","html-keyboard-response","317","367087","0.0-317.0","","<img src=""img/set1/S3.jpg"" width=""540"" height = ""360"" style=""border:16px solid orange"">","null","","","","","","","","","",""
"null","","html-keyboard-response","318","367292","0.0-318.0","","","null","","","","","","","","","",""
"101.5","","image-keyboard-response","319","367395","0.0-319.0","","img/set1/S4.jpg","83","4","structured_load","74","structured_load,random,structured_normal,structured_incentive","2,3,3,4,2,1","1,2,4,3","false","","",""
"null","","html-keyboard-response","320","367752","0.0-320.0","","<img src=""img/set1/S4.jpg"" width=""540"" height = ""360"">","null","","","","","","","","","",""
"null","","html-keyboard-response","321","367955","0.0-321.0","","","null","","","","","","","","","",""
"38.5","","image-keyboard-response","322","367995","0.0-322.0","","img/set1/S4.jpg","74","4","structured_load","74","structured_load,random,structured_normal,structured_incentive","2,3,3,4,2,1","1,2,4,3","true","","",""
"null","","html-keyboard-response","323","368360","0.0-323.0","","<img src=""img/set1/S4.jpg"" width=""540"" height = ""360"" style=""border:16px solid orange"">","null","","","","","","","","","",""
"null","","html-keyboard-response","324","368565","0.0-324.0","","","null","","","","","","","","","",""
"204","","image-keyboard-response","325","368770","0.0-325.0","","img/set1/S1.jpg","83","1","structured_load","83","structured_load,random,structured_normal,structured_incentive","2,3,3,4,2,1","1,2,4,3","true","","",""
"null","","html-keyboard-response","326","369131","0.0-326.0","","<img src=""img/set1/S1.jpg"" width=""540"" height = ""360"" style=""border:16px solid orange"">","null","","","","","","","","","",""
"null","","html-keyboard-response","327","369336","0.0-327.0","","","null","","","","","","","","","",""
"41.29999999701977","","image-keyboard-response","328","369379","0.0-328.0","","img/set1/S2.jpg","72","2","structured_load","68","structured_load,random,structured_normal,structured_incentive","2,3,3,4,2,1","1,2,4,3","false","","",""
"null","","html-keyboard-response","329","369743","0.0-329.0","","<img src=""img/set1/S2.jpg"" width=""540"" height = ""360"">","null","","","","","","","","","",""
"null","","html-keyboard-response","330","369946","0.0-330.0","","","null","","","","","","","","","",""
"55.70000000298023","","image-keyboard-response","331","370003","0.0-331.0","","img/set1/S3.jpg","74","3","structured_load","72","structured_load,random,structured_normal,structured_incentive","2,3,3,4,2,1","1,2,4,3","false","","",""
"null","","html-keyboard-response","332","370358","0.0-332.0","","<img src=""img/set1/S3.jpg"" width=""540"" height = ""360"">","null","","","","","","","","","",""
"null","","html-keyboard-response","333","370563","0.0-333.0","","","null","","","","","","","","","",""
"78.29999999701977","","image-keyboard-response","334","370643","0.0-334.0","","img/set1/S1.jpg","68","1","structured_load","83","structured_load,random,structured_normal,structured_incentive","2,3,3,4,2,1","1,2,4,3","false","","",""
"null","","html-keyboard-response","335","371007","0.0-335.0","","<img src=""img/set1/S1.jpg"" width=""540"" height = ""360"">","null","","","","","","","","","",""
"null","","html-keyboard-response","336","371211","0.0-336.0","","","null","","","","","","","","","",""
"69.8999999910593","","image-keyboard-response","337","371282","0.0-337.0","","img/set1/S2.jpg","74","2","structured_load","68","structured_load,random,structured_normal,structured_incentive","2,3,3,4,2,1","1,2,4,3","false","","",""
"null","","html-keyboard-response","338","371649","0.0-338.0","","<img src=""img/set1/S2.jpg"" width=""540"" height = ""360"">","null","","","","","","","","","",""
"null","","html-keyboard-response","339","371851","0.0-339.0","","","null","","","","","","","","","",""
"14.599999994039536","","image-keyboard-response","340","371867","0.0-340.0","","img/set1/S3.jpg","68","3","structured_load","72","structured_load,random,structured_normal,structured_incentive","2,3,3,4,2,1","1,2,4,3","false","","",""
"null","","html-keyboard-response","341","372226","0.0-341.0","","<img src=""img/set1/S3.jpg"" width=""540"" height = ""360"">","null","","","","","","","","","",""
"null","","html-keyboard-response","342","372436","0.0-342.0","","","null","","","","","","","","","",""
"29.299999997019768","","image-keyboard-response","343","372467","0.0-343.0","","img/set1/S1.jpg","74","1","structured_load","83","structured_load,random,structured_normal,structured_incentive","2,3,3,4,2,1","1,2,4,3","false","","",""
"null","","html-keyboard-response","344","372826","0.0-344.0","","<img src=""img/set1/S1.jpg"" width=""540"" height = ""360"">","null","","","","","","","","","",""
"null","","html-keyboard-response","345","373030","0.0-345.0","","","null","","","","","","","","","",""
"11.600000008940697","","image-keyboard-response","346","373042","0.0-346.0","","img/set1/S4.jpg","83","4","structured_load","74","structured_load,random,structured_normal,structured_incentive","2,3,3,4,2,1","1,2,4,3","false","","",""
"null","","html-keyboard-response","347","373408","0.0-347.0","","<img src=""img/set1/S4.jpg"" width=""540"" height = ""360"">","null","","","","","","","","","",""
"null","","html-keyboard-response","348","373613","0.0-348.0","","","null","","","","","","","","","",""
"980.6000000089407","","image-keyboard-response","349","374595","0.0-349.0","","img/set1/S1.jpg","83","1","structured_load","83","structured_load,random,structured_normal,structured_incentive","2,3,3,4,2,1","1,2,4,3","true","","",""
"null","","html-keyboard-response","350","374950","0.0-350.0","","<img src=""img/set1/S1.jpg"" width=""540"" height = ""360"" style=""border:16px solid orange"">","null","","","","","","","","","",""
"null","","html-keyboard-response","351","375157","0.0-351.0","","","null","","","","","","","","","",""
"420.3999999910593","","image-keyboard-response","352","375579","0.0-352.0","","img/set1/S1.jpg","83","1","structured_load","83","structured_load,random,structured_normal,structured_incentive","2,3,3,4,2,1","1,2,4,3","true","","",""
"null","","html-keyboard-response","353","375939","0.0-353.0","","<img src=""img/set1/S1.jpg"" width=""540"" height = ""360"" style=""border:16px solid orange"">","null","","","","","","","","","",""
"null","","html-keyboard-response","354","376141","0.0-354.0","","","null","","","","","","","","","",""
"788.7000000029802","","image-keyboard-response","355","376930","0.0-355.0","","img/set1/S2.jpg","68","2","structured_load","68","structured_load,random,structured_normal,structured_incentive","2,3,3,4,2,1","1,2,4,3","true","","",""
"null","","html-keyboard-response","356","377297","0.0-356.0","","<img src=""img/set1/S2.jpg"" width=""540"" height = ""360"" style=""border:16px solid orange"">","null","","","","","","","","","",""
"null","","html-keyboard-response","357","377499","0.0-357.0","","","null","","","","","","","","","",""
"804.1999999880791","","image-keyboard-response","358","378305","0.0-358.0","","img/set1/S3.jpg","72","3","structured_load","72","structured_load,random,structured_normal,structured_incentive","2,3,3,4,2,1","1,2,4,3","true","","",""
"null","","html-keyboard-response","359","378667","0.0-359.0","","<img src=""img/set1/S3.jpg"" width=""540"" height = ""360"" style=""border:16px solid orange"">","null","","","","","","","","","",""
"null","","html-keyboard-response","360","378883","0.0-360.0","","","null","","","","","","","","","",""
"631.1000000089407","","image-keyboard-response","361","379515","0.0-361.0","","img/set1/S4.jpg","74","4","structured_load","74","structured_load,random,structured_normal,structured_incentive","2,3,3,4,2,1","1,2,4,3","true","","",""
"null","","html-keyboard-response","362","379869","0.0-362.0","","<img src=""img/set1/S4.jpg"" width=""540"" height = ""360"" style=""border:16px solid orange"">","null","","","","","","","","","",""
"null","","html-keyboard-response","363","380075","0.0-363.0","","","null","","","","","","","","","",""
"718876.099999994","","survey-multi-choice","364","1098955","0.0-364.0","","","","","","","","","","","{""Q0"":""Picture A""}","[0]",""
"3870.2999999970198","","html-keyboard-response","365","1102826","0.0-365.0","","<p class=""center-content"">Underfortunately, the answer you selected was incorrect. </p><p class=""center-content"">Please press any key to continue. </p>","32","","","","","","","","","",""
"4336.0999999940395","","html-keyboard-response","366","1107163","0.0-366.0","","<p class=""center-content"">You have completed a block! </p><p class=""center-content"">Press any key on the keyboard to continue, </p><p class=""center-content"">or wait for the automatic progression to the next block after one minute.</p>","32","","","","","","","","","",""
"5412.899999991059","","instructions","367","1112576","0.0-367.0","[{""page_index"":0,""viewing_time"":5412.70000000298}]","","","","","","","","","","","",""
"3855.2999999970198","","instructions","368","1116432","0.0-368.0","[{""page_index"":0,""viewing_time"":3855.2000000029802}]","","","","","","","","","","","",""
"2026.0999999940395","","image-keyboard-response","369","1118459","0.0-369.0","","img/set2/S3.jpg","83","3","random","72","structured_load,random,structured_normal,structured_incentive","2,3,3,4,2,1","1,2,4,3","false","","",""
"null","","html-keyboard-response","370","1118812","0.0-370.0","","<img src=""img/set2/S3.jpg"" width=""540"" height = ""360"">","null","","","","","","","","","",""
"null","","html-keyboard-response","371","1119017","0.0-371.0","","","null","","","","","","","","","",""
"1328.7000000029802","","image-keyboard-response","372","1120348","0.0-372.0","","img/set2/S3.jpg","68","3","random","72","structured_load,random,structured_normal,structured_incentive","2,3,3,4,2,1","1,2,4,3","false","","",""
"null","","html-keyboard-response","373","1120714","0.0-373.0","","<img src=""img/set2/S3.jpg"" width=""540"" height = ""360"">","null","","","","","","","","","",""
"null","","html-keyboard-response","374","1120915","0.0-374.0","","","null","","","","","","","","","",""
"1382.4000000059605","","image-keyboard-response","375","1122298","0.0-375.0","","img/set2/S4.jpg","72","4","random","74","structured_load,random,structured_normal,structured_incentive","2,3,3,4,2,1","1,2,4,3","false","","",""
"null","","html-keyboard-response","376","1122661","0.0-376.0","","<img src=""img/set2/S4.jpg"" width=""540"" height = ""360"">","null","","","","","","","","","",""
"null","","html-keyboard-response","377","1122866","0.0-377.0","","","null","","","","","","","","","",""
"639.5999999940395","","image-keyboard-response","378","1123507","0.0-378.0","","img/set2/S1.jpg","74","1","random","83","structured_load,random,structured_normal,structured_incentive","2,3,3,4,2,1","1,2,4,3","false","","",""
"null","","html-keyboard-response","379","1123861","0.0-379.0","","<img src=""img/set2/S1.jpg"" width=""540"" height = ""360"">","null","","","","","","","","","",""
"null","","html-keyboard-response","380","1124064","0.0-380.0","","","null","","","","","","","","","",""
"880.4000000059605","","image-keyboard-response","381","1124946","0.0-381.0","","img/set2/S4.jpg","83","4","random","74","structured_load,random,structured_normal,structured_incentive","2,3,3,4,2,1","1,2,4,3","false","","",""
"null","","html-keyboard-response","382","1125297","0.0-382.0","","<img src=""img/set2/S4.jpg"" width=""540"" height = ""360"">","null","","","","","","","","","",""
"null","","html-keyboard-response","383","1125500","0.0-383.0","","","null","","","","","","","","","",""
"1286.2999999970198","","image-keyboard-response","384","1126788","0.0-384.0","","img/set2/S1.jpg","68","1","random","83","structured_load,random,structured_normal,structured_incentive","2,3,3,4,2,1","1,2,4,3","false","","",""
"null","","html-keyboard-response","385","1127148","0.0-385.0","","<img src=""img/set2/S1.jpg"" width=""540"" height = ""360"">","null","","","","","","","","","",""
"null","","html-keyboard-response","386","1127353","0.0-386.0","","","null","","","","","","","","","",""
"1784.5","","image-keyboard-response","387","1129138","0.0-387.0","","img/set2/S1.jpg","72","1","random","83","structured_load,random,structured_normal,structured_incentive","2,3,3,4,2,1","1,2,4,3","false","","",""
"null","","html-keyboard-response","388","1129491","0.0-388.0","","<img src=""img/set2/S1.jpg"" width=""540"" height = ""360"">","null","","","","","","","","","",""
"null","","html-keyboard-response","389","1129693","0.0-389.0","","","null","","","","","","","","","",""
"868.5999999940395","","image-keyboard-response","390","1130563","0.0-390.0","","img/set2/S1.jpg","74","1","random","83","structured_load,random,structured_normal,structured_incentive","2,3,3,4,2,1","1,2,4,3","false","","",""
"null","","html-keyboard-response","391","1130923","0.0-391.0","","<img src=""img/set2/S1.jpg"" width=""540"" height = ""360"">","null","","","","","","","","","",""
"null","","html-keyboard-response","392","1131127","0.0-392.0","","","null","","","","","","","","","",""
"null","","image-keyboard-response","393","1133643","0.0-393.0","","img/set2/S4.jpg","null","4","random","74","structured_load,random,structured_normal,structured_incentive","2,3,3,4,2,1","1,2,4,3","false","","",""
"null","","html-keyboard-response","394","1134000","0.0-394.0","","<img src=""img/set2/S4.jpg"" width=""540"" height = ""360"">","null","","","","","","","","","",""
"null","","html-keyboard-response","395","1134202","0.0-395.0","","","null","","","","","","","","","",""
"943.5","","image-keyboard-response","396","1135148","0.0-396.0","","img/set2/S1.jpg","72","1","random","83","structured_load,random,structured_normal,structured_incentive","2,3,3,4,2,1","1,2,4,3","false","","",""
"null","","html-keyboard-response","397","1135510","0.0-397.0","","<img src=""img/set2/S1.jpg"" width=""540"" height = ""360"">","null","","","","","","","","","",""
"null","","html-keyboard-response","398","1135715","0.0-398.0","","","null","","","","","","","","","",""
"86.20000000298023","","image-keyboard-response","399","1135802","0.0-399.0","","img/set2/S1.jpg","83","1","random","83","structured_load,random,structured_normal,structured_incentive","2,3,3,4,2,1","1,2,4,3","true","","",""
"null","","html-keyboard-response","400","1136165","0.0-400.0","","<img src=""img/set2/S1.jpg"" width=""540"" height = ""360"" style=""border:16px solid orange"">","null","","","","","","","","","",""
"null","","html-keyboard-response","401","1136369","0.0-401.0","","","null","","","","","","","","","",""
"263.59999999403954","","image-keyboard-response","402","1136634","0.0-402.0","","img/set2/S3.jpg","68","3","random","72","structured_load,random,structured_normal,structured_incentive","2,3,3,4,2,1","1,2,4,3","false","","",""
"null","","html-keyboard-response","403","1136994","0.0-403.0","","<img src=""img/set2/S3.jpg"" width=""540"" height = ""360"">","null","","","","","","","","","",""
"null","","html-keyboard-response","404","1137199","0.0-404.0","","","null","","","","","","","","","",""
"18.700000002980232","","image-keyboard-response","405","1137218","0.0-405.0","","img/set2/S4.jpg","72","4","random","74","structured_load,random,structured_normal,structured_incentive","2,3,3,4,2,1","1,2,4,3","false","","",""
"null","","html-keyboard-response","406","1137577","0.0-406.0","","<img src=""img/set2/S4.jpg"" width=""540"" height = ""360"">","null","","","","","","","","","",""
"null","","html-keyboard-response","407","1137793","0.0-407.0","","","null","","","","","","","","","",""
"112.69999998807907","","image-keyboard-response","408","1137907","0.0-408.0","","img/set2/S2.jpg","74","2","random","68","structured_load,random,structured_normal,structured_incentive","2,3,3,4,2,1","1,2,4,3","false","","",""
"null","","html-keyboard-response","409","1138260","0.0-409.0","","<img src=""img/set2/S2.jpg"" width=""540"" height = ""360"">","null","","","","","","","","","",""
"null","","html-keyboard-response","410","1138475","0.0-410.0","","","null","","","","","","","","","",""
"38.599999994039536","","image-keyboard-response","411","1138514","0.0-411.0","","img/set2/S1.jpg","72","1","random","83","structured_load,random,structured_normal,structured_incentive","2,3,3,4,2,1","1,2,4,3","false","","",""
"null","","html-keyboard-response","412","1138881","0.0-412.0","","<img src=""img/set2/S1.jpg"" width=""540"" height = ""360"">","null","","","","","","","","","",""
"null","","html-keyboard-response","413","1139083","0.0-413.0","","","null","","","","","","","","","",""
"22.899999991059303","","image-keyboard-response","414","1139108","0.0-414.0","","img/set2/S4.jpg","83","4","random","74","structured_load,random,structured_normal,structured_incentive","2,3,3,4,2,1","1,2,4,3","false","","",""
"null","","html-keyboard-response","415","1139472","0.0-415.0","","<img src=""img/set2/S4.jpg"" width=""540"" height = ""360"">","null","","","","","","","","","",""
"null","","html-keyboard-response","416","1139675","0.0-416.0","","","null","","","","","","","","","",""
"14.900000005960464","","image-keyboard-response","417","1139692","0.0-417.0","","img/set2/S1.jpg","74","1","random","83","structured_load,random,structured_normal,structured_incentive","2,3,3,4,2,1","1,2,4,3","false","","",""
"null","","html-keyboard-response","418","1140049","0.0-418.0","","<img src=""img/set2/S1.jpg"" width=""540"" height = ""360"">","null","","","","","","","","","",""
"null","","html-keyboard-response","419","1140251","0.0-419.0","","","null","","","","","","","","","",""
"14.100000008940697","","image-keyboard-response","420","1140268","0.0-420.0","","img/set2/S4.jpg","74","4","random","74","structured_load,random,structured_normal,structured_incentive","2,3,3,4,2,1","1,2,4,3","true","","",""
"null","","html-keyboard-response","421","1140627","0.0-421.0","","<img src=""img/set2/S4.jpg"" width=""540"" height = ""360"" style=""border:16px solid orange"">","null","","","","","","","","","",""
"null","","html-keyboard-response","422","1140829","0.0-422.0","","","null","","","","","","","","","",""
"189.29999999701977","","image-keyboard-response","423","1141020","0.0-423.0","","img/set2/S1.jpg","74","1","random","83","structured_load,random,structured_normal,structured_incentive","2,3,3,4,2,1","1,2,4,3","false","","",""
"null","","html-keyboard-response","424","1141379","0.0-424.0","","<img src=""img/set2/S1.jpg"" width=""540"" height = ""360"">","null","","","","","","","","","",""
"null","","html-keyboard-response","425","1141581","0.0-425.0","","","null","","","","","","","","","",""
"68.09999999403954","","image-keyboard-response","426","1141650","0.0-426.0","","img/set2/S1.jpg","72","1","random","83","structured_load,random,structured_normal,structured_incentive","2,3,3,4,2,1","1,2,4,3","false","","",""
"null","","html-keyboard-response","427","1142016","0.0-427.0","","<img src=""img/set2/S1.jpg"" width=""540"" height = ""360"">","null","","","","","","","","","",""
"null","","html-keyboard-response","428","1142219","0.0-428.0","","","null","","","","","","","","","",""
"142.20000000298023","","image-keyboard-response","429","1142362","0.0-429.0","","img/set2/S3.jpg","72","3","random","72","structured_load,random,structured_normal,structured_incentive","2,3,3,4,2,1","1,2,4,3","true","","",""
"null","","html-keyboard-response","430","1142720","0.0-430.0","","<img src=""img/set2/S3.jpg"" width=""540"" height = ""360"" style=""border:16px solid orange"">","null","","","","","","","","","",""
"null","","html-keyboard-response","431","1142922","0.0-431.0","","","null","","","","","","","","","",""
"1295.2000000029802","","image-keyboard-response","432","1144219","0.0-432.0","","img/set2/S3.jpg","72","3","random","72","structured_load,random,structured_normal,structured_incentive","2,3,3,4,2,1","1,2,4,3","true","","",""
"null","","html-keyboard-response","433","1144574","0.0-433.0","","<img src=""img/set2/S3.jpg"" width=""540"" height = ""360"" style=""border:16px solid orange"">","null","","","","","","","","","",""
"null","","html-keyboard-response","434","1144778","0.0-434.0","","","null","","","","","","","","","",""
"695.7000000029802","","image-keyboard-response","435","1145476","0.0-435.0","","img/set2/S2.jpg","74","2","random","68","structured_load,random,structured_normal,structured_incentive","2,3,3,4,2,1","1,2,4,3","false","","",""
"null","","html-keyboard-response","436","1145835","0.0-436.0","","<img src=""img/set2/S2.jpg"" width=""540"" height = ""360"">","null","","","","","","","","","",""
"null","","html-keyboard-response","437","1146036","0.0-437.0","","","null","","","","","","","","","",""
"773.2000000029802","","image-keyboard-response","438","1146812","0.0-438.0","","img/set2/S3.jpg","72","3","random","72","structured_load,random,structured_normal,structured_incentive","2,3,3,4,2,1","1,2,4,3","true","","",""
"null","","html-keyboard-response","439","1147177","0.0-439.0","","<img src=""img/set2/S3.jpg"" width=""540"" height = ""360"" style=""border:16px solid orange"">","null","","","","","","","","","",""
"null","","html-keyboard-response","440","1147379","0.0-440.0","","","null","","","","","","","","","",""
"453.5","","image-keyboard-response","441","1147834","0.0-441.0","","img/set2/S3.jpg","72","3","random","72","structured_load,random,structured_normal,structured_incentive","2,3,3,4,2,1","1,2,4,3","true","","",""
"null","","html-keyboard-response","442","1148188","0.0-442.0","","<img src=""img/set2/S3.jpg"" width=""540"" height = ""360"" style=""border:16px solid orange"">","null","","","","","","","","","",""
"null","","html-keyboard-response","443","1148404","0.0-443.0","","","null","","","","","","","","","",""
"1302.2999999970198","","image-keyboard-response","444","1149708","0.0-444.0","","img/set2/S1.jpg","68","1","random","83","structured_load,random,structured_normal,structured_incentive","2,3,3,4,2,1","1,2,4,3","false","","",""
"null","","html-keyboard-response","445","1150070","0.0-445.0","","<img src=""img/set2/S1.jpg"" width=""540"" height = ""360"">","null","","","","","","","","","",""
"null","","html-keyboard-response","446","1150273","0.0-446.0","","","null","","","","","","","","","",""
"633","","image-keyboard-response","447","1150907","0.0-447.0","","img/set2/S1.jpg","83","1","random","83","structured_load,random,structured_normal,structured_incentive","2,3,3,4,2,1","1,2,4,3","true","","",""
"null","","html-keyboard-response","448","1151270","0.0-448.0","","<img src=""img/set2/S1.jpg"" width=""540"" height = ""360"" style=""border:16px solid orange"">","null","","","","","","","","","",""
"null","","html-keyboard-response","449","1151474","0.0-449.0","","","null","","","","","","","","","",""
"1023.7000000029802","","image-keyboard-response","450","1152499","0.0-450.0","","img/set2/S3.jpg","72","3","random","72","structured_load,random,structured_normal,structured_incentive","2,3,3,4,2,1","1,2,4,3","true","","",""
"null","","html-keyboard-response","451","1152864","0.0-451.0","","<img src=""img/set2/S3.jpg"" width=""540"" height = ""360"" style=""border:16px solid orange"">","null","","","","","","","","","",""
"null","","html-keyboard-response","452","1153066","0.0-452.0","","","null","","","","","","","","","",""
"560.1999999880791","","image-keyboard-response","453","1153628","0.0-453.0","","img/set2/S3.jpg","72","3","random","72","structured_load,random,structured_normal,structured_incentive","2,3,3,4,2,1","1,2,4,3","true","","",""
"null","","html-keyboard-response","454","1153988","0.0-454.0","","<img src=""img/set2/S3.jpg"" width=""540"" height = ""360"" style=""border:16px solid orange"">","null","","","","","","","","","",""
"null","","html-keyboard-response","455","1154205","0.0-455.0","","","null","","","","","","","","","",""
"517.2000000029802","","image-keyboard-response","456","1154724","0.0-456.0","","img/set2/S1.jpg","83","1","random","83","structured_load,random,structured_normal,structured_incentive","2,3,3,4,2,1","1,2,4,3","true","","",""
"null","","html-keyboard-response","457","1155081","0.0-457.0","","<img src=""img/set2/S1.jpg"" width=""540"" height = ""360"" style=""border:16px solid orange"">","null","","","","","","","","","",""
"null","","html-keyboard-response","458","1155285","0.0-458.0","","","null","","","","","","","","","",""
"1293.199999988079","","image-keyboard-response","459","1156580","0.0-459.0","","img/set2/S4.jpg","68","4","random","74","structured_load,random,structured_normal,structured_incentive","2,3,3,4,2,1","1,2,4,3","false","","",""
"null","","html-keyboard-response","460","1156940","0.0-460.0","","<img src=""img/set2/S4.jpg"" width=""540"" height = ""360"">","null","","","","","","","","","",""
"null","","html-keyboard-response","461","1157146","0.0-461.0","","","null","","","","","","","","","",""
"1504.5","","image-keyboard-response","462","1158652","0.0-462.0","","img/set2/S2.jpg","68","2","random","68","structured_load,random,structured_normal,structured_incentive","2,3,3,4,2,1","1,2,4,3","true","","",""
"null","","html-keyboard-response","463","1159006","0.0-463.0","","<img src=""img/set2/S2.jpg"" width=""540"" height = ""360"" style=""border:16px solid orange"">","null","","","","","","","","","",""
"null","","html-keyboard-response","464","1159209","0.0-464.0","","","null","","","","","","","","","",""
"952.5","","image-keyboard-response","465","1160164","0.0-465.0","","img/set2/S1.jpg","83","1","random","83","structured_load,random,structured_normal,structured_incentive","2,3,3,4,2,1","1,2,4,3","true","","",""
"null","","html-keyboard-response","466","1160521","0.0-466.0","","<img src=""img/set2/S1.jpg"" width=""540"" height = ""360"" style=""border:16px solid orange"">","null","","","","","","","","","",""
"null","","html-keyboard-response","467","1160724","0.0-467.0","","","null","","","","","","","","","",""
"1270.7000000029802","","image-keyboard-response","468","1161996","0.0-468.0","","img/set2/S2.jpg","68","2","random","68","structured_load,random,structured_normal,structured_incentive","2,3,3,4,2,1","1,2,4,3","true","","",""
"null","","html-keyboard-response","469","1162353","0.0-469.0","","<img src=""img/set2/S2.jpg"" width=""540"" height = ""360"" style=""border:16px solid orange"">","null","","","","","","","","","",""
"null","","html-keyboard-response","470","1162557","0.0-470.0","","","null","","","","","","","","","",""
"582","","image-keyboard-response","471","1163139","0.0-471.0","","img/set2/S3.jpg","72","3","random","72","structured_load,random,structured_normal,structured_incentive","2,3,3,4,2,1","1,2,4,3","true","","",""
"null","","html-keyboard-response","472","1163506","0.0-472.0","","<img src=""img/set2/S3.jpg"" width=""540"" height = ""360"" style=""border:16px solid orange"">","null","","","","","","","","","",""
"null","","html-keyboard-response","473","1163711","0.0-473.0","","","null","","","","","","","","","",""
"843.3000000119209","","image-keyboard-response","474","1164555","0.0-474.0","","img/set2/S1.jpg","83","1","random","83","structured_load,random,structured_normal,structured_incentive","2,3,3,4,2,1","1,2,4,3","true","","",""
"null","","html-keyboard-response","475","1164907","0.0-475.0","","<img src=""img/set2/S1.jpg"" width=""540"" height = ""360"" style=""border:16px solid orange"">","null","","","","","","","","","",""
"null","","html-keyboard-response","476","1165124","0.0-476.0","","","null","","","","","","","","","",""
"1038.2000000029802","","image-keyboard-response","477","1166163","0.0-477.0","","img/set2/S2.jpg","72","2","random","68","structured_load,random,structured_normal,structured_incentive","2,3,3,4,2,1","1,2,4,3","false","","",""
"null","","html-keyboard-response","478","1166519","0.0-478.0","","<img src=""img/set2/S2.jpg"" width=""540"" height = ""360"">","null","","","","","","","","","",""
"null","","html-keyboard-response","479","1166723","0.0-479.0","","","null","","","","","","","","","",""
"847.4000000059605","","image-keyboard-response","480","1167572","0.0-480.0","","img/set2/S2.jpg","68","2","random","68","structured_load,random,structured_normal,structured_incentive","2,3,3,4,2,1","1,2,4,3","true","","",""
"null","","html-keyboard-response","481","1167928","0.0-481.0","","<img src=""img/set2/S2.jpg"" width=""540"" height = ""360"" style=""border:16px solid orange"">","null","","","","","","","","","",""
"null","","html-keyboard-response","482","1168145","0.0-482.0","","","null","","","","","","","","","",""
"856.5","","image-keyboard-response","483","1169002","0.0-483.0","","img/set2/S4.jpg","74","4","random","74","structured_load,random,structured_normal,structured_incentive","2,3,3,4,2,1","1,2,4,3","true","","",""
"null","","html-keyboard-response","484","1169359","0.0-484.0","","<img src=""img/set2/S4.jpg"" width=""540"" height = ""360"" style=""border:16px solid orange"">","null","","","","","","","","","",""
"null","","html-keyboard-response","485","1169564","0.0-485.0","","","null","","","","","","","","","",""
"989.5999999940395","","image-keyboard-response","486","1170555","0.0-486.0","","img/set2/S3.jpg","68","3","random","72","structured_load,random,structured_normal,structured_incentive","2,3,3,4,2,1","1,2,4,3","false","","",""
"null","","html-keyboard-response","487","1170921","0.0-487.0","","<img src=""img/set2/S3.jpg"" width=""540"" height = ""360"">","null","","","","","","","","","",""
"null","","html-keyboard-response","488","1171124","0.0-488.0","","","null","","","","","","","","","",""
"669.3000000119209","","image-keyboard-response","489","1171794","0.0-489.0","","img/set2/S1.jpg","68","1","random","83","structured_load,random,structured_normal,structured_incentive","2,3,3,4,2,1","1,2,4,3","false","","",""
"null","","html-keyboard-response","490","1172150","0.0-490.0","","<img src=""img/set2/S1.jpg"" width=""540"" height = ""360"">","null","","","","","","","","","",""
"null","","html-keyboard-response","491","1172351","0.0-491.0","","","null","","","","","","","","","",""
"66.5","","image-keyboard-response","492","1172419","0.0-492.0","","img/set2/S4.jpg","72","4","random","74","structured_load,random,structured_normal,structured_incentive","2,3,3,4,2,1","1,2,4,3","false","","",""
"null","","html-keyboard-response","493","1172787","0.0-493.0","","<img src=""img/set2/S4.jpg"" width=""540"" height = ""360"">","null","","","","","","","","","",""
"null","","html-keyboard-response","494","1172990","0.0-494.0","","","null","","","","","","","","","",""
"20.099999994039536","","image-keyboard-response","495","1173011","0.0-495.0","","img/set2/S4.jpg","68","4","random","74","structured_load,random,structured_normal,structured_incentive","2,3,3,4,2,1","1,2,4,3","false","","",""
"null","","html-keyboard-response","496","1173378","0.0-496.0","","<img src=""img/set2/S4.jpg"" width=""540"" height = ""360"">","null","","","","","","","","","",""
"null","","html-keyboard-response","497","1173579","0.0-497.0","","","null","","","","","","","","","",""
"7.5","","image-keyboard-response","498","1173588","0.0-498.0","","img/set2/S3.jpg","68","3","random","72","structured_load,random,structured_normal,structured_incentive","2,3,3,4,2,1","1,2,4,3","false","","",""
"null","","html-keyboard-response","499","1173987","0.0-499.0","","<img src=""img/set2/S3.jpg"" width=""540"" height = ""360"">","null","","","","","","","","","",""
"null","","html-keyboard-response","500","1174193","0.0-500.0","","","null","","","","","","","","","",""
"99","","image-keyboard-response","501","1174293","0.0-501.0","","img/set2/S1.jpg","74","1","random","83","structured_load,random,structured_normal,structured_incentive","2,3,3,4,2,1","1,2,4,3","false","","",""
"null","","html-keyboard-response","502","1174658","0.0-502.0","","<img src=""img/set2/S1.jpg"" width=""540"" height = ""360"">","null","","","","","","","","","",""
"null","","html-keyboard-response","503","1174860","0.0-503.0","","","null","","","","","","","","","",""
"13.400000005960464","","image-keyboard-response","504","1174875","0.0-504.0","","img/set2/S3.jpg","83","3","random","72","structured_load,random,structured_normal,structured_incentive","2,3,3,4,2,1","1,2,4,3","false","","",""
"null","","html-keyboard-response","505","1175237","0.0-505.0","","<img src=""img/set2/S3.jpg"" width=""540"" height = ""360"">","null","","","","","","","","","",""
"null","","html-keyboard-response","506","1175440","0.0-506.0","","","null","","","","","","","","","",""
"73.59999999403954","","image-keyboard-response","507","1175516","0.0-507.0","","img/set2/S3.jpg","72","3","random","72","structured_load,random,structured_normal,structured_incentive","2,3,3,4,2,1","1,2,4,3","true","","",""
"null","","html-keyboard-response","508","1175876","0.0-508.0","","<img src=""img/set2/S3.jpg"" width=""540"" height = ""360"" style=""border:16px solid orange"">","null","","","","","","","","","",""
"null","","html-keyboard-response","509","1176078","0.0-509.0","","","null","","","","","","","","","",""
"955.9000000059605","","image-keyboard-response","510","1177035","0.0-510.0","","img/set2/S1.jpg","83","1","random","83","structured_load,random,structured_normal,structured_incentive","2,3,3,4,2,1","1,2,4,3","true","","",""
"null","","html-keyboard-response","511","1177390","0.0-511.0","","<img src=""img/set2/S1.jpg"" width=""540"" height = ""360"" style=""border:16px solid orange"">","null","","","","","","","","","",""
"null","","html-keyboard-response","512","1177593","0.0-512.0","","","null","","","","","","","","","",""
"696.1000000089407","","image-keyboard-response","513","1178290","0.0-513.0","","img/set2/S3.jpg","72","3","random","72","structured_load,random,structured_normal,structured_incentive","2,3,3,4,2,1","1,2,4,3","true","","",""
"null","","html-keyboard-response","514","1178645","0.0-514.0","","<img src=""img/set2/S3.jpg"" width=""540"" height = ""360"" style=""border:16px solid orange"">","null","","","","","","","","","",""
"null","","html-keyboard-response","515","1178848","0.0-515.0","","","null","","","","","","","","","",""
"954.0999999940395","","image-keyboard-response","516","1179804","0.0-516.0","","img/set2/S2.jpg","68","2","random","68","structured_load,random,structured_normal,structured_incentive","2,3,3,4,2,1","1,2,4,3","true","","",""
"null","","html-keyboard-response","517","1180158","0.0-517.0","","<img src=""img/set2/S2.jpg"" width=""540"" height = ""360"" style=""border:16px solid orange"">","null","","","","","","","","","",""
"null","","html-keyboard-response","518","1180362","0.0-518.0","","","null","","","","","","","","","",""
"783","","image-keyboard-response","519","1181148","0.0-519.0","","img/set2/S1.jpg","83","1","random","83","structured_load,random,structured_normal,structured_incentive","2,3,3,4,2,1","1,2,4,3","true","","",""
"null","","html-keyboard-response","520","1181513","0.0-520.0","","<img src=""img/set2/S1.jpg"" width=""540"" height = ""360"" style=""border:16px solid orange"">","null","","","","","","","","","",""
"null","","html-keyboard-response","521","1181729","0.0-521.0","","","null","","","","","","","","","",""
"1032.1000000089407","","image-keyboard-response","522","1182763","0.0-522.0","","img/set2/S2.jpg","68","2","random","68","structured_load,random,structured_normal,structured_incentive","2,3,3,4,2,1","1,2,4,3","true","","",""
"null","","html-keyboard-response","523","1183116","0.0-523.0","","<img src=""img/set2/S2.jpg"" width=""540"" height = ""360"" style=""border:16px solid orange"">","null","","","","","","","","","",""
"null","","html-keyboard-response","524","1183319","0.0-524.0","","","null","","","","","","","","","",""
"898.5","","image-keyboard-response","525","1184219","0.0-525.0","","img/set2/S4.jpg","72","4","random","74","structured_load,random,structured_normal,structured_incentive","2,3,3,4,2,1","1,2,4,3","false","","",""
"null","","html-keyboard-response","526","1184579","0.0-526.0","","<img src=""img/set2/S4.jpg"" width=""540"" height = ""360"">","null","","","","","","","","","",""
"null","","html-keyboard-response","527","1184796","0.0-527.0","","","null","","","","","","","","","",""
"645.1000000089407","","image-keyboard-response","528","1185442","0.0-528.0","","img/set2/S3.jpg","72","3","random","72","structured_load,random,structured_normal,structured_incentive","2,3,3,4,2,1","1,2,4,3","true","","",""
"null","","html-keyboard-response","529","1185807","0.0-529.0","","<img src=""img/set2/S3.jpg"" width=""540"" height = ""360"" style=""border:16px solid orange"">","null","","","","","","","","","",""
"null","","html-keyboard-response","530","1186022","0.0-530.0","","","null","","","","","","","","","",""
"481.8999999910593","","image-keyboard-response","531","1186506","0.0-531.0","","img/set2/S3.jpg","72","3","random","72","structured_load,random,structured_normal,structured_incentive","2,3,3,4,2,1","1,2,4,3","true","","",""
"null","","html-keyboard-response","532","1186862","0.0-532.0","","<img src=""img/set2/S3.jpg"" width=""540"" height = ""360"" style=""border:16px solid orange"">","null","","","","","","","","","",""
"null","","html-keyboard-response","533","1187065","0.0-533.0","","","null","","","","","","","","","",""
"471.30000001192093","","image-keyboard-response","534","1187538","0.0-534.0","","img/set2/S3.jpg","72","3","random","72","structured_load,random,structured_normal,structured_incentive","2,3,3,4,2,1","1,2,4,3","true","","",""
"null","","html-keyboard-response","535","1187894","0.0-535.0","","<img src=""img/set2/S3.jpg"" width=""540"" height = ""360"" style=""border:16px solid orange"">","null","","","","","","","","","",""
"null","","html-keyboard-response","536","1188097","0.0-536.0","","","null","","","","","","","","","",""
"944.7000000029802","","image-keyboard-response","537","1189044","0.0-537.0","","img/set2/S4.jpg","74","4","random","74","structured_load,random,structured_normal,structured_incentive","2,3,3,4,2,1","1,2,4,3","true","","",""
"null","","html-keyboard-response","538","1189402","0.0-538.0","","<img src=""img/set2/S4.jpg"" width=""540"" height = ""360"" style=""border:16px solid orange"">","null","","","","","","","","","",""
"null","","html-keyboard-response","539","1189606","0.0-539.0","","","null","","","","","","","","","",""
"804.5","","image-keyboard-response","540","1190412","0.0-540.0","","img/set2/S2.jpg","83","2","random","68","structured_load,random,structured_normal,structured_incentive","2,3,3,4,2,1","1,2,4,3","false","","",""
"null","","html-keyboard-response","541","1190766","0.0-541.0","","<img src=""img/set2/S2.jpg"" width=""540"" height = ""360"">","null","","","","","","","","","",""
"null","","html-keyboard-response","542","1190981","0.0-542.0","","","null","","","","","","","","","",""
"819.7999999970198","","image-keyboard-response","543","1191802","0.0-543.0","","img/set2/S3.jpg","74","3","random","72","structured_load,random,structured_normal,structured_incentive","2,3,3,4,2,1","1,2,4,3","false","","",""
"null","","html-keyboard-response","544","1192168","0.0-544.0","","<img src=""img/set2/S3.jpg"" width=""540"" height = ""360"">","null","","","","","","","","","",""
"null","","html-keyboard-response","545","1192372","0.0-545.0","","","null","","","","","","","","","",""
"927","","image-keyboard-response","546","1193300","0.0-546.0","","img/set2/S2.jpg","68","2","random","68","structured_load,random,structured_normal,structured_incentive","2,3,3,4,2,1","1,2,4,3","true","","",""
"null","","html-keyboard-response","547","1193666","0.0-547.0","","<img src=""img/set2/S2.jpg"" width=""540"" height = ""360"" style=""border:16px solid orange"">","null","","","","","","","","","",""
"null","","html-keyboard-response","548","1193869","0.0-548.0","","","null","","","","","","","","","",""
"828.7000000029802","","image-keyboard-response","549","1194699","0.0-549.0","","img/set2/S4.jpg","74","4","random","74","structured_load,random,structured_normal,structured_incentive","2,3,3,4,2,1","1,2,4,3","true","","",""
"null","","html-keyboard-response","550","1195053","0.0-550.0","","<img src=""img/set2/S4.jpg"" width=""540"" height = ""360"" style=""border:16px solid orange"">","null","","","","","","","","","",""
"null","","html-keyboard-response","551","1195255","0.0-551.0","","","null","","","","","","","","","",""
"689.5","","image-keyboard-response","552","1195945","0.0-552.0","","img/set2/S3.jpg","72","3","random","72","structured_load,random,structured_normal,structured_incentive","2,3,3,4,2,1","1,2,4,3","true","","",""
"null","","html-keyboard-response","553","1196299","0.0-553.0","","<img src=""img/set2/S3.jpg"" width=""540"" height = ""360"" style=""border:16px solid orange"">","null","","","","","","","","","",""
"null","","html-keyboard-response","554","1196514","0.0-554.0","","","null","","","","","","","","","",""
"1526.5999999940395","","image-keyboard-response","555","1198043","0.0-555.0","","img/set2/S4.jpg","74","4","random","74","structured_load,random,structured_normal,structured_incentive","2,3,3,4,2,1","1,2,4,3","true","","",""
"null","","html-keyboard-response","556","1198398","0.0-556.0","","<img src=""img/set2/S4.jpg"" width=""540"" height = ""360"" style=""border:16px solid orange"">","null","","","","","","","","","",""
"null","","html-keyboard-response","557","1198614","0.0-557.0","","","null","","","","","","","","","",""
"642.9000000059605","","image-keyboard-response","558","1199259","0.0-558.0","","img/set2/S3.jpg","72","3","random","72","structured_load,random,structured_normal,structured_incentive","2,3,3,4,2,1","1,2,4,3","true","","",""
"null","","html-keyboard-response","559","1199612","0.0-559.0","","<img src=""img/set2/S3.jpg"" width=""540"" height = ""360"" style=""border:16px solid orange"">","null","","","","","","","","","",""
"null","","html-keyboard-response","560","1199828","0.0-560.0","","","null","","","","","","","","","",""
"1925.7999999970198","","image-keyboard-response","561","1201755","0.0-561.0","","img/set2/S2.jpg","68","2","random","68","structured_load,random,structured_normal,structured_incentive","2,3,3,4,2,1","1,2,4,3","true","","",""
"null","","html-keyboard-response","562","1202113","0.0-562.0","","<img src=""img/set2/S2.jpg"" width=""540"" height = ""360"" style=""border:16px solid orange"">","null","","","","","","","","","",""
"null","","html-keyboard-response","563","1202319","0.0-563.0","","","null","","","","","","","","","",""
"1161.4000000059605","","image-keyboard-response","564","1203481","0.0-564.0","","img/set2/S1.jpg","83","1","random","83","structured_load,random,structured_normal,structured_incentive","2,3,3,4,2,1","1,2,4,3","true","","",""
"null","","html-keyboard-response","565","1203843","0.0-565.0","","<img src=""img/set2/S1.jpg"" width=""540"" height = ""360"" style=""border:16px solid orange"">","null","","","","","","","","","",""
"null","","html-keyboard-response","566","1204045","0.0-566.0","","","null","","","","","","","","","",""
"1250.9000000059605","","image-keyboard-response","567","1205297","0.0-567.0","","img/set2/S3.jpg","72","3","random","72","structured_load,random,structured_normal,structured_incentive","2,3,3,4,2,1","1,2,4,3","true","","",""
"null","","html-keyboard-response","568","1205649","0.0-568.0","","<img src=""img/set2/S3.jpg"" width=""540"" height = ""360"" style=""border:16px solid orange"">","null","","","","","","","","","",""
"null","","html-keyboard-response","569","1205855","0.0-569.0","","","null","","","","","","","","","",""
"489.1000000089407","","image-keyboard-response","570","1206345","0.0-570.0","","img/set2/S3.jpg","72","3","random","72","structured_load,random,structured_normal,structured_incentive","2,3,3,4,2,1","1,2,4,3","true","","",""
