"rt","url","trial_type","trial_index","time_elapsed","internal_node_id","view_history","stimulus","key_press","state","test_part","correct_response","order_block","order_chunk","correct","responses","question_order","bonus"
"8703.745000006165","consent.html","external-html","0","8837","0.0-0.0","","","","","","","","","","","",""
"53451.4349999954","","instructions","1","62292","0.0-1.0","[{""page_index"":0,""viewing_time"":4560.369999962859},{""page_index"":1,""viewing_time"":6762.35999999335},{""page_index"":2,""viewing_time"":7706.059999996796},{""page_index"":3,""viewing_time"":10100.009999994654},{""page_index"":4,""viewing_time"":8429.440000036266},{""page_index"":5,""viewing_time"":9942.035000014585},{""page_index"":6,""viewing_time"":5950.114999955986}]","","","","","","","","","","",""
"11268.050000013318","","instructions","2","73561","0.0-2.0","[{""page_index"":0,""viewing_time"":11267.609999980778}]","","","","","","","","","","",""
"4186.014999984764","","instructions","3","77748","0.0-3.0","[{""page_index"":0,""viewing_time"":4185.699999972712}]","","","","","","","","","","",""
"1090.5450000427663","","image-keyboard-response","4","78841","0.0-4.0","","img/set1/S4.jpg","83","4","random","74","random,structured_load,structured_incentive,structured_normal","3,4,2,3,2,1","false","","",""
"null","","html-keyboard-response","5","79196","0.0-5.0","","<img src=""img/set1/S4.jpg"" width=""540"" height = ""360"">","null","","","","","","","","",""
"null","","html-keyboard-response","6","79398","0.0-6.0","","","null","","","","","","","","",""
"1600.5299999960698","","image-keyboard-response","7","81000","0.0-7.0","","img/set1/S4.jpg","83","4","random","74","random,structured_load,structured_incentive,structured_normal","3,4,2,3,2,1","false","","",""
"null","","html-keyboard-response","8","81357","0.0-8.0","","<img src=""img/set1/S4.jpg"" width=""540"" height = ""360"">","null","","","","","","","","",""
"null","","html-keyboard-response","9","81563","0.0-9.0","","","null","","","","","","","","",""
"1124.8600000399165","","image-keyboard-response","10","82689","0.0-10.0","","img/set1/S2.jpg","74","2","random","68","random,structured_load,structured_incentive,structured_normal","3,4,2,3,2,1","false","","",""
"null","","html-keyboard-response","11","83042","0.0-11.0","","<img src=""img/set1/S2.jpg"" width=""540"" height = ""360"">","null","","","","","","","","",""
"null","","html-keyboard-response","12","83249","0.0-12.0","","","null","","","","","","","","",""
"801.5350000350736","","image-keyboard-response","13","84052","0.0-13.0","","img/set1/S3.jpg","74","3","random","72","random,structured_load,structured_incentive,structured_normal","3,4,2,3,2,1","false","","",""
"null","","html-keyboard-response","14","84408","0.0-14.0","","<img src=""img/set1/S3.jpg"" width=""540"" height = ""360"">","null","","","","","","","","",""
"null","","html-keyboard-response","15","84610","0.0-15.0","","","null","","","","","","","","",""
"781.3200000091456","","image-keyboard-response","16","85393","0.0-16.0","","img/set1/S3.jpg","74","3","random","72","random,structured_load,structured_incentive,structured_normal","3,4,2,3,2,1","false","","",""
"null","","html-keyboard-response","17","85747","0.0-17.0","","<img src=""img/set1/S3.jpg"" width=""540"" height = ""360"">","null","","","","","","","","",""
"null","","html-keyboard-response","18","85952","0.0-18.0","","","null","","","","","","","","",""
"1023.7799999886192","","image-keyboard-response","19","86977","0.0-19.0","","img/set1/S2.jpg","74","2","random","68","random,structured_load,structured_incentive,structured_normal","3,4,2,3,2,1","false","","",""
"null","","html-keyboard-response","20","87332","0.0-20.0","","<img src=""img/set1/S2.jpg"" width=""540"" height = ""360"">","null","","","","","","","","",""
"null","","html-keyboard-response","21","87536","0.0-21.0","","","null","","","","","","","","",""
"831.3149999594316","","image-keyboard-response","22","88369","0.0-22.0","","img/set1/S3.jpg","74","3","random","72","random,structured_load,structured_incentive,structured_normal","3,4,2,3,2,1","false","","",""
"null","","html-keyboard-response","23","88726","0.0-23.0","","<img src=""img/set1/S3.jpg"" width=""540"" height = ""360"">","null","","","","","","","","",""
"null","","html-keyboard-response","24","88932","0.0-24.0","","","null","","","","","","","","",""
"819.5000000414439","","image-keyboard-response","25","89752","0.0-25.0","","img/set1/S2.jpg","74","2","random","68","random,structured_load,structured_incentive,structured_normal","3,4,2,3,2,1","false","","",""
"null","","html-keyboard-response","26","90109","0.0-26.0","","<img src=""img/set1/S2.jpg"" width=""540"" height = ""360"">","null","","","","","","","","",""
"null","","html-keyboard-response","27","90309","0.0-27.0","","","null","","","","","","","","",""
"929.3649999890476","","image-keyboard-response","28","91240","0.0-28.0","","img/set1/S1.jpg","83","1","random","83","random,structured_load,structured_incentive,structured_normal","3,4,2,3,2,1","true","","",""
"null","","html-keyboard-response","29","91593","0.0-29.0","","<img src=""img/set1/S1.jpg"" width=""540"" height = ""360"" style=""border:16px solid orange"">","null","","","","","","","","",""
"null","","html-keyboard-response","30","91796","0.0-30.0","","","null","","","","","","","","",""
"997.2100000013597","","image-keyboard-response","31","92794","0.0-31.0","","img/set1/S4.jpg","68","4","random","74","random,structured_load,structured_incentive,structured_normal","3,4,2,3,2,1","false","","",""
"null","","html-keyboard-response","32","93149","0.0-32.0","","<img src=""img/set1/S4.jpg"" width=""540"" height = ""360"">","null","","","","","","","","",""
"null","","html-keyboard-response","33","93351","0.0-33.0","","","null","","","","","","","","",""
"889.5200000260957","","image-keyboard-response","34","94241","0.0-34.0","","img/set1/S1.jpg","83","1","random","83","random,structured_load,structured_incentive,structured_normal","3,4,2,3,2,1","true","","",""
"null","","html-keyboard-response","35","94594","0.0-35.0","","<img src=""img/set1/S1.jpg"" width=""540"" height = ""360"" style=""border:16px solid orange"">","null","","","","","","","","",""
"null","","html-keyboard-response","36","94799","0.0-36.0","","","null","","","","","","","","",""
"null","","image-keyboard-response","37","97301","0.0-37.0","","img/set1/S2.jpg","null","2","random","68","random,structured_load,structured_incentive,structured_normal","3,4,2,3,2,1","false","","",""
"null","","html-keyboard-response","38","97658","0.0-38.0","","<img src=""img/set1/S2.jpg"" width=""540"" height = ""360"">","null","","","","","","","","",""
"null","","html-keyboard-response","39","97860","0.0-39.0","","","null","","","","","","","","",""
"411.47500002989545","","image-keyboard-response","40","98273","0.0-40.0","","img/set1/S1.jpg","68","1","random","83","random,structured_load,structured_incentive,structured_normal","3,4,2,3,2,1","false","","",""
"null","","html-keyboard-response","41","98629","0.0-41.0","","<img src=""img/set1/S1.jpg"" width=""540"" height = ""360"">","null","","","","","","","","",""
"null","","html-keyboard-response","42","98832","0.0-42.0","","","null","","","","","","","","",""
"623.6400000052527","","image-keyboard-response","43","99456","0.0-43.0","","img/set1/S4.jpg","83","4","random","74","random,structured_load,structured_incentive,structured_normal","3,4,2,3,2,1","false","","",""
"null","","html-keyboard-response","44","99812","0.0-44.0","","<img src=""img/set1/S4.jpg"" width=""540"" height = ""360"">","null","","","","","","","","",""
"null","","html-keyboard-response","45","100014","0.0-45.0","","","null","","","","","","","","",""
"496.6549999662675","","image-keyboard-response","46","100512","0.0-46.0","","img/set1/S1.jpg","68","1","random","83","random,structured_load,structured_incentive,structured_normal","3,4,2,3,2,1","false","","",""
"null","","html-keyboard-response","47","100868","0.0-47.0","","<img src=""img/set1/S1.jpg"" width=""540"" height = ""360"">","null","","","","","","","","",""
"null","","html-keyboard-response","48","101071","0.0-48.0","","","null","","","","","","","","",""
"520.7049999735318","","image-keyboard-response","49","101592","0.0-49.0","","img/set1/S1.jpg","83","1","random","83","random,structured_load,structured_incentive,structured_normal","3,4,2,3,2,1","true","","",""
"null","","html-keyboard-response","50","101948","0.0-50.0","","<img src=""img/set1/S1.jpg"" width=""540"" height = ""360"" style=""border:16px solid orange"">","null","","","","","","","","",""
"null","","html-keyboard-response","51","102150","0.0-51.0","","","null","","","","","","","","",""
"713.1899999803863","","image-keyboard-response","52","102865","0.0-52.0","","img/set1/S2.jpg","74","2","random","68","random,structured_load,structured_incentive,structured_normal","3,4,2,3,2,1","false","","",""
"null","","html-keyboard-response","53","103219","0.0-53.0","","<img src=""img/set1/S2.jpg"" width=""540"" height = ""360"">","null","","","","","","","","",""
"null","","html-keyboard-response","54","103422","0.0-54.0","","","null","","","","","","","","",""
"1401.36999997776","","image-keyboard-response","55","104826","0.0-55.0","","img/set1/S4.jpg","68","4","random","74","random,structured_load,structured_incentive,structured_normal","3,4,2,3,2,1","false","","",""
"null","","html-keyboard-response","56","105181","0.0-56.0","","<img src=""img/set1/S4.jpg"" width=""540"" height = ""360"">","null","","","","","","","","",""
"null","","html-keyboard-response","57","105385","0.0-57.0","","","null","","","","","","","","",""
"1046.2749999715015","","image-keyboard-response","58","106432","0.0-58.0","","img/set1/S4.jpg","74","4","random","74","random,structured_load,structured_incentive,structured_normal","3,4,2,3,2,1","true","","",""
"null","","html-keyboard-response","59","106784","0.0-59.0","","<img src=""img/set1/S4.jpg"" width=""540"" height = ""360"" style=""border:16px solid orange"">","null","","","","","","","","",""
"null","","html-keyboard-response","60","106990","0.0-60.0","","","null","","","","","","","","",""
"657.2600000072271","","image-keyboard-response","61","107649","0.0-61.0","","img/set1/S1.jpg","83","1","random","83","random,structured_load,structured_incentive,structured_normal","3,4,2,3,2,1","true","","",""
"null","","html-keyboard-response","62","108002","0.0-62.0","","<img src=""img/set1/S1.jpg"" width=""540"" height = ""360"" style=""border:16px solid orange"">","null","","","","","","","","",""
"null","","html-keyboard-response","63","108204","0.0-63.0","","","null","","","","","","","","",""
"482.94000001624227","","image-keyboard-response","64","108688","0.0-64.0","","img/set1/S4.jpg","74","4","random","74","random,structured_load,structured_incentive,structured_normal","3,4,2,3,2,1","true","","",""
"null","","html-keyboard-response","65","109043","0.0-65.0","","<img src=""img/set1/S4.jpg"" width=""540"" height = ""360"" style=""border:16px solid orange"">","null","","","","","","","","",""
"null","","html-keyboard-response","66","109246","0.0-66.0","","","null","","","","","","","","",""
"776.8550000037067","","image-keyboard-response","67","110024","0.0-67.0","","img/set1/S3.jpg","68","3","random","72","random,structured_load,structured_incentive,structured_normal","3,4,2,3,2,1","false","","",""
"null","","html-keyboard-response","68","110378","0.0-68.0","","<img src=""img/set1/S3.jpg"" width=""540"" height = ""360"">","null","","","","","","","","",""
"null","","html-keyboard-response","69","110581","0.0-69.0","","","null","","","","","","","","",""
"994.5350000052713","","image-keyboard-response","70","111576","0.0-70.0","","img/set1/S2.jpg","68","2","random","68","random,structured_load,structured_incentive,structured_normal","3,4,2,3,2,1","true","","",""
"null","","html-keyboard-response","71","111931","0.0-71.0","","<img src=""img/set1/S2.jpg"" width=""540"" height = ""360"" style=""border:16px solid orange"">","null","","","","","","","","",""
"null","","html-keyboard-response","72","112135","0.0-72.0","","","null","","","","","","","","",""
"688.4899999713525","","image-keyboard-response","73","112824","0.0-73.0","","img/set1/S2.jpg","68","2","random","68","random,structured_load,structured_incentive,structured_normal","3,4,2,3,2,1","true","","",""
"null","","html-keyboard-response","74","113180","0.0-74.0","","<img src=""img/set1/S2.jpg"" width=""540"" height = ""360"" style=""border:16px solid orange"">","null","","","","","","","","",""
"null","","html-keyboard-response","75","113383","0.0-75.0","","","null","","","","","","","","",""
"1920.7049999968149","","image-keyboard-response","76","115305","0.0-76.0","","img/set1/S4.jpg","68","4","random","74","random,structured_load,structured_incentive,structured_normal","3,4,2,3,2,1","false","","",""
"null","","html-keyboard-response","77","115660","0.0-77.0","","<img src=""img/set1/S4.jpg"" width=""540"" height = ""360"">","null","","","","","","","","",""
"null","","html-keyboard-response","78","115866","0.0-78.0","","","null","","","","","","","","",""
"549.6449999627657","","image-keyboard-response","79","116416","0.0-79.0","","img/set1/S4.jpg","74","4","random","74","random,structured_load,structured_incentive,structured_normal","3,4,2,3,2,1","true","","",""
"null","","html-keyboard-response","80","116771","0.0-80.0","","<img src=""img/set1/S4.jpg"" width=""540"" height = ""360"" style=""border:16px solid orange"">","null","","","","","","","","",""
"null","","html-keyboard-response","81","116974","0.0-81.0","","","null","","","","","","","","",""
"489.41999999806285","","image-keyboard-response","82","117465","0.0-82.0","","img/set1/S4.jpg","74","4","random","74","random,structured_load,structured_incentive,structured_normal","3,4,2,3,2,1","true","","",""
"null","","html-keyboard-response","83","117820","0.0-83.0","","<img src=""img/set1/S4.jpg"" width=""540"" height = ""360"" style=""border:16px solid orange"">","null","","","","","","","","",""
"null","","html-keyboard-response","84","118021","0.0-84.0","","","null","","","","","","","","",""
"841.9250000151806","","image-keyboard-response","85","118864","0.0-85.0","","img/set1/S2.jpg","68","2","random","68","random,structured_load,structured_incentive,structured_normal","3,4,2,3,2,1","true","","",""
"null","","html-keyboard-response","86","119218","0.0-86.0","","<img src=""img/set1/S2.jpg"" width=""540"" height = ""360"" style=""border:16px solid orange"">","null","","","","","","","","",""
"null","","html-keyboard-response","87","119421","0.0-87.0","","","null","","","","","","","","",""
"722.3900000099093","","image-keyboard-response","88","120145","0.0-88.0","","img/set1/S3.jpg","74","3","random","72","random,structured_load,structured_incentive,structured_normal","3,4,2,3,2,1","false","","",""
"null","","html-keyboard-response","89","120499","0.0-89.0","","<img src=""img/set1/S3.jpg"" width=""540"" height = ""360"">","null","","","","","","","","",""
"null","","html-keyboard-response","90","120703","0.0-90.0","","","null","","","","","","","","",""
"840.4549999977462","","image-keyboard-response","91","121545","0.0-91.0","","img/set1/S1.jpg","83","1","random","83","random,structured_load,structured_incentive,structured_normal","3,4,2,3,2,1","true","","",""
"null","","html-keyboard-response","92","121900","0.0-92.0","","<img src=""img/set1/S1.jpg"" width=""540"" height = ""360"" style=""border:16px solid orange"">","null","","","","","","","","",""
"null","","html-keyboard-response","93","122105","0.0-93.0","","","null","","","","","","","","",""
"1406.8400000105612","","image-keyboard-response","94","123513","0.0-94.0","","img/set1/S3.jpg","68","3","random","72","random,structured_load,structured_incentive,structured_normal","3,4,2,3,2,1","false","","",""
"null","","html-keyboard-response","95","123868","0.0-95.0","","<img src=""img/set1/S3.jpg"" width=""540"" height = ""360"">","null","","","","","","","","",""
"null","","html-keyboard-response","96","124073","0.0-96.0","","","null","","","","","","","","",""
"815.2149999514222","","image-keyboard-response","97","124889","0.0-97.0","","img/set1/S4.jpg","74","4","random","74","random,structured_load,structured_incentive,structured_normal","3,4,2,3,2,1","true","","",""
"null","","html-keyboard-response","98","125243","0.0-98.0","","<img src=""img/set1/S4.jpg"" width=""540"" height = ""360"" style=""border:16px solid orange"">","null","","","","","","","","",""
"null","","html-keyboard-response","99","125448","0.0-99.0","","","null","","","","","","","","",""
"null","","image-keyboard-response","100","127949","0.0-100.0","","img/set1/S3.jpg","null","3","random","72","random,structured_load,structured_incentive,structured_normal","3,4,2,3,2,1","false","","",""
"null","","html-keyboard-response","101","128301","0.0-101.0","","<img src=""img/set1/S3.jpg"" width=""540"" height = ""360"">","null","","","","","","","","",""
"null","","html-keyboard-response","102","128505","0.0-102.0","","","null","","","","","","","","",""
"685.799999977462","","image-keyboard-response","103","129192","0.0-103.0","","img/set1/S4.jpg","74","4","random","74","random,structured_load,structured_incentive,structured_normal","3,4,2,3,2,1","true","","",""
"null","","html-keyboard-response","104","129548","0.0-104.0","","<img src=""img/set1/S4.jpg"" width=""540"" height = ""360"" style=""border:16px solid orange"">","null","","","","","","","","",""
"null","","html-keyboard-response","105","129754","0.0-105.0","","","null","","","","","","","","",""
"893.4200000367127","","image-keyboard-response","106","130649","0.0-106.0","","img/set1/S3.jpg","68","3","random","72","random,structured_load,structured_incentive,structured_normal","3,4,2,3,2,1","false","","",""
"null","","html-keyboard-response","107","131001","0.0-107.0","","<img src=""img/set1/S3.jpg"" width=""540"" height = ""360"">","null","","","","","","","","",""
"null","","html-keyboard-response","108","131203","0.0-108.0","","","null","","","","","","","","",""
"571.5899999486282","","image-keyboard-response","109","131776","0.0-109.0","","img/set1/S1.jpg","83","1","random","83","random,structured_load,structured_incentive,structured_normal","3,4,2,3,2,1","true","","",""
"null","","html-keyboard-response","110","132129","0.0-110.0","","<img src=""img/set1/S1.jpg"" width=""540"" height = ""360"" style=""border:16px solid orange"">","null","","","","","","","","",""
"null","","html-keyboard-response","111","132334","0.0-111.0","","","null","","","","","","","","",""
"584.5749999862164","","image-keyboard-response","112","132920","0.0-112.0","","img/set1/S1.jpg","83","1","random","83","random,structured_load,structured_incentive,structured_normal","3,4,2,3,2,1","true","","",""
"null","","html-keyboard-response","113","133272","0.0-113.0","","<img src=""img/set1/S1.jpg"" width=""540"" height = ""360"" style=""border:16px solid orange"">","null","","","","","","","","",""
"null","","html-keyboard-response","114","133476","0.0-114.0","","","null","","","","","","","","",""
"475.6100000231527","","image-keyboard-response","115","133952","0.0-115.0","","img/set1/S3.jpg","83","3","random","72","random,structured_load,structured_incentive,structured_normal","3,4,2,3,2,1","false","","",""
"null","","html-keyboard-response","116","134305","0.0-116.0","","<img src=""img/set1/S3.jpg"" width=""540"" height = ""360"">","null","","","","","","","","",""
"null","","html-keyboard-response","117","134511","0.0-117.0","","","null","","","","","","","","",""
"760.4099999880418","","image-keyboard-response","118","135272","0.0-118.0","","img/set1/S1.jpg","83","1","random","83","random,structured_load,structured_incentive,structured_normal","3,4,2,3,2,1","true","","",""
"null","","html-keyboard-response","119","135627","0.0-119.0","","<img src=""img/set1/S1.jpg"" width=""540"" height = ""360"" style=""border:16px solid orange"">","null","","","","","","","","",""
"null","","html-keyboard-response","120","135831","0.0-120.0","","","null","","","","","","","","",""
"1017.2899999888614","","image-keyboard-response","121","136849","0.0-121.0","","img/set1/S2.jpg","68","2","random","68","random,structured_load,structured_incentive,structured_normal","3,4,2,3,2,1","true","","",""
"null","","html-keyboard-response","122","137201","0.0-122.0","","<img src=""img/set1/S2.jpg"" width=""540"" height = ""360"" style=""border:16px solid orange"">","null","","","","","","","","",""
"null","","html-keyboard-response","123","137403","0.0-123.0","","","null","","","","","","","","",""
"708.6699999636039","","image-keyboard-response","124","138112","0.0-124.0","","img/set1/S2.jpg","68","2","random","68","random,structured_load,structured_incentive,structured_normal","3,4,2,3,2,1","true","","",""
"null","","html-keyboard-response","125","138466","0.0-125.0","","<img src=""img/set1/S2.jpg"" width=""540"" height = ""360"" style=""border:16px solid orange"">","null","","","","","","","","",""
"null","","html-keyboard-response","126","138670","0.0-126.0","","","null","","","","","","","","",""
"632.4799999711104","","image-keyboard-response","127","139304","0.0-127.0","","img/set1/S1.jpg","83","1","random","83","random,structured_load,structured_incentive,structured_normal","3,4,2,3,2,1","true","","",""
"null","","html-keyboard-response","128","139660","0.0-128.0","","<img src=""img/set1/S1.jpg"" width=""540"" height = ""360"" style=""border:16px solid orange"">","null","","","","","","","","",""
"null","","html-keyboard-response","129","139863","0.0-129.0","","","null","","","","","","","","",""
"592.6850000396371","","image-keyboard-response","130","140456","0.0-130.0","","img/set1/S2.jpg","68","2","random","68","random,structured_load,structured_incentive,structured_normal","3,4,2,3,2,1","true","","",""
"null","","html-keyboard-response","131","140812","0.0-131.0","","<img src=""img/set1/S2.jpg"" width=""540"" height = ""360"" style=""border:16px solid orange"">","null","","","","","","","","",""
"null","","html-keyboard-response","132","141016","0.0-132.0","","","null","","","","","","","","",""
"759.0499999932945","","image-keyboard-response","133","141776","0.0-133.0","","img/set1/S3.jpg","74","3","random","72","random,structured_load,structured_incentive,structured_normal","3,4,2,3,2,1","false","","",""
"null","","html-keyboard-response","134","142129","0.0-134.0","","<img src=""img/set1/S3.jpg"" width=""540"" height = ""360"">","null","","","","","","","","",""
"null","","html-keyboard-response","135","142333","0.0-135.0","","","null","","","","","","","","",""
"888.9099999796599","","image-keyboard-response","136","143224","0.0-136.0","","img/set1/S2.jpg","68","2","random","68","random,structured_load,structured_incentive,structured_normal","3,4,2,3,2,1","true","","",""
"null","","html-keyboard-response","137","143576","0.0-137.0","","<img src=""img/set1/S2.jpg"" width=""540"" height = ""360"" style=""border:16px solid orange"">","null","","","","","","","","",""
"null","","html-keyboard-response","138","143777","0.0-138.0","","","null","","","","","","","","",""
"606.7150000017136","","image-keyboard-response","139","144385","0.0-139.0","","img/set1/S1.jpg","83","1","random","83","random,structured_load,structured_incentive,structured_normal","3,4,2,3,2,1","true","","",""
"null","","html-keyboard-response","140","144742","0.0-140.0","","<img src=""img/set1/S1.jpg"" width=""540"" height = ""360"" style=""border:16px solid orange"">","null","","","","","","","","",""
"null","","html-keyboard-response","141","144945","0.0-141.0","","","null","","","","","","","","",""
"null","","image-keyboard-response","142","147448","0.0-142.0","","img/set1/S3.jpg","null","3","random","72","random,structured_load,structured_incentive,structured_normal","3,4,2,3,2,1","false","","",""
"null","","html-keyboard-response","143","147801","0.0-143.0","","<img src=""img/set1/S3.jpg"" width=""540"" height = ""360"">","null","","","","","","","","",""
"null","","html-keyboard-response","144","148005","0.0-144.0","","","null","","","","","","","","",""
"866.1900000297464","","image-keyboard-response","145","148873","0.0-145.0","","img/set1/S2.jpg","72","2","random","68","random,structured_load,structured_incentive,structured_normal","3,4,2,3,2,1","false","","",""
"null","","html-keyboard-response","146","149229","0.0-146.0","","<img src=""img/set1/S2.jpg"" width=""540"" height = ""360"">","null","","","","","","","","",""
"null","","html-keyboard-response","147","149435","0.0-147.0","","","null","","","","","","","","",""
"1172.0700000296347","","image-keyboard-response","148","150609","0.0-148.0","","img/set1/S3.jpg","72","3","random","72","random,structured_load,structured_incentive,structured_normal","3,4,2,3,2,1","true","","",""
"null","","html-keyboard-response","149","150963","0.0-149.0","","<img src=""img/set1/S3.jpg"" width=""540"" height = ""360"" style=""border:16px solid orange"">","null","","","","","","","","",""
"null","","html-keyboard-response","150","151168","0.0-150.0","","","null","","","","","","","","",""
"1239.8750000284053","","image-keyboard-response","151","152409","0.0-151.0","","img/set1/S4.jpg","68","4","random","74","random,structured_load,structured_incentive,structured_normal","3,4,2,3,2,1","false","","",""
"null","","html-keyboard-response","152","152766","0.0-152.0","","<img src=""img/set1/S4.jpg"" width=""540"" height = ""360"">","null","","","","","","","","",""
"null","","html-keyboard-response","153","152969","0.0-153.0","","","null","","","","","","","","",""
"565.4099999810569","","image-keyboard-response","154","153536","0.0-154.0","","img/set1/S4.jpg","68","4","random","74","random,structured_load,structured_incentive,structured_normal","3,4,2,3,2,1","false","","",""
"null","","html-keyboard-response","155","153892","0.0-155.0","","<img src=""img/set1/S4.jpg"" width=""540"" height = ""360"">","null","","","","","","","","",""
"null","","html-keyboard-response","156","154093","0.0-156.0","","","null","","","","","","","","",""
"834.1099999961443","","image-keyboard-response","157","154928","0.0-157.0","","img/set1/S2.jpg","74","2","random","68","random,structured_load,structured_incentive,structured_normal","3,4,2,3,2,1","false","","",""
"null","","html-keyboard-response","158","155284","0.0-158.0","","<img src=""img/set1/S2.jpg"" width=""540"" height = ""360"">","null","","","","","","","","",""
"null","","html-keyboard-response","159","155486","0.0-159.0","","","null","","","","","","","","",""
"496.94499996257946","","image-keyboard-response","160","155985","0.0-160.0","","img/set1/S2.jpg","83","2","random","68","random,structured_load,structured_incentive,structured_normal","3,4,2,3,2,1","false","","",""
"null","","html-keyboard-response","161","156336","0.0-161.0","","<img src=""img/set1/S2.jpg"" width=""540"" height = ""360"">","null","","","","","","","","",""
"null","","html-keyboard-response","162","156539","0.0-162.0","","","null","","","","","","","","",""
"964.2100000055507","","image-keyboard-response","163","157504","0.0-163.0","","img/set1/S3.jpg","72","3","random","72","random,structured_load,structured_incentive,structured_normal","3,4,2,3,2,1","true","","",""
"null","","html-keyboard-response","164","157861","0.0-164.0","","<img src=""img/set1/S3.jpg"" width=""540"" height = ""360"" style=""border:16px solid orange"">","null","","","","","","","","",""
"null","","html-keyboard-response","165","158064","0.0-165.0","","","null","","","","","","","","",""
"839.8049999959767","","image-keyboard-response","166","158905","0.0-166.0","","img/set1/S3.jpg","72","3","random","72","random,structured_load,structured_incentive,structured_normal","3,4,2,3,2,1","true","","",""
"null","","html-keyboard-response","167","159260","0.0-167.0","","<img src=""img/set1/S3.jpg"" width=""540"" height = ""360"" style=""border:16px solid orange"">","null","","","","","","","","",""
"null","","html-keyboard-response","168","159466","0.0-168.0","","","null","","","","","","","","",""
"572.8699999745004","","image-keyboard-response","169","160040","0.0-169.0","","img/set1/S3.jpg","72","3","random","72","random,structured_load,structured_incentive,structured_normal","3,4,2,3,2,1","true","","",""
"null","","html-keyboard-response","170","160394","0.0-170.0","","<img src=""img/set1/S3.jpg"" width=""540"" height = ""360"" style=""border:16px solid orange"">","null","","","","","","","","",""
"null","","html-keyboard-response","171","160597","0.0-171.0","","","null","","","","","","","","",""
"746.6700000222772","","image-keyboard-response","172","161345","0.0-172.0","","img/set1/S2.jpg","68","2","random","68","random,structured_load,structured_incentive,structured_normal","3,4,2,3,2,1","true","","",""
"null","","html-keyboard-response","173","161697","0.0-173.0","","<img src=""img/set1/S2.jpg"" width=""540"" height = ""360"" style=""border:16px solid orange"">","null","","","","","","","","",""
"null","","html-keyboard-response","174","161902","0.0-174.0","","","null","","","","","","","","",""
"760.8199999667704","","image-keyboard-response","175","162664","0.0-175.0","","img/set1/S1.jpg","83","1","random","83","random,structured_load,structured_incentive,structured_normal","3,4,2,3,2,1","true","","",""
"null","","html-keyboard-response","176","163019","0.0-176.0","","<img src=""img/set1/S1.jpg"" width=""540"" height = ""360"" style=""border:16px solid orange"">","null","","","","","","","","",""
"null","","html-keyboard-response","177","163222","0.0-177.0","","","null","","","","","","","","",""
"593.1650000275113","","image-keyboard-response","178","163816","0.0-178.0","","img/set1/S1.jpg","83","1","random","83","random,structured_load,structured_incentive,structured_normal","3,4,2,3,2,1","true","","",""
"null","","html-keyboard-response","179","164171","0.0-179.0","","<img src=""img/set1/S1.jpg"" width=""540"" height = ""360"" style=""border:16px solid orange"">","null","","","","","","","","",""
"null","","html-keyboard-response","180","164375","0.0-180.0","","","null","","","","","","","","",""
"1025.8599999942817","","image-keyboard-response","181","165402","0.0-181.0","","img/set1/S2.jpg","68","2","random","68","random,structured_load,structured_incentive,structured_normal","3,4,2,3,2,1","true","","",""
"null","","html-keyboard-response","182","165757","0.0-182.0","","<img src=""img/set1/S2.jpg"" width=""540"" height = ""360"" style=""border:16px solid orange"">","null","","","","","","","","",""
"null","","html-keyboard-response","183","165959","0.0-183.0","","","null","","","","","","","","",""
"888.0849999841303","","image-keyboard-response","184","166849","0.0-184.0","","img/set1/S3.jpg","72","3","random","72","random,structured_load,structured_incentive,structured_normal","3,4,2,3,2,1","true","","",""
"null","","html-keyboard-response","185","167201","0.0-185.0","","<img src=""img/set1/S3.jpg"" width=""540"" height = ""360"" style=""border:16px solid orange"">","null","","","","","","","","",""
"null","","html-keyboard-response","186","167402","0.0-186.0","","","null","","","","","","","","",""
"741.1749999737367","","image-keyboard-response","187","168144","0.0-187.0","","img/set1/S1.jpg","83","1","random","83","random,structured_load,structured_incentive,structured_normal","3,4,2,3,2,1","true","","",""
"null","","html-keyboard-response","188","168501","0.0-188.0","","<img src=""img/set1/S1.jpg"" width=""540"" height = ""360"" style=""border:16px solid orange"">","null","","","","","","","","",""
"null","","html-keyboard-response","189","168703","0.0-189.0","","","null","","","","","","","","",""
"529.1250000009313","","image-keyboard-response","190","169233","0.0-190.0","","img/set1/S1.jpg","83","1","random","83","random,structured_load,structured_incentive,structured_normal","3,4,2,3,2,1","true","","",""
"null","","html-keyboard-response","191","169587","0.0-191.0","","<img src=""img/set1/S1.jpg"" width=""540"" height = ""360"" style=""border:16px solid orange"">","null","","","","","","","","",""
"null","","html-keyboard-response","192","169789","0.0-192.0","","","null","","","","","","","","",""
"698.8600000040606","","image-keyboard-response","193","170489","0.0-193.0","","img/set1/S3.jpg","68","3","random","72","random,structured_load,structured_incentive,structured_normal","3,4,2,3,2,1","false","","",""
"null","","html-keyboard-response","194","170844","0.0-194.0","","<img src=""img/set1/S3.jpg"" width=""540"" height = ""360"">","null","","","","","","","","",""
"null","","html-keyboard-response","195","171049","0.0-195.0","","","null","","","","","","","","",""
"710.6800000183284","","image-keyboard-response","196","171761","0.0-196.0","","img/set1/S2.jpg","72","2","random","68","random,structured_load,structured_incentive,structured_normal","3,4,2,3,2,1","false","","",""
"null","","html-keyboard-response","197","172112","0.0-197.0","","<img src=""img/set1/S2.jpg"" width=""540"" height = ""360"">","null","","","","","","","","",""
"null","","html-keyboard-response","198","172313","0.0-198.0","","","null","","","","","","","","",""
"582.2850000113249","","image-keyboard-response","199","172896","0.0-199.0","","img/set1/S1.jpg","83","1","random","83","random,structured_load,structured_incentive,structured_normal","3,4,2,3,2,1","true","","",""
"null","","html-keyboard-response","200","173250","0.0-200.0","","<img src=""img/set1/S1.jpg"" width=""540"" height = ""360"" style=""border:16px solid orange"">","null","","","","","","","","",""
"null","","html-keyboard-response","201","173456","0.0-201.0","","","null","","","","","","","","",""
"830.7900000363588","","image-keyboard-response","202","174288","0.0-202.0","","img/set1/S3.jpg","68","3","random","72","random,structured_load,structured_incentive,structured_normal","3,4,2,3,2,1","false","","",""
"null","","html-keyboard-response","203","174640","0.0-203.0","","<img src=""img/set1/S3.jpg"" width=""540"" height = ""360"">","null","","","","","","","","",""
"null","","html-keyboard-response","204","174842","0.0-204.0","","","null","","","","","","","","",""
"773.2350000296719","","image-keyboard-response","205","175617","0.0-205.0","","img/set1/S2.jpg","72","2","random","68","random,structured_load,structured_incentive,structured_normal","3,4,2,3,2,1","false","","",""
"null","","html-keyboard-response","206","175973","0.0-206.0","","<img src=""img/set1/S2.jpg"" width=""540"" height = ""360"">","null","","","","","","","","",""
"null","","html-keyboard-response","207","176176","0.0-207.0","","","null","","","","","","","","",""
"624.0300000063144","","image-keyboard-response","208","176801","0.0-208.0","","img/set1/S1.jpg","83","1","random","83","random,structured_load,structured_incentive,structured_normal","3,4,2,3,2,1","true","","",""
"null","","html-keyboard-response","209","177152","0.0-209.0","","<img src=""img/set1/S1.jpg"" width=""540"" height = ""360"" style=""border:16px solid orange"">","null","","","","","","","","",""
"null","","html-keyboard-response","210","177359","0.0-210.0","","","null","","","","","","","","",""
"720.6000000005588","","image-keyboard-response","211","178080","0.0-211.0","","img/set1/S4.jpg","68","4","random","74","random,structured_load,structured_incentive,structured_normal","3,4,2,3,2,1","false","","",""
"null","","html-keyboard-response","212","178436","0.0-212.0","","<img src=""img/set1/S4.jpg"" width=""540"" height = ""360"">","null","","","","","","","","",""
"null","","html-keyboard-response","213","178637","0.0-213.0","","","null","","","","","","","","",""
"778.9399999892339","","image-keyboard-response","214","179417","0.0-214.0","","img/set1/S3.jpg","74","3","random","72","random,structured_load,structured_incentive,structured_normal","3,4,2,3,2,1","false","","",""
"null","","html-keyboard-response","215","179773","0.0-215.0","","<img src=""img/set1/S3.jpg"" width=""540"" height = ""360"">","null","","","","","","","","",""
"null","","html-keyboard-response","216","179977","0.0-216.0","","","null","","","","","","","","",""
"790.4600000474602","","image-keyboard-response","217","180768","0.0-217.0","","img/set1/S4.jpg","68","4","random","74","random,structured_load,structured_incentive,structured_normal","3,4,2,3,2,1","false","","",""
"null","","html-keyboard-response","218","181122","0.0-218.0","","<img src=""img/set1/S4.jpg"" width=""540"" height = ""360"">","null","","","","","","","","",""
"null","","html-keyboard-response","219","181324","0.0-219.0","","","null","","","","","","","","",""
"515.2649999945424","","image-keyboard-response","220","181840","0.0-220.0","","img/set1/S4.jpg","72","4","random","74","random,structured_load,structured_incentive,structured_normal","3,4,2,3,2,1","false","","",""
"null","","html-keyboard-response","221","182196","0.0-221.0","","<img src=""img/set1/S4.jpg"" width=""540"" height = ""360"">","null","","","","","","","","",""
"null","","html-keyboard-response","222","182402","0.0-222.0","","","null","","","","","","","","",""
"501.6300000133924","","image-keyboard-response","223","182905","0.0-223.0","","img/set1/S4.jpg","74","4","random","74","random,structured_load,structured_incentive,structured_normal","3,4,2,3,2,1","true","","",""
"null","","html-keyboard-response","224","183258","0.0-224.0","","<img src=""img/set1/S4.jpg"" width=""540"" height = ""360"" style=""border:16px solid orange"">","null","","","","","","","","",""
"null","","html-keyboard-response","225","183463","0.0-225.0","","","null","","","","","","","","",""
"616.8750000069849","","image-keyboard-response","226","184081","0.0-226.0","","img/set1/S4.jpg","74","4","random","74","random,structured_load,structured_incentive,structured_normal","3,4,2,3,2,1","true","","",""
"null","","html-keyboard-response","227","184436","0.0-227.0","","<img src=""img/set1/S4.jpg"" width=""540"" height = ""360"" style=""border:16px solid orange"">","null","","","","","","","","",""
"null","","html-keyboard-response","228","184639","0.0-228.0","","","null","","","","","","","","",""
"703.8699999684468","","image-keyboard-response","229","185344","0.0-229.0","","img/set1/S1.jpg","83","1","random","83","random,structured_load,structured_incentive,structured_normal","3,4,2,3,2,1","true","","",""
"null","","html-keyboard-response","230","185696","0.0-230.0","","<img src=""img/set1/S1.jpg"" width=""540"" height = ""360"" style=""border:16px solid orange"">","null","","","","","","","","",""
"null","","html-keyboard-response","231","185898","0.0-231.0","","","null","","","","","","","","",""
"837.3549999669194","","image-keyboard-response","232","186736","0.0-232.0","","img/set1/S4.jpg","74","4","random","74","random,structured_load,structured_incentive,structured_normal","3,4,2,3,2,1","true","","",""
"null","","html-keyboard-response","233","187090","0.0-233.0","","<img src=""img/set1/S4.jpg"" width=""540"" height = ""360"" style=""border:16px solid orange"">","null","","","","","","","","",""
"null","","html-keyboard-response","234","187292","0.0-234.0","","","null","","","","","","","","",""
"754.4000000343658","","image-keyboard-response","235","188048","0.0-235.0","","img/set1/S3.jpg","72","3","random","72","random,structured_load,structured_incentive,structured_normal","3,4,2,3,2,1","true","","",""
"null","","html-keyboard-response","236","188402","0.0-236.0","","<img src=""img/set1/S3.jpg"" width=""540"" height = ""360"" style=""border:16px solid orange"">","null","","","","","","","","",""
"null","","html-keyboard-response","237","188606","0.0-237.0","","","null","","","","","","","","",""
"1585.964999976568","","image-keyboard-response","238","190193","0.0-238.0","","img/set1/S4.jpg","74","4","random","74","random,structured_load,structured_incentive,structured_normal","3,4,2,3,2,1","true","","",""
"null","","html-keyboard-response","239","190549","0.0-239.0","","<img src=""img/set1/S4.jpg"" width=""540"" height = ""360"" style=""border:16px solid orange"">","null","","","","","","","","",""
"null","","html-keyboard-response","240","190752","0.0-240.0","","","null","","","","","","","","",""
"439.4699999829754","","image-keyboard-response","241","191193","0.0-241.0","","img/set1/S4.jpg","74","4","random","74","random,structured_load,structured_incentive,structured_normal","3,4,2,3,2,1","true","","",""
"null","","html-keyboard-response","242","191547","0.0-242.0","","<img src=""img/set1/S4.jpg"" width=""540"" height = ""360"" style=""border:16px solid orange"">","null","","","","","","","","",""
"null","","html-keyboard-response","243","191752","0.0-243.0","","","null","","","","","","","","",""
"566.4150000084192","","image-keyboard-response","244","192320","0.0-244.0","","img/set1/S3.jpg","72","3","random","72","random,structured_load,structured_incentive,structured_normal","3,4,2,3,2,1","true","","",""
"null","","html-keyboard-response","245","192673","0.0-245.0","","<img src=""img/set1/S3.jpg"" width=""540"" height = ""360"" style=""border:16px solid orange"">","null","","","","","","","","",""
"null","","html-keyboard-response","246","192878","0.0-246.0","","","null","","","","","","","","",""
"593.1800000253133","","image-keyboard-response","247","193472","0.0-247.0","","img/set1/S1.jpg","83","1","random","83","random,structured_load,structured_incentive,structured_normal","3,4,2,3,2,1","true","","",""
"null","","html-keyboard-response","248","193824","0.0-248.0","","<img src=""img/set1/S1.jpg"" width=""540"" height = ""360"" style=""border:16px solid orange"">","null","","","","","","","","",""
"null","","html-keyboard-response","249","194028","0.0-249.0","","","null","","","","","","","","",""
"835.4350000154227","","image-keyboard-response","250","194864","0.0-250.0","","img/set1/S4.jpg","74","4","random","74","random,structured_load,structured_incentive,structured_normal","3,4,2,3,2,1","true","","",""
"null","","html-keyboard-response","251","195216","0.0-251.0","","<img src=""img/set1/S4.jpg"" width=""540"" height = ""360"" style=""border:16px solid orange"">","null","","","","","","","","",""
"null","","html-keyboard-response","252","195419","0.0-252.0","","","null","","","","","","","","",""
"755.4249999811873","","image-keyboard-response","253","196176","0.0-253.0","","img/set1/S2.jpg","68","2","random","68","random,structured_load,structured_incentive,structured_normal","3,4,2,3,2,1","true","","",""
"null","","html-keyboard-response","254","196527","0.0-254.0","","<img src=""img/set1/S2.jpg"" width=""540"" height = ""360"" style=""border:16px solid orange"">","null","","","","","","","","",""
"null","","html-keyboard-response","255","196733","0.0-255.0","","","null","","","","","","","","",""
"522.8650000062771","","image-keyboard-response","256","197256","0.0-256.0","","img/set1/S2.jpg","68","2","random","68","random,structured_load,structured_incentive,structured_normal","3,4,2,3,2,1","true","","",""
"null","","html-keyboard-response","257","197609","0.0-257.0","","<img src=""img/set1/S2.jpg"" width=""540"" height = ""360"" style=""border:16px solid orange"">","null","","","","","","","","",""
"null","","html-keyboard-response","258","197811","0.0-258.0","","","null","","","","","","","","",""
"891.875000030268","","image-keyboard-response","259","198704","0.0-259.0","","img/set1/S4.jpg","74","4","random","74","random,structured_load,structured_incentive,structured_normal","3,4,2,3,2,1","true","","",""
"null","","html-keyboard-response","260","199059","0.0-260.0","","<img src=""img/set1/S4.jpg"" width=""540"" height = ""360"" style=""border:16px solid orange"">","null","","","","","","","","",""
"null","","html-keyboard-response","261","199264","0.0-261.0","","","null","","","","","","","","",""
"655.4699999978766","","image-keyboard-response","262","199920","0.0-262.0","","img/set1/S1.jpg","83","1","random","83","random,structured_load,structured_incentive,structured_normal","3,4,2,3,2,1","true","","",""
"null","","html-keyboard-response","263","200273","0.0-263.0","","<img src=""img/set1/S1.jpg"" width=""540"" height = ""360"" style=""border:16px solid orange"">","null","","","","","","","","",""
"null","","html-keyboard-response","264","200475","0.0-264.0","","","null","","","","","","","","",""
"900.6550000049174","","image-keyboard-response","265","201377","0.0-265.0","","img/set1/S4.jpg","68","4","random","74","random,structured_load,structured_incentive,structured_normal","3,4,2,3,2,1","false","","",""
"null","","html-keyboard-response","266","201731","0.0-266.0","","<img src=""img/set1/S4.jpg"" width=""540"" height = ""360"">","null","","","","","","","","",""
"null","","html-keyboard-response","267","201936","0.0-267.0","","","null","","","","","","","","",""
"519.3199999630451","","image-keyboard-response","268","202456","0.0-268.0","","img/set1/S4.jpg","72","4","random","74","random,structured_load,structured_incentive,structured_normal","3,4,2,3,2,1","false","","",""
"null","","html-keyboard-response","269","202810","0.0-269.0","","<img src=""img/set1/S4.jpg"" width=""540"" height = ""360"">","null","","","","","","","","",""
"null","","html-keyboard-response","270","203013","0.0-270.0","","","null","","","","","","","","",""
"826.4950000448152","","image-keyboard-response","271","203840","0.0-271.0","","img/set1/S2.jpg","68","2","random","68","random,structured_load,structured_incentive,structured_normal","3,4,2,3,2,1","true","","",""
"null","","html-keyboard-response","272","204192","0.0-272.0","","<img src=""img/set1/S2.jpg"" width=""540"" height = ""360"" style=""border:16px solid orange"">","null","","","","","","","","",""
"null","","html-keyboard-response","273","204394","0.0-273.0","","","null","","","","","","","","",""
"732.8449999913573","","image-keyboard-response","274","205128","0.0-274.0","","img/set1/S1.jpg","83","1","random","83","random,structured_load,structured_incentive,structured_normal","3,4,2,3,2,1","true","","",""
"null","","html-keyboard-response","275","205483","0.0-275.0","","<img src=""img/set1/S1.jpg"" width=""540"" height = ""360"" style=""border:16px solid orange"">","null","","","","","","","","",""
"null","","html-keyboard-response","276","205688","0.0-276.0","","","null","","","","","","","","",""
"830.8499999693595","","image-keyboard-response","277","206520","0.0-277.0","","img/set1/S3.jpg","74","3","random","72","random,structured_load,structured_incentive,structured_normal","3,4,2,3,2,1","false","","",""
"null","","html-keyboard-response","278","206874","0.0-278.0","","<img src=""img/set1/S3.jpg"" width=""540"" height = ""360"">","null","","","","","","","","",""
"null","","html-keyboard-response","279","207077","0.0-279.0","","","null","","","","","","","","",""
"675.1599999843165","","image-keyboard-response","280","207753","0.0-280.0","","img/set1/S2.jpg","68","2","random","68","random,structured_load,structured_incentive,structured_normal","3,4,2,3,2,1","true","","",""
"null","","html-keyboard-response","281","208105","0.0-281.0","","<img src=""img/set1/S2.jpg"" width=""540"" height = ""360"" style=""border:16px solid orange"">","null","","","","","","","","",""
"null","","html-keyboard-response","282","208307","0.0-282.0","","","null","","","","","","","","",""
"427.77000000933185","","image-keyboard-response","283","208736","0.0-283.0","","img/set1/S2.jpg","68","2","random","68","random,structured_load,structured_incentive,structured_normal","3,4,2,3,2,1","true","","",""
"null","","html-keyboard-response","284","209089","0.0-284.0","","<img src=""img/set1/S2.jpg"" width=""540"" height = ""360"" style=""border:16px solid orange"">","null","","","","","","","","",""
"null","","html-keyboard-response","285","209292","0.0-285.0","","","null","","","","","","","","",""
"620.3650000388734","","image-keyboard-response","286","209914","0.0-286.0","","img/set1/S1.jpg","83","1","random","83","random,structured_load,structured_incentive,structured_normal","3,4,2,3,2,1","true","","",""
"null","","html-keyboard-response","287","210271","0.0-287.0","","<img src=""img/set1/S1.jpg"" width=""540"" height = ""360"" style=""border:16px solid orange"">","null","","","","","","","","",""
"null","","html-keyboard-response","288","210472","0.0-288.0","","","null","","","","","","","","",""
"1294.9599999701604","","image-keyboard-response","289","211769","0.0-289.0","","img/set1/S2.jpg","74","2","random","68","random,structured_load,structured_incentive,structured_normal","3,4,2,3,2,1","false","","",""
"null","","html-keyboard-response","290","212121","0.0-290.0","","<img src=""img/set1/S2.jpg"" width=""540"" height = ""360"">","null","","","","","","","","",""
"null","","html-keyboard-response","291","212323","0.0-291.0","","","null","","","","","","","","",""
"668.4949999907985","","image-keyboard-response","292","212992","0.0-292.0","","img/set1/S1.jpg","83","1","random","83","random,structured_load,structured_incentive,structured_normal","3,4,2,3,2,1","true","","",""
"null","","html-keyboard-response","293","213346","0.0-293.0","","<img src=""img/set1/S1.jpg"" width=""540"" height = ""360"" style=""border:16px solid orange"">","null","","","","","","","","",""
"null","","html-keyboard-response","294","213549","0.0-294.0","","","null","","","","","","","","",""
"641.959999979008","","image-keyboard-response","295","214192","0.0-295.0","","img/set1/S2.jpg","72","2","random","68","random,structured_load,structured_incentive,structured_normal","3,4,2,3,2,1","false","","",""
"null","","html-keyboard-response","296","214545","0.0-296.0","","<img src=""img/set1/S2.jpg"" width=""540"" height = ""360"">","null","","","","","","","","",""
"null","","html-keyboard-response","297","214752","0.0-297.0","","","null","","","","","","","","",""
"609.7900000168011","","image-keyboard-response","298","215362","0.0-298.0","","img/set1/S2.jpg","68","2","random","68","random,structured_load,structured_incentive,structured_normal","3,4,2,3,2,1","true","","",""
"null","","html-keyboard-response","299","215714","0.0-299.0","","<img src=""img/set1/S2.jpg"" width=""540"" height = ""360"" style=""border:16px solid orange"">","null","","","","","","","","",""
"null","","html-keyboard-response","300","215917","0.0-300.0","","","null","","","","","","","","",""
"682.1399999898858","","image-keyboard-response","301","216600","0.0-301.0","","img/set1/S3.jpg","72","3","random","72","random,structured_load,structured_incentive,structured_normal","3,4,2,3,2,1","true","","",""
"null","","html-keyboard-response","302","216951","0.0-302.0","","<img src=""img/set1/S3.jpg"" width=""540"" height = ""360"" style=""border:16px solid orange"">","null","","","","","","","","",""
"null","","html-keyboard-response","303","217155","0.0-303.0","","","null","","","","","","","","",""
"571.3450000039302","","image-keyboard-response","304","217728","0.0-304.0","","img/set1/S1.jpg","83","1","random","83","random,structured_load,structured_incentive,structured_normal","3,4,2,3,2,1","true","","",""
"null","","html-keyboard-response","305","218083","0.0-305.0","","<img src=""img/set1/S1.jpg"" width=""540"" height = ""360"" style=""border:16px solid orange"">","null","","","","","","","","",""
"null","","html-keyboard-response","306","218284","0.0-306.0","","","null","","","","","","","","",""
"1451.679999998305","","image-keyboard-response","307","219736","0.0-307.0","","img/set1/S2.jpg","72","2","random","68","random,structured_load,structured_incentive,structured_normal","3,4,2,3,2,1","false","","",""
"null","","html-keyboard-response","308","220093","0.0-308.0","","<img src=""img/set1/S2.jpg"" width=""540"" height = ""360"">","null","","","","","","","","",""
"null","","html-keyboard-response","309","220296","0.0-309.0","","","null","","","","","","","","",""
"815.5399999814108","","image-keyboard-response","310","221112","0.0-310.0","","img/set1/S3.jpg","68","3","random","72","random,structured_load,structured_incentive,structured_normal","3,4,2,3,2,1","false","","",""
"null","","html-keyboard-response","311","221466","0.0-311.0","","<img src=""img/set1/S3.jpg"" width=""540"" height = ""360"">","null","","","","","","","","",""
"null","","html-keyboard-response","312","221668","0.0-312.0","","","null","","","","","","","","",""
"731.0549999820068","","image-keyboard-response","313","222401","0.0-313.0","","img/set1/S4.jpg","74","4","random","74","random,structured_load,structured_incentive,structured_normal","3,4,2,3,2,1","true","","",""
"null","","html-keyboard-response","314","222755","0.0-314.0","","<img src=""img/set1/S4.jpg"" width=""540"" height = ""360"" style=""border:16px solid orange"">","null","","","","","","","","",""
"null","","html-keyboard-response","315","222957","0.0-315.0","","","null","","","","","","","","",""
"642.1050000353716","","image-keyboard-response","316","223601","0.0-316.0","","img/set1/S1.jpg","83","1","random","83","random,structured_load,structured_incentive,structured_normal","3,4,2,3,2,1","true","","",""
"null","","html-keyboard-response","317","223953","0.0-317.0","","<img src=""img/set1/S1.jpg"" width=""540"" height = ""360"" style=""border:16px solid orange"">","null","","","","","","","","",""
"null","","html-keyboard-response","318","224157","0.0-318.0","","","null","","","","","","","","",""
"833.4049999830313","","image-keyboard-response","319","224993","0.0-319.0","","img/set1/S2.jpg","68","2","random","68","random,structured_load,structured_incentive,structured_normal","3,4,2,3,2,1","true","","",""
"null","","html-keyboard-response","320","225350","0.0-320.0","","<img src=""img/set1/S2.jpg"" width=""540"" height = ""360"" style=""border:16px solid orange"">","null","","","","","","","","",""
"null","","html-keyboard-response","321","225554","0.0-321.0","","","null","","","","","","","","",""
"628.7699999520555","","image-keyboard-response","322","226184","0.0-322.0","","img/set1/S3.jpg","72","3","random","72","random,structured_load,structured_incentive,structured_normal","3,4,2,3,2,1","true","","",""
"null","","html-keyboard-response","323","226538","0.0-323.0","","<img src=""img/set1/S3.jpg"" width=""540"" height = ""360"" style=""border:16px solid orange"">","null","","","","","","","","",""
"null","","html-keyboard-response","324","226743","0.0-324.0","","","null","","","","","","","","",""
"479.6750000095926","","image-keyboard-response","325","227224","0.0-325.0","","img/set1/S3.jpg","72","3","random","72","random,structured_load,structured_incentive,structured_normal","3,4,2,3,2,1","true","","",""
"null","","html-keyboard-response","326","227576","0.0-326.0","","<img src=""img/set1/S3.jpg"" width=""540"" height = ""360"" style=""border:16px solid orange"">","null","","","","","","","","",""
"null","","html-keyboard-response","327","227776","0.0-327.0","","","null","","","","","","","","",""
"598.7999999779277","","image-keyboard-response","328","228376","0.0-328.0","","img/set1/S1.jpg","83","1","random","83","random,structured_load,structured_incentive,structured_normal","3,4,2,3,2,1","true","","",""
"null","","html-keyboard-response","329","228727","0.0-329.0","","<img src=""img/set1/S1.jpg"" width=""540"" height = ""360"" style=""border:16px solid orange"">","null","","","","","","","","",""
"null","","html-keyboard-response","330","228929","0.0-330.0","","","null","","","","","","","","",""
"614.6750000189058","","image-keyboard-response","331","229544","0.0-331.0","","img/set1/S1.jpg","83","1","random","83","random,structured_load,structured_incentive,structured_normal","3,4,2,3,2,1","true","","",""
"null","","html-keyboard-response","332","229896","0.0-332.0","","<img src=""img/set1/S1.jpg"" width=""540"" height = ""360"" style=""border:16px solid orange"">","null","","","","","","","","",""
"null","","html-keyboard-response","333","230100","0.0-333.0","","","null","","","","","","","","",""
"579.8049999866635","","image-keyboard-response","334","230681","0.0-334.0","","img/set1/S3.jpg","72","3","random","72","random,structured_load,structured_incentive,structured_normal","3,4,2,3,2,1","true","","",""
"null","","html-keyboard-response","335","231034","0.0-335.0","","<img src=""img/set1/S3.jpg"" width=""540"" height = ""360"" style=""border:16px solid orange"">","null","","","","","","","","",""
"null","","html-keyboard-response","336","231241","0.0-336.0","","","null","","","","","","","","",""
"838.4599999990314","","image-keyboard-response","337","232080","0.0-337.0","","img/set1/S4.jpg","74","4","random","74","random,structured_load,structured_incentive,structured_normal","3,4,2,3,2,1","true","","",""
"null","","html-keyboard-response","338","232432","0.0-338.0","","<img src=""img/set1/S4.jpg"" width=""540"" height = ""360"" style=""border:16px solid orange"">","null","","","","","","","","",""
"null","","html-keyboard-response","339","232635","0.0-339.0","","","null","","","","","","","","",""
"661.0600000130944","","image-keyboard-response","340","233297","0.0-340.0","","img/set1/S1.jpg","83","1","random","83","random,structured_load,structured_incentive,structured_normal","3,4,2,3,2,1","true","","",""
"null","","html-keyboard-response","341","233654","0.0-341.0","","<img src=""img/set1/S1.jpg"" width=""540"" height = ""360"" style=""border:16px solid orange"">","null","","","","","","","","",""
"null","","html-keyboard-response","342","233857","0.0-342.0","","","null","","","","","","","","",""
"869.8350000195205","","image-keyboard-response","343","234728","0.0-343.0","","img/set1/S4.jpg","74","4","random","74","random,structured_load,structured_incentive,structured_normal","3,4,2,3,2,1","true","","",""
"null","","html-keyboard-response","344","235080","0.0-344.0","","<img src=""img/set1/S4.jpg"" width=""540"" height = ""360"" style=""border:16px solid orange"">","null","","","","","","","","",""
"null","","html-keyboard-response","345","235284","0.0-345.0","","","null","","","","","","","","",""
"746.9500000006519","","image-keyboard-response","346","236032","0.0-346.0","","img/set1/S3.jpg","68","3","random","72","random,structured_load,structured_incentive,structured_normal","3,4,2,3,2,1","false","","",""
"null","","html-keyboard-response","347","236385","0.0-347.0","","<img src=""img/set1/S3.jpg"" width=""540"" height = ""360"">","null","","","","","","","","",""
"null","","html-keyboard-response","348","236589","0.0-348.0","","","null","","","","","","","","",""
"553.9650000282563","","image-keyboard-response","349","237144","0.0-349.0","","img/set1/S3.jpg","72","3","random","72","random,structured_load,structured_incentive,structured_normal","3,4,2,3,2,1","true","","",""
"null","","html-keyboard-response","350","237500","0.0-350.0","","<img src=""img/set1/S3.jpg"" width=""540"" height = ""360"" style=""border:16px solid orange"">","null","","","","","","","","",""
"null","","html-keyboard-response","351","237703","0.0-351.0","","","null","","","","","","","","",""
"743.8550000078976","","image-keyboard-response","352","238448","0.0-352.0","","img/set1/S4.jpg","68","4","random","74","random,structured_load,structured_incentive,structured_normal","3,4,2,3,2,1","false","","",""
"null","","html-keyboard-response","353","238803","0.0-353.0","","<img src=""img/set1/S4.jpg"" width=""540"" height = ""360"">","null","","","","","","","","",""
"null","","html-keyboard-response","354","239007","0.0-354.0","","","null","","","","","","","","",""
"696.3899999973364","","image-keyboard-response","355","239704","0.0-355.0","","img/set1/S3.jpg","72","3","random","72","random,structured_load,structured_incentive,structured_normal","3,4,2,3,2,1","true","","",""
"null","","html-keyboard-response","356","240059","0.0-356.0","","<img src=""img/set1/S3.jpg"" width=""540"" height = ""360"" style=""border:16px solid orange"">","null","","","","","","","","",""
"null","","html-keyboard-response","357","240259","0.0-357.0","","","null","","","","","","","","",""
"548.2249999768101","","image-keyboard-response","358","240808","0.0-358.0","","img/set1/S1.jpg","83","1","random","83","random,structured_load,structured_incentive,structured_normal","3,4,2,3,2,1","true","","",""
"null","","html-keyboard-response","359","241163","0.0-359.0","","<img src=""img/set1/S1.jpg"" width=""540"" height = ""360"" style=""border:16px solid orange"">","null","","","","","","","","",""
"null","","html-keyboard-response","360","241367","0.0-360.0","","","null","","","","","","","","",""
"688.5750000365078","","image-keyboard-response","361","242056","0.0-361.0","","img/set1/S2.jpg","68","2","random","68","random,structured_load,structured_incentive,structured_normal","3,4,2,3,2,1","true","","",""
"null","","html-keyboard-response","362","242411","0.0-362.0","","<img src=""img/set1/S2.jpg"" width=""540"" height = ""360"" style=""border:16px solid orange"">","null","","","","","","","","",""
"null","","html-keyboard-response","363","242615","0.0-363.0","","","null","","","","","","","","",""
"10321.595000044908","","html-keyboard-response","364","252937","0.0-364.0","","<p class=""center-content"">You have completed a block! </p><p class=""center-content"">Press any key on the keyboard to continue, </p><p class=""center-content"">or wait for the automatic progression to the next block after one minute.</p>","32","","","","","","","","",""
"6719.729999953415","","instructions","365","259658","0.0-365.0","[{""page_index"":0,""viewing_time"":6719.349999970291}]","","","","","","","","","","",""
"12116.464999970049","","instructions","366","271775","0.0-366.0","[{""page_index"":0,""viewing_time"":10281.360000022687},{""page_index"":1,""viewing_time"":1834.8299999488518}]","","","","","","","","","","",""
"904.2350000236183","","image-keyboard-response","367","272680","0.0-367.0","","img/set2/S3.jpg","83","3","structured_load","72","random,structured_load,structured_incentive,structured_normal","3,4,2,3,2,1","false","","",""
"null","","html-keyboard-response","368","273032","0.0-368.0","","<img src=""img/set2/S3.jpg"" width=""540"" height = ""360"">","null","","","","","","","","",""
"null","","html-keyboard-response","369","273235","0.0-369.0","","","null","","","","","","","","",""
"620.6550000351854","","image-keyboard-response","370","273857","0.0-370.0","","img/set2/S4.jpg","68","4","structured_load","74","random,structured_load,structured_incentive,structured_normal","3,4,2,3,2,1","false","","",""
"null","","html-keyboard-response","371","274212","0.0-371.0","","<img src=""img/set2/S4.jpg"" width=""540"" height = ""360"">","null","","","","","","","","",""
"null","","html-keyboard-response","372","274414","0.0-372.0","","","null","","","","","","","","",""
"1104.535000049509","","image-keyboard-response","373","275520","0.0-373.0","","img/set2/S1.jpg","72","1","structured_load","83","random,structured_load,structured_incentive,structured_normal","3,4,2,3,2,1","false","","",""
"null","","html-keyboard-response","374","275874","0.0-374.0","","<img src=""img/set2/S1.jpg"" width=""540"" height = ""360"">","null","","","","","","","","",""
"null","","html-keyboard-response","375","276075","0.0-375.0","","","null","","","","","","","","",""
"499.6650000102818","","image-keyboard-response","376","276576","0.0-376.0","","img/set2/S3.jpg","74","3","structured_load","72","random,structured_load,structured_incentive,structured_normal","3,4,2,3,2,1","false","","",""
"null","","html-keyboard-response","377","276933","0.0-377.0","","<img src=""img/set2/S3.jpg"" width=""540"" height = ""360"">","null","","","","","","","","",""
"null","","html-keyboard-response","378","277134","0.0-378.0","","","null","","","","","","","","",""
"680.6649999925867","","image-keyboard-response","379","277817","0.0-379.0","","img/set2/S4.jpg","83","4","structured_load","74","random,structured_load,structured_incentive,structured_normal","3,4,2,3,2,1","false","","",""
"null","","html-keyboard-response","380","278170","0.0-380.0","","<img src=""img/set2/S4.jpg"" width=""540"" height = ""360"">","null","","","","","","","","",""
"null","","html-keyboard-response","381","278374","0.0-381.0","","","null","","","","","","","","",""
"337.26000000024214","","image-keyboard-response","382","278712","0.0-382.0","","img/set2/S3.jpg","68","3","structured_load","72","random,structured_load,structured_incentive,structured_normal","3,4,2,3,2,1","false","","",""
"null","","html-keyboard-response","383","279069","0.0-383.0","","<img src=""img/set2/S3.jpg"" width=""540"" height = ""360"">","null","","","","","","","","",""
"null","","html-keyboard-response","384","279270","0.0-384.0","","","null","","","","","","","","",""
"305.08499999996275","","image-keyboard-response","385","279576","0.0-385.0","","img/set2/S4.jpg","72","4","structured_load","74","random,structured_load,structured_incentive,structured_normal","3,4,2,3,2,1","false","","",""
"null","","html-keyboard-response","386","279928","0.0-386.0","","<img src=""img/set2/S4.jpg"" width=""540"" height = ""360"">","null","","","","","","","","",""
"null","","html-keyboard-response","387","280131","0.0-387.0","","","null","","","","","","","","",""
"467.8299999795854","","image-keyboard-response","388","280600","0.0-388.0","","img/set2/S2.jpg","74","2","structured_load","68","random,structured_load,structured_incentive,structured_normal","3,4,2,3,2,1","false","","",""
"null","","html-keyboard-response","389","280956","0.0-389.0","","<img src=""img/set2/S2.jpg"" width=""540"" height = ""360"">","null","","","","","","","","",""
"null","","html-keyboard-response","390","281159","0.0-390.0","","","null","","","","","","","","",""
"686.9750000187196","","image-keyboard-response","391","281848","0.0-391.0","","img/set2/S1.jpg","83","1","structured_load","83","random,structured_load,structured_incentive,structured_normal","3,4,2,3,2,1","true","","",""
"null","","html-keyboard-response","392","282200","0.0-392.0","","<img src=""img/set2/S1.jpg"" width=""540"" height = ""360"" style=""border:16px solid orange"">","null","","","","","","","","",""
"null","","html-keyboard-response","393","282405","0.0-393.0","","","null","","","","","","","","",""
"1394.0799999982119","","image-keyboard-response","394","283800","0.0-394.0","","img/set2/S2.jpg","72","2","structured_load","68","random,structured_load,structured_incentive,structured_normal","3,4,2,3,2,1","false","","",""
"null","","html-keyboard-response","395","284157","0.0-395.0","","<img src=""img/set2/S2.jpg"" width=""540"" height = ""360"">","null","","","","","","","","",""
"null","","html-keyboard-response","396","284359","0.0-396.0","","","null","","","","","","","","",""
"488.55000000912696","","image-keyboard-response","397","284850","0.0-397.0","","img/set2/S1.jpg","83","1","structured_load","83","random,structured_load,structured_incentive,structured_normal","3,4,2,3,2,1","true","","",""
"null","","html-keyboard-response","398","285207","0.0-398.0","","<img src=""img/set2/S1.jpg"" width=""540"" height = ""360"" style=""border:16px solid orange"">","null","","","","","","","","",""
"null","","html-keyboard-response","399","285413","0.0-399.0","","","null","","","","","","","","",""
"451.1550000170246","","image-keyboard-response","400","285866","0.0-400.0","","img/set2/S2.jpg","68","2","structured_load","68","random,structured_load,structured_incentive,structured_normal","3,4,2,3,2,1","true","","",""
"null","","html-keyboard-response","401","286221","0.0-401.0","","<img src=""img/set2/S2.jpg"" width=""540"" height = ""360"" style=""border:16px solid orange"">","null","","","","","","","","",""
"null","","html-keyboard-response","402","286424","0.0-402.0","","","null","","","","","","","","",""
"670.879999990575","","image-keyboard-response","403","287096","0.0-403.0","","img/set2/S1.jpg","83","1","structured_load","83","random,structured_load,structured_incentive,structured_normal","3,4,2,3,2,1","true","","",""
"null","","html-keyboard-response","404","287451","0.0-404.0","","<img src=""img/set2/S1.jpg"" width=""540"" height = ""360"" style=""border:16px solid orange"">","null","","","","","","","","",""
"null","","html-keyboard-response","405","287655","0.0-405.0","","","null","","","","","","","","",""
"473.55499997502193","","image-keyboard-response","406","288129","0.0-406.0","","img/set2/S1.jpg","83","1","structured_load","83","random,structured_load,structured_incentive,structured_normal","3,4,2,3,2,1","true","","",""
"null","","html-keyboard-response","407","288485","0.0-407.0","","<img src=""img/set2/S1.jpg"" width=""540"" height = ""360"" style=""border:16px solid orange"">","null","","","","","","","","",""
"null","","html-keyboard-response","408","288687","0.0-408.0","","","null","","","","","","","","",""
"471.28500003600493","","image-keyboard-response","409","289160","0.0-409.0","","img/set2/S1.jpg","83","1","structured_load","83","random,structured_load,structured_incentive,structured_normal","3,4,2,3,2,1","true","","",""
"null","","html-keyboard-response","410","289513","0.0-410.0","","<img src=""img/set2/S1.jpg"" width=""540"" height = ""360"" style=""border:16px solid orange"">","null","","","","","","","","",""
"null","","html-keyboard-response","411","289716","0.0-411.0","","","null","","","","","","","","",""
"507.1199999656528","","image-keyboard-response","412","290224","0.0-412.0","","img/set2/S2.jpg","68","2","structured_load","68","random,structured_load,structured_incentive,structured_normal","3,4,2,3,2,1","true","","",""
"null","","html-keyboard-response","413","290579","0.0-413.0","","<img src=""img/set2/S2.jpg"" width=""540"" height = ""360"" style=""border:16px solid orange"">","null","","","","","","","","",""
"null","","html-keyboard-response","414","290784","0.0-414.0","","","null","","","","","","","","",""
"423.3150000218302","","image-keyboard-response","415","291208","0.0-415.0","","img/set2/S2.jpg","68","2","structured_load","68","random,structured_load,structured_incentive,structured_normal","3,4,2,3,2,1","true","","",""
"null","","html-keyboard-response","416","291560","0.0-416.0","","<img src=""img/set2/S2.jpg"" width=""540"" height = ""360"" style=""border:16px solid orange"">","null","","","","","","","","",""
"null","","html-keyboard-response","417","291764","0.0-417.0","","","null","","","","","","","","",""
"602.9899999848567","","image-keyboard-response","418","292368","0.0-418.0","","img/set2/S1.jpg","83","1","structured_load","83","random,structured_load,structured_incentive,structured_normal","3,4,2,3,2,1","true","","",""
"null","","html-keyboard-response","419","292723","0.0-419.0","","<img src=""img/set2/S1.jpg"" width=""540"" height = ""360"" style=""border:16px solid orange"">","null","","","","","","","","",""
"null","","html-keyboard-response","420","292928","0.0-420.0","","","null","","","","","","","","",""
"454.9649999826215","","image-keyboard-response","421","293384","0.0-421.0","","img/set2/S2.jpg","68","2","structured_load","68","random,structured_load,structured_incentive,structured_normal","3,4,2,3,2,1","true","","",""
"null","","html-keyboard-response","422","293738","0.0-422.0","","<img src=""img/set2/S2.jpg"" width=""540"" height = ""360"" style=""border:16px solid orange"">","null","","","","","","","","",""
"null","","html-keyboard-response","423","293943","0.0-423.0","","","null","","","","","","","","",""
"632.8450000146404","","image-keyboard-response","424","294577","0.0-424.0","","img/set2/S1.jpg","83","1","structured_load","83","random,structured_load,structured_incentive,structured_normal","3,4,2,3,2,1","true","","",""
"null","","html-keyboard-response","425","294931","0.0-425.0","","<img src=""img/set2/S1.jpg"" width=""540"" height = ""360"" style=""border:16px solid orange"">","null","","","","","","","","",""
"null","","html-keyboard-response","426","295133","0.0-426.0","","","null","","","","","","","","",""
"466.3050000090152","","image-keyboard-response","427","295601","0.0-427.0","","img/set2/S1.jpg","83","1","structured_load","83","random,structured_load,structured_incentive,structured_normal","3,4,2,3,2,1","true","","",""
"null","","html-keyboard-response","428","295957","0.0-428.0","","<img src=""img/set2/S1.jpg"" width=""540"" height = ""360"" style=""border:16px solid orange"">","null","","","","","","","","",""
"null","","html-keyboard-response","429","296160","0.0-429.0","","","null","","","","","","","","",""
"839.1999999876134","","image-keyboard-response","430","297001","0.0-430.0","","img/set2/S3.jpg","72","3","structured_load","72","random,structured_load,structured_incentive,structured_normal","3,4,2,3,2,1","true","","",""
"null","","html-keyboard-response","431","297356","0.0-431.0","","<img src=""img/set2/S3.jpg"" width=""540"" height = ""360"" style=""border:16px solid orange"">","null","","","","","","","","",""
"null","","html-keyboard-response","432","297561","0.0-432.0","","","null","","","","","","","","",""
"598.775000020396","","image-keyboard-response","433","298161","0.0-433.0","","img/set2/S4.jpg","74","4","structured_load","74","random,structured_load,structured_incentive,structured_normal","3,4,2,3,2,1","true","","",""
"null","","html-keyboard-response","434","298516","0.0-434.0","","<img src=""img/set2/S4.jpg"" width=""540"" height = ""360"" style=""border:16px solid orange"">","null","","","","","","","","",""
"null","","html-keyboard-response","435","298719","0.0-435.0","","","null","","","","","","","","",""
"536.1150000244379","","image-keyboard-response","436","299256","0.0-436.0","","img/set2/S3.jpg","72","3","structured_load","72","random,structured_load,structured_incentive,structured_normal","3,4,2,3,2,1","true","","",""
"null","","html-keyboard-response","437","299611","0.0-437.0","","<img src=""img/set2/S3.jpg"" width=""540"" height = ""360"" style=""border:16px solid orange"">","null","","","","","","","","",""
"null","","html-keyboard-response","438","299817","0.0-438.0","","","null","","","","","","","","",""
"566.1850000033155","","image-keyboard-response","439","300384","0.0-439.0","","img/set2/S4.jpg","74","4","structured_load","74","random,structured_load,structured_incentive,structured_normal","3,4,2,3,2,1","true","","",""
"null","","html-keyboard-response","440","300738","0.0-440.0","","<img src=""img/set2/S4.jpg"" width=""540"" height = ""360"" style=""border:16px solid orange"">","null","","","","","","","","",""
"null","","html-keyboard-response","441","300939","0.0-441.0","","","null","","","","","","","","",""
"572.5899999961257","","image-keyboard-response","442","301512","0.0-442.0","","img/set2/S1.jpg","83","1","structured_load","83","random,structured_load,structured_incentive,structured_normal","3,4,2,3,2,1","true","","",""
"null","","html-keyboard-response","443","301869","0.0-443.0","","<img src=""img/set2/S1.jpg"" width=""540"" height = ""360"" style=""border:16px solid orange"">","null","","","","","","","","",""
"null","","html-keyboard-response","444","302075","0.0-444.0","","","null","","","","","","","","",""
"660.8699999633245","","image-keyboard-response","445","302737","0.0-445.0","","img/set2/S1.jpg","83","1","structured_load","83","random,structured_load,structured_incentive,structured_normal","3,4,2,3,2,1","true","","",""
"null","","html-keyboard-response","446","303091","0.0-446.0","","<img src=""img/set2/S1.jpg"" width=""540"" height = ""360"" style=""border:16px solid orange"">","null","","","","","","","","",""
"null","","html-keyboard-response","447","303295","0.0-447.0","","","null","","","","","","","","",""
"496.5599999995902","","image-keyboard-response","448","303793","0.0-448.0","","img/set2/S3.jpg","68","3","structured_load","72","random,structured_load,structured_incentive,structured_normal","3,4,2,3,2,1","false","","",""
"null","","html-keyboard-response","449","304148","0.0-449.0","","<img src=""img/set2/S3.jpg"" width=""540"" height = ""360"">","null","","","","","","","","",""
"null","","html-keyboard-response","450","304350","0.0-450.0","","","null","","","","","","","","",""
"537.015000008978","","image-keyboard-response","451","304888","0.0-451.0","","img/set2/S4.jpg","68","4","structured_load","74","random,structured_load,structured_incentive,structured_normal","3,4,2,3,2,1","false","","",""
"null","","html-keyboard-response","452","305240","0.0-452.0","","<img src=""img/set2/S4.jpg"" width=""540"" height = ""360"">","null","","","","","","","","",""
"null","","html-keyboard-response","453","305442","0.0-453.0","","","null","","","","","","","","",""
"549.1999999503605","","image-keyboard-response","454","305993","0.0-454.0","","img/set2/S2.jpg","68","2","structured_load","68","random,structured_load,structured_incentive,structured_normal","3,4,2,3,2,1","true","","",""
"null","","html-keyboard-response","455","306348","0.0-455.0","","<img src=""img/set2/S2.jpg"" width=""540"" height = ""360"" style=""border:16px solid orange"">","null","","","","","","","","",""
"null","","html-keyboard-response","456","306551","0.0-456.0","","","null","","","","","","","","",""
"480.24500004248694","","image-keyboard-response","457","307032","0.0-457.0","","img/set2/S2.jpg","68","2","structured_load","68","random,structured_load,structured_incentive,structured_normal","3,4,2,3,2,1","true","","",""
"null","","html-keyboard-response","458","307386","0.0-458.0","","<img src=""img/set2/S2.jpg"" width=""540"" height = ""360"" style=""border:16px solid orange"">","null","","","","","","","","",""
"null","","html-keyboard-response","459","307589","0.0-459.0","","","null","","","","","","","","",""
"610.3850000072271","","image-keyboard-response","460","308201","0.0-460.0","","img/set2/S3.jpg","74","3","structured_load","72","random,structured_load,structured_incentive,structured_normal","3,4,2,3,2,1","false","","",""
"null","","html-keyboard-response","461","308553","0.0-461.0","","<img src=""img/set2/S3.jpg"" width=""540"" height = ""360"">","null","","","","","","","","",""
"null","","html-keyboard-response","462","308754","0.0-462.0","","","null","","","","","","","","",""
"868.590000027325","","image-keyboard-response","463","309624","0.0-463.0","","img/set2/S4.jpg","74","4","structured_load","74","random,structured_load,structured_incentive,structured_normal","3,4,2,3,2,1","true","","",""
"null","","html-keyboard-response","464","309976","0.0-464.0","","<img src=""img/set2/S4.jpg"" width=""540"" height = ""360"" style=""border:16px solid orange"">","null","","","","","","","","",""
"null","","html-keyboard-response","465","310179","0.0-465.0","","","null","","","","","","","","",""
"420.25999998440966","","image-keyboard-response","466","310600","0.0-466.0","","img/set2/S3.jpg","72","3","structured_load","72","random,structured_load,structured_incentive,structured_normal","3,4,2,3,2,1","true","","",""
"null","","html-keyboard-response","467","310955","0.0-467.0","","<img src=""img/set2/S3.jpg"" width=""540"" height = ""360"" style=""border:16px solid orange"">","null","","","","","","","","",""
"null","","html-keyboard-response","468","311157","0.0-468.0","","","null","","","","","","","","",""
"665.3100000112318","","image-keyboard-response","469","311824","0.0-469.0","","img/set2/S4.jpg","74","4","structured_load","74","random,structured_load,structured_incentive,structured_normal","3,4,2,3,2,1","true","","",""
"null","","html-keyboard-response","470","312177","0.0-470.0","","<img src=""img/set2/S4.jpg"" width=""540"" height = ""360"" style=""border:16px solid orange"">","null","","","","","","","","",""
"null","","html-keyboard-response","471","312379","0.0-471.0","","","null","","","","","","","","",""
"427.6349999709055","","image-keyboard-response","472","312808","0.0-472.0","","img/set2/S3.jpg","72","3","structured_load","72","random,structured_load,structured_incentive,structured_normal","3,4,2,3,2,1","true","","",""
"null","","html-keyboard-response","473","313164","0.0-473.0","","<img src=""img/set2/S3.jpg"" width=""540"" height = ""360"" style=""border:16px solid orange"">","null","","","","","","","","",""
"null","","html-keyboard-response","474","313369","0.0-474.0","","","null","","","","","","","","",""
"758.1600000266917","","image-keyboard-response","475","314128","0.0-475.0","","img/set2/S4.jpg","74","4","structured_load","74","random,structured_load,structured_incentive,structured_normal","3,4,2,3,2,1","true","","",""
"null","","html-keyboard-response","476","314481","0.0-476.0","","<img src=""img/set2/S4.jpg"" width=""540"" height = ""360"" style=""border:16px solid orange"">","null","","","","","","","","",""
"null","","html-keyboard-response","477","314684","0.0-477.0","","","null","","","","","","","","",""
"698.7250000238419","","image-keyboard-response","478","315384","0.0-478.0","","img/set2/S2.jpg","68","2","structured_load","68","random,structured_load,structured_incentive,structured_normal","3,4,2,3,2,1","true","","",""
"null","","html-keyboard-response","479","315739","0.0-479.0","","<img src=""img/set2/S2.jpg"" width=""540"" height = ""360"" style=""border:16px solid orange"">","null","","","","","","","","",""
"null","","html-keyboard-response","480","315943","0.0-480.0","","","null","","","","","","","","",""
"536.179999995511","","image-keyboard-response","481","316481","0.0-481.0","","img/set2/S1.jpg","83","1","structured_load","83","random,structured_load,structured_incentive,structured_normal","3,4,2,3,2,1","true","","",""
"null","","html-keyboard-response","482","316837","0.0-482.0","","<img src=""img/set2/S1.jpg"" width=""540"" height = ""360"" style=""border:16px solid orange"">","null","","","","","","","","",""
"null","","html-keyboard-response","483","317039","0.0-483.0","","","null","","","","","","","","",""
"1000.1550000160933","","image-keyboard-response","484","318040","0.0-484.0","","img/set2/S3.jpg","74","3","structured_load","72","random,structured_load,structured_incentive,structured_normal","3,4,2,3,2,1","false","","",""
"null","","html-keyboard-response","485","318393","0.0-485.0","","<img src=""img/set2/S3.jpg"" width=""540"" height = ""360"">","null","","","","","","","","",""
"null","","html-keyboard-response","486","318597","0.0-486.0","","","null","","","","","","","","",""
"954.9649999826215","","image-keyboard-response","487","319553","0.0-487.0","","img/set2/S4.jpg","74","4","structured_load","74","random,structured_load,structured_incentive,structured_normal","3,4,2,3,2,1","true","","",""
"null","","html-keyboard-response","488","319909","0.0-488.0","","<img src=""img/set2/S4.jpg"" width=""540"" height = ""360"" style=""border:16px solid orange"">","null","","","","","","","","",""
"null","","html-keyboard-response","489","320112","0.0-489.0","","","null","","","","","","","","",""
"647.4199999938719","","image-keyboard-response","490","320761","0.0-490.0","","img/set2/S1.jpg","83","1","structured_load","83","random,structured_load,structured_incentive,structured_normal","3,4,2,3,2,1","true","","",""
"null","","html-keyboard-response","491","321115","0.0-491.0","","<img src=""img/set2/S1.jpg"" width=""540"" height = ""360"" style=""border:16px solid orange"">","null","","","","","","","","",""
"null","","html-keyboard-response","492","321319","0.0-492.0","","","null","","","","","","","","",""
"496.06999999377877","","image-keyboard-response","493","321816","0.0-493.0","","img/set2/S1.jpg","83","1","structured_load","83","random,structured_load,structured_incentive,structured_normal","3,4,2,3,2,1","true","","",""
"null","","html-keyboard-response","494","322171","0.0-494.0","","<img src=""img/set2/S1.jpg"" width=""540"" height = ""360"" style=""border:16px solid orange"">","null","","","","","","","","",""
"null","","html-keyboard-response","495","322374","0.0-495.0","","","null","","","","","","","","",""
"584.3450000393204","","image-keyboard-response","496","322960","0.0-496.0","","img/set2/S2.jpg","68","2","structured_load","68","random,structured_load,structured_incentive,structured_normal","3,4,2,3,2,1","true","","",""
"null","","html-keyboard-response","497","323313","0.0-497.0","","<img src=""img/set2/S2.jpg"" width=""540"" height = ""360"" style=""border:16px solid orange"">","null","","","","","","","","",""
"null","","html-keyboard-response","498","323514","0.0-498.0","","","null","","","","","","","","",""
"612.6100000110455","","image-keyboard-response","499","324128","0.0-499.0","","img/set2/S1.jpg","83","1","structured_load","83","random,structured_load,structured_incentive,structured_normal","3,4,2,3,2,1","true","","",""
"null","","html-keyboard-response","500","324481","0.0-500.0","","<img src=""img/set2/S1.jpg"" width=""540"" height = ""360"" style=""border:16px solid orange"">","null","","","","","","","","",""
"null","","html-keyboard-response","501","324686","0.0-501.0","","","null","","","","","","","","",""
"633.1649999483489","","image-keyboard-response","502","325320","0.0-502.0","","img/set2/S3.jpg","72","3","structured_load","72","random,structured_load,structured_incentive,structured_normal","3,4,2,3,2,1","true","","",""
"null","","html-keyboard-response","503","325674","0.0-503.0","","<img src=""img/set2/S3.jpg"" width=""540"" height = ""360"" style=""border:16px solid orange"">","null","","","","","","","","",""
"null","","html-keyboard-response","504","325880","0.0-504.0","","","null","","","","","","","","",""
"558.6899999761954","","image-keyboard-response","505","326440","0.0-505.0","","img/set2/S4.jpg","74","4","structured_load","74","random,structured_load,structured_incentive,structured_normal","3,4,2,3,2,1","true","","",""
"null","","html-keyboard-response","506","326792","0.0-506.0","","<img src=""img/set2/S4.jpg"" width=""540"" height = ""360"" style=""border:16px solid orange"">","null","","","","","","","","",""
"null","","html-keyboard-response","507","326998","0.0-507.0","","","null","","","","","","","","",""
"617.0949999941513","","image-keyboard-response","508","327616","0.0-508.0","","img/set2/S2.jpg","68","2","structured_load","68","random,structured_load,structured_incentive,structured_normal","3,4,2,3,2,1","true","","",""
"null","","html-keyboard-response","509","327973","0.0-509.0","","<img src=""img/set2/S2.jpg"" width=""540"" height = ""360"" style=""border:16px solid orange"">","null","","","","","","","","",""
"null","","html-keyboard-response","510","328179","0.0-510.0","","","null","","","","","","","","",""
"683.7850000010803","","image-keyboard-response","511","328865","0.0-511.0","","img/set2/S3.jpg","72","3","structured_load","72","random,structured_load,structured_incentive,structured_normal","3,4,2,3,2,1","true","","",""
"null","","html-keyboard-response","512","329220","0.0-512.0","","<img src=""img/set2/S3.jpg"" width=""540"" height = ""360"" style=""border:16px solid orange"">","null","","","","","","","","",""
"null","","html-keyboard-response","513","329424","0.0-513.0","","","null","","","","","","","","",""
"663.509999983944","","image-keyboard-response","514","330089","0.0-514.0","","img/set2/S4.jpg","74","4","structured_load","74","random,structured_load,structured_incentive,structured_normal","3,4,2,3,2,1","true","","",""
"null","","html-keyboard-response","515","330444","0.0-515.0","","<img src=""img/set2/S4.jpg"" width=""540"" height = ""360"" style=""border:16px solid orange"">","null","","","","","","","","",""
"null","","html-keyboard-response","516","330646","0.0-516.0","","","null","","","","","","","","",""
"753.0499999993481","","image-keyboard-response","517","331401","0.0-517.0","","img/set2/S2.jpg","68","2","structured_load","68","random,structured_load,structured_incentive,structured_normal","3,4,2,3,2,1","true","","",""
"null","","html-keyboard-response","518","331753","0.0-518.0","","<img src=""img/set2/S2.jpg"" width=""540"" height = ""360"" style=""border:16px solid orange"">","null","","","","","","","","",""
"null","","html-keyboard-response","519","331958","0.0-519.0","","","null","","","","","","","","",""
"1073.3149999869056","","image-keyboard-response","520","333033","0.0-520.0","","img/set2/S3.jpg","72","3","structured_load","72","random,structured_load,structured_incentive,structured_normal","3,4,2,3,2,1","true","","",""
"null","","html-keyboard-response","521","333386","0.0-521.0","","<img src=""img/set2/S3.jpg"" width=""540"" height = ""360"" style=""border:16px solid orange"">","null","","","","","","","","",""
"null","","html-keyboard-response","522","333587","0.0-522.0","","","null","","","","","","","","",""
"620.740000042133","","image-keyboard-response","523","334209","0.0-523.0","","img/set2/S4.jpg","74","4","structured_load","74","random,structured_load,structured_incentive,structured_normal","3,4,2,3,2,1","true","","",""
"null","","html-keyboard-response","524","334560","0.0-524.0","","<img src=""img/set2/S4.jpg"" width=""540"" height = ""360"" style=""border:16px solid orange"">","null","","","","","","","","",""
"null","","html-keyboard-response","525","334763","0.0-525.0","","","null","","","","","","","","",""
"580.5699999909848","","image-keyboard-response","526","335344","0.0-526.0","","img/set2/S2.jpg","68","2","structured_load","68","random,structured_load,structured_incentive,structured_normal","3,4,2,3,2,1","true","","",""
"null","","html-keyboard-response","527","335698","0.0-527.0","","<img src=""img/set2/S2.jpg"" width=""540"" height = ""360"" style=""border:16px solid orange"">","null","","","","","","","","",""
"null","","html-keyboard-response","528","335900","0.0-528.0","","","null","","","","","","","","",""
"386.9399999966845","","image-keyboard-response","529","336289","0.0-529.0","","img/set2/S2.jpg","68","2","structured_load","68","random,structured_load,structured_incentive,structured_normal","3,4,2,3,2,1","true","","",""
"null","","html-keyboard-response","530","336644","0.0-530.0","","<img src=""img/set2/S2.jpg"" width=""540"" height = ""360"" style=""border:16px solid orange"">","null","","","","","","","","",""
"null","","html-keyboard-response","531","336845","0.0-531.0","","","null","","","","","","","","",""
"657.9749999800697","","image-keyboard-response","532","337504","0.0-532.0","","img/set2/S3.jpg","72","3","structured_load","72","random,structured_load,structured_incentive,structured_normal","3,4,2,3,2,1","true","","",""
"null","","html-keyboard-response","533","337856","0.0-533.0","","<img src=""img/set2/S3.jpg"" width=""540"" height = ""360"" style=""border:16px solid orange"">","null","","","","","","","","",""
"null","","html-keyboard-response","534","338060","0.0-534.0","","","null","","","","","","","","",""
"610.8849999727681","","image-keyboard-response","535","338672","0.0-535.0","","img/set2/S4.jpg","74","4","structured_load","74","random,structured_load,structured_incentive,structured_normal","3,4,2,3,2,1","true","","",""
"null","","html-keyboard-response","536","339029","0.0-536.0","","<img src=""img/set2/S4.jpg"" width=""540"" height = ""360"" style=""border:16px solid orange"">","null","","","","","","","","",""
"null","","html-keyboard-response","537","339235","0.0-537.0","","","null","","","","","","","","",""
"732.0600000093691","","image-keyboard-response","538","339969","0.0-538.0","","img/set2/S3.jpg","72","3","structured_load","72","random,structured_load,structured_incentive,structured_normal","3,4,2,3,2,1","true","","",""
"null","","html-keyboard-response","539","340320","0.0-539.0","","<img src=""img/set2/S3.jpg"" width=""540"" height = ""360"" style=""border:16px solid orange"">","null","","","","","","","","",""
"null","","html-keyboard-response","540","340522","0.0-540.0","","","null","","","","","","","","",""
"542.3500000033528","","image-keyboard-response","541","341065","0.0-541.0","","img/set2/S4.jpg","74","4","structured_load","74","random,structured_load,structured_incentive,structured_normal","3,4,2,3,2,1","true","","",""
"null","","html-keyboard-response","542","341420","0.0-542.0","","<img src=""img/set2/S4.jpg"" width=""540"" height = ""360"" style=""border:16px solid orange"">","null","","","","","","","","",""
"null","","html-keyboard-response","543","341625","0.0-543.0","","","null","","","","","","","","",""
"685.9149999800138","","image-keyboard-response","544","342312","0.0-544.0","","img/set2/S2.jpg","68","2","structured_load","68","random,structured_load,structured_incentive,structured_normal","3,4,2,3,2,1","true","","",""
"null","","html-keyboard-response","545","342665","0.0-545.0","","<img src=""img/set2/S2.jpg"" width=""540"" height = ""360"" style=""border:16px solid orange"">","null","","","","","","","","",""
"null","","html-keyboard-response","546","342867","0.0-546.0","","","null","","","","","","","","",""
"443.93999996827915","","image-keyboard-response","547","343312","0.0-547.0","","img/set2/S2.jpg","68","2","structured_load","68","random,structured_load,structured_incentive,structured_normal","3,4,2,3,2,1","true","","",""
"null","","html-keyboard-response","548","343667","0.0-548.0","","<img src=""img/set2/S2.jpg"" width=""540"" height = ""360"" style=""border:16px solid orange"">","null","","","","","","","","",""
"null","","html-keyboard-response","549","343869","0.0-549.0","","","null","","","","","","","","",""
"417.7750000380911","","image-keyboard-response","550","344288","0.0-550.0","","img/set2/S2.jpg","68","2","structured_load","68","random,structured_load,structured_incentive,structured_normal","3,4,2,3,2,1","true","","",""
"null","","html-keyboard-response","551","344644","0.0-551.0","","<img src=""img/set2/S2.jpg"" width=""540"" height = ""360"" style=""border:16px solid orange"">","null","","","","","","","","",""
"null","","html-keyboard-response","552","344851","0.0-552.0","","","null","","","","","","","","",""
"356.70499998377636","","image-keyboard-response","553","345208","0.0-553.0","","img/set2/S2.jpg","68","2","structured_load","68","random,structured_load,structured_incentive,structured_normal","3,4,2,3,2,1","true","","",""
"null","","html-keyboard-response","554","345565","0.0-554.0","","<img src=""img/set2/S2.jpg"" width=""540"" height = ""360"" style=""border:16px solid orange"">","null","","","","","","","","",""
"null","","html-keyboard-response","555","345769","0.0-555.0","","","null","","","","","","","","",""
"637.6149999559857","","image-keyboard-response","556","346408","0.0-556.0","","img/set2/S1.jpg","83","1","structured_load","83","random,structured_load,structured_incentive,structured_normal","3,4,2,3,2,1","true","","",""
"null","","html-keyboard-response","557","346762","0.0-557.0","","<img src=""img/set2/S1.jpg"" width=""540"" height = ""360"" style=""border:16px solid orange"">","null","","","","","","","","",""
"null","","html-keyboard-response","558","346968","0.0-558.0","","","null","","","","","","","","",""
"334.87500000046566","","image-keyboard-response","559","347304","0.0-559.0","","img/set2/S1.jpg","83","1","structured_load","83","random,structured_load,structured_incentive,structured_normal","3,4,2,3,2,1","true","","",""
"null","","html-keyboard-response","560","347656","0.0-560.0","","<img src=""img/set2/S1.jpg"" width=""540"" height = ""360"" style=""border:16px solid orange"">","null","","","","","","","","",""
"null","","html-keyboard-response","561","347860","0.0-561.0","","","null","","","","","","","","",""
"438.00999998347834","","image-keyboard-response","562","348299","0.0-562.0","","img/set2/S1.jpg","83","1","structured_load","83","random,structured_load,structured_incentive,structured_normal","3,4,2,3,2,1","true","","",""
"null","","html-keyboard-response","563","348654","0.0-563.0","","<img src=""img/set2/S1.jpg"" width=""540"" height = ""360"" style=""border:16px solid orange"">","null","","","","","","","","",""
"null","","html-keyboard-response","564","348859","0.0-564.0","","","null","","","","","","","","",""
"667.6200000219978","","image-keyboard-response","565","349528","0.0-565.0","","img/set2/S2.jpg","68","2","structured_load","68","random,structured_load,structured_incentive,structured_normal","3,4,2,3,2,1","true","","",""
"null","","html-keyboard-response","566","349884","0.0-566.0","","<img src=""img/set2/S2.jpg"" width=""540"" height = ""360"" style=""border:16px solid orange"">","null","","","","","","","","",""
"null","","html-keyboard-response","567","350088","0.0-567.0","","","null","","","","","","","","",""
"1048.0700000189245","","image-keyboard-response","568","351137","0.0-568.0","","img/set2/S3.jpg","72","3","structured_load","72","random,structured_load,structured_incentive,structured_normal","3,4,2,3,2,1","true","","",""
"null","","html-keyboard-response","569","351489","0.0-569.0","","<img src=""img/set2/S3.jpg"" width=""540"" height = ""360"" style=""border:16px solid orange"">","null","","","","","","","","",""
"null","","html-keyboard-response","570","351690","0.0-570.0","","","null","","","","","","","","",""
"542.3400000436231","","image-keyboard-response","571","352234","0.0-571.0","","img/set2/S4.jpg","74","4","structured_load","74","random,structured_load,structured_incentive,structured_normal","3,4,2,3,2,1","true","","",""
"null","","html-keyboard-response","572","352589","0.0-572.0","","<img src=""img/set2/S4.jpg"" width=""540"" height = ""360"" style=""border:16px solid orange"">","null","","","","","","","","",""
"null","","html-keyboard-response","573","352792","0.0-573.0","","","null","","","","","","","","",""
"614.9250000016764","","image-keyboard-response","574","353408","0.0-574.0","","img/set2/S1.jpg","83","1","structured_load","83","random,structured_load,structured_incentive,structured_normal","3,4,2,3,2,1","true","","",""
"null","","html-keyboard-response","575","353762","0.0-575.0","","<img src=""img/set2/S1.jpg"" width=""540"" height = ""360"" style=""border:16px solid orange"">","null","","","","","","","","",""
"null","","html-keyboard-response","576","353966","0.0-576.0","","","null","","","","","","","","",""
"657.3849999695085","","image-keyboard-response","577","354624","0.0-577.0","","img/set2/S3.jpg","72","3","structured_load","72","random,structured_load,structured_incentive,structured_normal","3,4,2,3,2,1","true","","",""
"null","","html-keyboard-response","578","354981","0.0-578.0","","<img src=""img/set2/S3.jpg"" width=""540"" height = ""360"" style=""border:16px solid orange"">","null","","","","","","","","",""
"null","","html-keyboard-response","579","355184","0.0-579.0","","","null","","","","","","","","",""
"503.3899999689311","","image-keyboard-response","580","355689","0.0-580.0","","img/set2/S4.jpg","74","4","structured_load","74","random,structured_load,structured_incentive,structured_normal","3,4,2,3,2,1","true","","",""
"null","","html-keyboard-response","581","356045","0.0-581.0","","<img src=""img/set2/S4.jpg"" width=""540"" height = ""360"" style=""border:16px solid orange"">","null","","","","","","","","",""
"null","","html-keyboard-response","582","356248","0.0-582.0","","","null","","","","","","","","",""
"639.0850000316277","","image-keyboard-response","583","356888","0.0-583.0","","img/set2/S2.jpg","68","2","structured_load","68","random,structured_load,structured_incentive,structured_normal","3,4,2,3,2,1","true","","",""
"null","","html-keyboard-response","584","357245","0.0-584.0","","<img src=""img/set2/S2.jpg"" width=""540"" height = ""360"" style=""border:16px solid orange"">","null","","","","","","","","",""
"null","","html-keyboard-response","585","357449","0.0-585.0","","","null","","","","","","","","",""
