"rt","url","trial_type","trial_index","time_elapsed","internal_node_id","assignmentID","mturkID","hitID","view_history","stimulus","key_press","state","test_part","correct_response","order_block","order_chunk","order_freq","correct","responses","question_order","bonus"
"10812.699999988079","consent.html","external-html","0","12068","0.0-0.0","39PAAFCODNMSN1FIZEGHUWH4JFNTVD","A3KF6O09H04SP7","3RKHNXPHGWIRLJ219DNI80W3E6SKUF","","","","","","","","","","","","",""
"51503.69999998808","","instructions","1","63578","0.0-1.0","39PAAFCODNMSN1FIZEGHUWH4JFNTVD","A3KF6O09H04SP7","3RKHNXPHGWIRLJ219DNI80W3E6SKUF","[{""page_index"":0,""viewing_time"":3273},{""page_index"":1,""viewing_time"":5096.699999988079},{""page_index"":2,""viewing_time"":8544.59999999404},{""page_index"":3,""viewing_time"":10122},{""page_index"":4,""viewing_time"":7649.300000011921},{""page_index"":5,""viewing_time"":9072},{""page_index"":6,""viewing_time"":7745.199999988079}]","","","","","","","","","","","",""
"7653.699999988079","","instructions","2","71234","0.0-2.0","39PAAFCODNMSN1FIZEGHUWH4JFNTVD","A3KF6O09H04SP7","3RKHNXPHGWIRLJ219DNI80W3E6SKUF","[{""page_index"":0,""viewing_time"":7653.5}]","","","","","","","","","","","",""
"4920.4000000059605","","instructions","3","76155","0.0-3.0","39PAAFCODNMSN1FIZEGHUWH4JFNTVD","A3KF6O09H04SP7","3RKHNXPHGWIRLJ219DNI80W3E6SKUF","[{""page_index"":0,""viewing_time"":4920}]","","","","","","","","","","","",""
"822.3000000119209","","image-keyboard-response","4","76982","0.0-4.0","39PAAFCODNMSN1FIZEGHUWH4JFNTVD","A3KF6O09H04SP7","3RKHNXPHGWIRLJ219DNI80W3E6SKUF","","img/set1/S4.jpg","83","4","random","74","random,structured_normal,structured_incentive,structured_load","","3,4,2,1","false","","",""
"null","","html-keyboard-response","5","77340","0.0-5.0","39PAAFCODNMSN1FIZEGHUWH4JFNTVD","A3KF6O09H04SP7","3RKHNXPHGWIRLJ219DNI80W3E6SKUF","","<img src=""img/set1/S4.jpg"" width=""540"" height = ""360"">","null","","","","","","","","","",""
"null","","html-keyboard-response","6","77543","0.0-6.0","39PAAFCODNMSN1FIZEGHUWH4JFNTVD","A3KF6O09H04SP7","3RKHNXPHGWIRLJ219DNI80W3E6SKUF","","","null","","","","","","","","","",""
"737.5","","image-keyboard-response","7","78285","0.0-7.0","39PAAFCODNMSN1FIZEGHUWH4JFNTVD","A3KF6O09H04SP7","3RKHNXPHGWIRLJ219DNI80W3E6SKUF","","img/set1/S4.jpg","68","4","random","74","random,structured_normal,structured_incentive,structured_load","","3,4,2,1","false","","",""
"null","","html-keyboard-response","8","78643","0.0-8.0","39PAAFCODNMSN1FIZEGHUWH4JFNTVD","A3KF6O09H04SP7","3RKHNXPHGWIRLJ219DNI80W3E6SKUF","","<img src=""img/set1/S4.jpg"" width=""540"" height = ""360"">","null","","","","","","","","","",""
"null","","html-keyboard-response","9","78847","0.0-9.0","39PAAFCODNMSN1FIZEGHUWH4JFNTVD","A3KF6O09H04SP7","3RKHNXPHGWIRLJ219DNI80W3E6SKUF","","","null","","","","","","","","","",""
"554","","image-keyboard-response","10","79405","0.0-10.0","39PAAFCODNMSN1FIZEGHUWH4JFNTVD","A3KF6O09H04SP7","3RKHNXPHGWIRLJ219DNI80W3E6SKUF","","img/set1/S4.jpg","72","4","random","74","random,structured_normal,structured_incentive,structured_load","","3,4,2,1","false","","",""
"null","","html-keyboard-response","11","79766","0.0-11.0","39PAAFCODNMSN1FIZEGHUWH4JFNTVD","A3KF6O09H04SP7","3RKHNXPHGWIRLJ219DNI80W3E6SKUF","","<img src=""img/set1/S4.jpg"" width=""540"" height = ""360"">","null","","","","","","","","","",""
"null","","html-keyboard-response","12","79973","0.0-12.0","39PAAFCODNMSN1FIZEGHUWH4JFNTVD","A3KF6O09H04SP7","3RKHNXPHGWIRLJ219DNI80W3E6SKUF","","","null","","","","","","","","","",""
"1266.8999999761581","","image-keyboard-response","13","81246","0.0-13.0","39PAAFCODNMSN1FIZEGHUWH4JFNTVD","A3KF6O09H04SP7","3RKHNXPHGWIRLJ219DNI80W3E6SKUF","","img/set1/S2.jpg","72","2","random","68","random,structured_normal,structured_incentive,structured_load","","3,4,2,1","false","","",""
"null","","html-keyboard-response","14","81601","0.0-14.0","39PAAFCODNMSN1FIZEGHUWH4JFNTVD","A3KF6O09H04SP7","3RKHNXPHGWIRLJ219DNI80W3E6SKUF","","<img src=""img/set1/S2.jpg"" width=""540"" height = ""360"">","null","","","","","","","","","",""
"null","","html-keyboard-response","15","81803","0.0-15.0","39PAAFCODNMSN1FIZEGHUWH4JFNTVD","A3KF6O09H04SP7","3RKHNXPHGWIRLJ219DNI80W3E6SKUF","","","null","","","","","","","","","",""
"549.9000000059605","","image-keyboard-response","16","82354","0.0-16.0","39PAAFCODNMSN1FIZEGHUWH4JFNTVD","A3KF6O09H04SP7","3RKHNXPHGWIRLJ219DNI80W3E6SKUF","","img/set1/S4.jpg","74","4","random","74","random,structured_normal,structured_incentive,structured_load","","3,4,2,1","true","","",""
"null","","html-keyboard-response","17","82707","0.0-17.0","39PAAFCODNMSN1FIZEGHUWH4JFNTVD","A3KF6O09H04SP7","3RKHNXPHGWIRLJ219DNI80W3E6SKUF","","<img src=""img/set1/S4.jpg"" width=""540"" height = ""360"" style=""border:16px solid orange"">","null","","","","","","","","","",""
"null","","html-keyboard-response","18","82912","0.0-18.0","39PAAFCODNMSN1FIZEGHUWH4JFNTVD","A3KF6O09H04SP7","3RKHNXPHGWIRLJ219DNI80W3E6SKUF","","","null","","","","","","","","","",""
"887.4000000059605","","image-keyboard-response","19","83804","0.0-19.0","39PAAFCODNMSN1FIZEGHUWH4JFNTVD","A3KF6O09H04SP7","3RKHNXPHGWIRLJ219DNI80W3E6SKUF","","img/set1/S2.jpg","68","2","random","68","random,structured_normal,structured_incentive,structured_load","","3,4,2,1","true","","",""
"null","","html-keyboard-response","20","84157","0.0-20.0","39PAAFCODNMSN1FIZEGHUWH4JFNTVD","A3KF6O09H04SP7","3RKHNXPHGWIRLJ219DNI80W3E6SKUF","","<img src=""img/set1/S2.jpg"" width=""540"" height = ""360"" style=""border:16px solid orange"">","null","","","","","","","","","",""
"null","","html-keyboard-response","21","84359","0.0-21.0","39PAAFCODNMSN1FIZEGHUWH4JFNTVD","A3KF6O09H04SP7","3RKHNXPHGWIRLJ219DNI80W3E6SKUF","","","null","","","","","","","","","",""
"618.3999999761581","","image-keyboard-response","22","84981","0.0-22.0","39PAAFCODNMSN1FIZEGHUWH4JFNTVD","A3KF6O09H04SP7","3RKHNXPHGWIRLJ219DNI80W3E6SKUF","","img/set1/S4.jpg","74","4","random","74","random,structured_normal,structured_incentive,structured_load","","3,4,2,1","true","","",""
"null","","html-keyboard-response","23","85348","0.0-23.0","39PAAFCODNMSN1FIZEGHUWH4JFNTVD","A3KF6O09H04SP7","3RKHNXPHGWIRLJ219DNI80W3E6SKUF","","<img src=""img/set1/S4.jpg"" width=""540"" height = ""360"" style=""border:16px solid orange"">","null","","","","","","","","","",""
"null","","html-keyboard-response","24","85573","0.0-24.0","39PAAFCODNMSN1FIZEGHUWH4JFNTVD","A3KF6O09H04SP7","3RKHNXPHGWIRLJ219DNI80W3E6SKUF","","","null","","","","","","","","","",""
"668.0999999940395","","image-keyboard-response","25","86243","0.0-25.0","39PAAFCODNMSN1FIZEGHUWH4JFNTVD","A3KF6O09H04SP7","3RKHNXPHGWIRLJ219DNI80W3E6SKUF","","img/set1/S3.jpg","83","3","random","72","random,structured_normal,structured_incentive,structured_load","","3,4,2,1","false","","",""
"null","","html-keyboard-response","26","86596","0.0-26.0","39PAAFCODNMSN1FIZEGHUWH4JFNTVD","A3KF6O09H04SP7","3RKHNXPHGWIRLJ219DNI80W3E6SKUF","","<img src=""img/set1/S3.jpg"" width=""540"" height = ""360"">","null","","","","","","","","","",""
"null","","html-keyboard-response","27","86799","0.0-27.0","39PAAFCODNMSN1FIZEGHUWH4JFNTVD","A3KF6O09H04SP7","3RKHNXPHGWIRLJ219DNI80W3E6SKUF","","","null","","","","","","","","","",""
"826.5","","image-keyboard-response","28","87626","0.0-28.0","39PAAFCODNMSN1FIZEGHUWH4JFNTVD","A3KF6O09H04SP7","3RKHNXPHGWIRLJ219DNI80W3E6SKUF","","img/set1/S1.jpg","72","1","random","83","random,structured_normal,structured_incentive,structured_load","","3,4,2,1","false","","",""
"null","","html-keyboard-response","29","87979","0.0-29.0","39PAAFCODNMSN1FIZEGHUWH4JFNTVD","A3KF6O09H04SP7","3RKHNXPHGWIRLJ219DNI80W3E6SKUF","","<img src=""img/set1/S1.jpg"" width=""540"" height = ""360"">","null","","","","","","","","","",""
"null","","html-keyboard-response","30","88181","0.0-30.0","39PAAFCODNMSN1FIZEGHUWH4JFNTVD","A3KF6O09H04SP7","3RKHNXPHGWIRLJ219DNI80W3E6SKUF","","","null","","","","","","","","","",""
"549.2000000178814","","image-keyboard-response","31","88732","0.0-31.0","39PAAFCODNMSN1FIZEGHUWH4JFNTVD","A3KF6O09H04SP7","3RKHNXPHGWIRLJ219DNI80W3E6SKUF","","img/set1/S1.jpg","83","1","random","83","random,structured_normal,structured_incentive,structured_load","","3,4,2,1","true","","",""
"null","","html-keyboard-response","32","89087","0.0-32.0","39PAAFCODNMSN1FIZEGHUWH4JFNTVD","A3KF6O09H04SP7","3RKHNXPHGWIRLJ219DNI80W3E6SKUF","","<img src=""img/set1/S1.jpg"" width=""540"" height = ""360"" style=""border:16px solid orange"">","null","","","","","","","","","",""
"null","","html-keyboard-response","33","89290","0.0-33.0","39PAAFCODNMSN1FIZEGHUWH4JFNTVD","A3KF6O09H04SP7","3RKHNXPHGWIRLJ219DNI80W3E6SKUF","","","null","","","","","","","","","",""
"872.2000000178814","","image-keyboard-response","34","90164","0.0-34.0","39PAAFCODNMSN1FIZEGHUWH4JFNTVD","A3KF6O09H04SP7","3RKHNXPHGWIRLJ219DNI80W3E6SKUF","","img/set1/S3.jpg","68","3","random","72","random,structured_normal,structured_incentive,structured_load","","3,4,2,1","false","","",""
"null","","html-keyboard-response","35","90523","0.0-35.0","39PAAFCODNMSN1FIZEGHUWH4JFNTVD","A3KF6O09H04SP7","3RKHNXPHGWIRLJ219DNI80W3E6SKUF","","<img src=""img/set1/S3.jpg"" width=""540"" height = ""360"">","null","","","","","","","","","",""
"null","","html-keyboard-response","36","90726","0.0-36.0","39PAAFCODNMSN1FIZEGHUWH4JFNTVD","A3KF6O09H04SP7","3RKHNXPHGWIRLJ219DNI80W3E6SKUF","","","null","","","","","","","","","",""
"698.4000000059605","","image-keyboard-response","37","91427","0.0-37.0","39PAAFCODNMSN1FIZEGHUWH4JFNTVD","A3KF6O09H04SP7","3RKHNXPHGWIRLJ219DNI80W3E6SKUF","","img/set1/S3.jpg","72","3","random","72","random,structured_normal,structured_incentive,structured_load","","3,4,2,1","true","","",""
"null","","html-keyboard-response","38","91780","0.0-38.0","39PAAFCODNMSN1FIZEGHUWH4JFNTVD","A3KF6O09H04SP7","3RKHNXPHGWIRLJ219DNI80W3E6SKUF","","<img src=""img/set1/S3.jpg"" width=""540"" height = ""360"" style=""border:16px solid orange"">","null","","","","","","","","","",""
"null","","html-keyboard-response","39","91983","0.0-39.0","39PAAFCODNMSN1FIZEGHUWH4JFNTVD","A3KF6O09H04SP7","3RKHNXPHGWIRLJ219DNI80W3E6SKUF","","","null","","","","","","","","","",""
"492.2000000178814","","image-keyboard-response","40","92479","0.0-40.0","39PAAFCODNMSN1FIZEGHUWH4JFNTVD","A3KF6O09H04SP7","3RKHNXPHGWIRLJ219DNI80W3E6SKUF","","img/set1/S3.jpg","72","3","random","72","random,structured_normal,structured_incentive,structured_load","","3,4,2,1","true","","",""
"null","","html-keyboard-response","41","92834","0.0-41.0","39PAAFCODNMSN1FIZEGHUWH4JFNTVD","A3KF6O09H04SP7","3RKHNXPHGWIRLJ219DNI80W3E6SKUF","","<img src=""img/set1/S3.jpg"" width=""540"" height = ""360"" style=""border:16px solid orange"">","null","","","","","","","","","",""
"null","","html-keyboard-response","42","93038","0.0-42.0","39PAAFCODNMSN1FIZEGHUWH4JFNTVD","A3KF6O09H04SP7","3RKHNXPHGWIRLJ219DNI80W3E6SKUF","","","null","","","","","","","","","",""
"1149.7999999821186","","image-keyboard-response","43","94191","0.0-43.0","39PAAFCODNMSN1FIZEGHUWH4JFNTVD","A3KF6O09H04SP7","3RKHNXPHGWIRLJ219DNI80W3E6SKUF","","img/set1/S2.jpg","83","2","random","68","random,structured_normal,structured_incentive,structured_load","","3,4,2,1","false","","",""
"null","","html-keyboard-response","44","94545","0.0-44.0","39PAAFCODNMSN1FIZEGHUWH4JFNTVD","A3KF6O09H04SP7","3RKHNXPHGWIRLJ219DNI80W3E6SKUF","","<img src=""img/set1/S2.jpg"" width=""540"" height = ""360"">","null","","","","","","","","","",""
"null","","html-keyboard-response","45","94747","0.0-45.0","39PAAFCODNMSN1FIZEGHUWH4JFNTVD","A3KF6O09H04SP7","3RKHNXPHGWIRLJ219DNI80W3E6SKUF","","","null","","","","","","","","","",""
"597.9000000059605","","image-keyboard-response","46","95347","0.0-46.0","39PAAFCODNMSN1FIZEGHUWH4JFNTVD","A3KF6O09H04SP7","3RKHNXPHGWIRLJ219DNI80W3E6SKUF","","img/set1/S2.jpg","68","2","random","68","random,structured_normal,structured_incentive,structured_load","","3,4,2,1","true","","",""
"null","","html-keyboard-response","47","95714","0.0-47.0","39PAAFCODNMSN1FIZEGHUWH4JFNTVD","A3KF6O09H04SP7","3RKHNXPHGWIRLJ219DNI80W3E6SKUF","","<img src=""img/set1/S2.jpg"" width=""540"" height = ""360"" style=""border:16px solid orange"">","null","","","","","","","","","",""
"null","","html-keyboard-response","48","95916","0.0-48.0","39PAAFCODNMSN1FIZEGHUWH4JFNTVD","A3KF6O09H04SP7","3RKHNXPHGWIRLJ219DNI80W3E6SKUF","","","null","","","","","","","","","",""
"781.0999999940395","","image-keyboard-response","49","96699","0.0-49.0","39PAAFCODNMSN1FIZEGHUWH4JFNTVD","A3KF6O09H04SP7","3RKHNXPHGWIRLJ219DNI80W3E6SKUF","","img/set1/S4.jpg","74","4","random","74","random,structured_normal,structured_incentive,structured_load","","3,4,2,1","true","","",""
"null","","html-keyboard-response","50","97052","0.0-50.0","39PAAFCODNMSN1FIZEGHUWH4JFNTVD","A3KF6O09H04SP7","3RKHNXPHGWIRLJ219DNI80W3E6SKUF","","<img src=""img/set1/S4.jpg"" width=""540"" height = ""360"" style=""border:16px solid orange"">","null","","","","","","","","","",""
"null","","html-keyboard-response","51","97254","0.0-51.0","39PAAFCODNMSN1FIZEGHUWH4JFNTVD","A3KF6O09H04SP7","3RKHNXPHGWIRLJ219DNI80W3E6SKUF","","","null","","","","","","","","","",""
"452.09999999403954","","image-keyboard-response","52","97710","0.0-52.0","39PAAFCODNMSN1FIZEGHUWH4JFNTVD","A3KF6O09H04SP7","3RKHNXPHGWIRLJ219DNI80W3E6SKUF","","img/set1/S4.jpg","74","4","random","74","random,structured_normal,structured_incentive,structured_load","","3,4,2,1","true","","",""
"null","","html-keyboard-response","53","98066","0.0-53.0","39PAAFCODNMSN1FIZEGHUWH4JFNTVD","A3KF6O09H04SP7","3RKHNXPHGWIRLJ219DNI80W3E6SKUF","","<img src=""img/set1/S4.jpg"" width=""540"" height = ""360"" style=""border:16px solid orange"">","null","","","","","","","","","",""
"null","","html-keyboard-response","54","98268","0.0-54.0","39PAAFCODNMSN1FIZEGHUWH4JFNTVD","A3KF6O09H04SP7","3RKHNXPHGWIRLJ219DNI80W3E6SKUF","","","null","","","","","","","","","",""
"944.1999999880791","","image-keyboard-response","55","99215","0.0-55.0","39PAAFCODNMSN1FIZEGHUWH4JFNTVD","A3KF6O09H04SP7","3RKHNXPHGWIRLJ219DNI80W3E6SKUF","","img/set1/S3.jpg","68","3","random","72","random,structured_normal,structured_incentive,structured_load","","3,4,2,1","false","","",""
"null","","html-keyboard-response","56","99570","0.0-56.0","39PAAFCODNMSN1FIZEGHUWH4JFNTVD","A3KF6O09H04SP7","3RKHNXPHGWIRLJ219DNI80W3E6SKUF","","<img src=""img/set1/S3.jpg"" width=""540"" height = ""360"">","null","","","","","","","","","",""
"null","","html-keyboard-response","57","99772","0.0-57.0","39PAAFCODNMSN1FIZEGHUWH4JFNTVD","A3KF6O09H04SP7","3RKHNXPHGWIRLJ219DNI80W3E6SKUF","","","null","","","","","","","","","",""
"853.1999999880791","","image-keyboard-response","58","100627","0.0-58.0","39PAAFCODNMSN1FIZEGHUWH4JFNTVD","A3KF6O09H04SP7","3RKHNXPHGWIRLJ219DNI80W3E6SKUF","","img/set1/S1.jpg","72","1","random","83","random,structured_normal,structured_incentive,structured_load","","3,4,2,1","false","","",""
"null","","html-keyboard-response","59","100982","0.0-59.0","39PAAFCODNMSN1FIZEGHUWH4JFNTVD","A3KF6O09H04SP7","3RKHNXPHGWIRLJ219DNI80W3E6SKUF","","<img src=""img/set1/S1.jpg"" width=""540"" height = ""360"">","null","","","","","","","","","",""
"null","","html-keyboard-response","60","101184","0.0-60.0","39PAAFCODNMSN1FIZEGHUWH4JFNTVD","A3KF6O09H04SP7","3RKHNXPHGWIRLJ219DNI80W3E6SKUF","","","null","","","","","","","","","",""
"880.4000000059605","","image-keyboard-response","61","102067","0.0-61.0","39PAAFCODNMSN1FIZEGHUWH4JFNTVD","A3KF6O09H04SP7","3RKHNXPHGWIRLJ219DNI80W3E6SKUF","","img/set1/S4.jpg","74","4","random","74","random,structured_normal,structured_incentive,structured_load","","3,4,2,1","true","","",""
"null","","html-keyboard-response","62","102421","0.0-62.0","39PAAFCODNMSN1FIZEGHUWH4JFNTVD","A3KF6O09H04SP7","3RKHNXPHGWIRLJ219DNI80W3E6SKUF","","<img src=""img/set1/S4.jpg"" width=""540"" height = ""360"" style=""border:16px solid orange"">","null","","","","","","","","","",""
"null","","html-keyboard-response","63","102624","0.0-63.0","39PAAFCODNMSN1FIZEGHUWH4JFNTVD","A3KF6O09H04SP7","3RKHNXPHGWIRLJ219DNI80W3E6SKUF","","","null","","","","","","","","","",""
"1026.5999999940395","","image-keyboard-response","64","103653","0.0-64.0","39PAAFCODNMSN1FIZEGHUWH4JFNTVD","A3KF6O09H04SP7","3RKHNXPHGWIRLJ219DNI80W3E6SKUF","","img/set1/S1.jpg","83","1","random","83","random,structured_normal,structured_incentive,structured_load","","3,4,2,1","true","","",""
"null","","html-keyboard-response","65","104006","0.0-65.0","39PAAFCODNMSN1FIZEGHUWH4JFNTVD","A3KF6O09H04SP7","3RKHNXPHGWIRLJ219DNI80W3E6SKUF","","<img src=""img/set1/S1.jpg"" width=""540"" height = ""360"" style=""border:16px solid orange"">","null","","","","","","","","","",""
"null","","html-keyboard-response","66","104208","0.0-66.0","39PAAFCODNMSN1FIZEGHUWH4JFNTVD","A3KF6O09H04SP7","3RKHNXPHGWIRLJ219DNI80W3E6SKUF","","","null","","","","","","","","","",""
"964.3000000119209","","image-keyboard-response","67","105176","0.0-67.0","39PAAFCODNMSN1FIZEGHUWH4JFNTVD","A3KF6O09H04SP7","3RKHNXPHGWIRLJ219DNI80W3E6SKUF","","img/set1/S2.jpg","72","2","random","68","random,structured_normal,structured_incentive,structured_load","","3,4,2,1","false","","",""
"null","","html-keyboard-response","68","105530","0.0-68.0","39PAAFCODNMSN1FIZEGHUWH4JFNTVD","A3KF6O09H04SP7","3RKHNXPHGWIRLJ219DNI80W3E6SKUF","","<img src=""img/set1/S2.jpg"" width=""540"" height = ""360"">","null","","","","","","","","","",""
"null","","html-keyboard-response","69","105732","0.0-69.0","39PAAFCODNMSN1FIZEGHUWH4JFNTVD","A3KF6O09H04SP7","3RKHNXPHGWIRLJ219DNI80W3E6SKUF","","","null","","","","","","","","","",""
"755.3999999761581","","image-keyboard-response","70","106493","0.0-70.0","39PAAFCODNMSN1FIZEGHUWH4JFNTVD","A3KF6O09H04SP7","3RKHNXPHGWIRLJ219DNI80W3E6SKUF","","img/set1/S4.jpg","74","4","random","74","random,structured_normal,structured_incentive,structured_load","","3,4,2,1","true","","",""
"null","","html-keyboard-response","71","106846","0.0-71.0","39PAAFCODNMSN1FIZEGHUWH4JFNTVD","A3KF6O09H04SP7","3RKHNXPHGWIRLJ219DNI80W3E6SKUF","","<img src=""img/set1/S4.jpg"" width=""540"" height = ""360"" style=""border:16px solid orange"">","null","","","","","","","","","",""
"null","","html-keyboard-response","72","107050","0.0-72.0","39PAAFCODNMSN1FIZEGHUWH4JFNTVD","A3KF6O09H04SP7","3RKHNXPHGWIRLJ219DNI80W3E6SKUF","","","null","","","","","","","","","",""
"1288.9000000059605","","image-keyboard-response","73","108341","0.0-73.0","39PAAFCODNMSN1FIZEGHUWH4JFNTVD","A3KF6O09H04SP7","3RKHNXPHGWIRLJ219DNI80W3E6SKUF","","img/set1/S1.jpg","72","1","random","83","random,structured_normal,structured_incentive,structured_load","","3,4,2,1","false","","",""
"null","","html-keyboard-response","74","108697","0.0-74.0","39PAAFCODNMSN1FIZEGHUWH4JFNTVD","A3KF6O09H04SP7","3RKHNXPHGWIRLJ219DNI80W3E6SKUF","","<img src=""img/set1/S1.jpg"" width=""540"" height = ""360"">","null","","","","","","","","","",""
"null","","html-keyboard-response","75","108900","0.0-75.0","39PAAFCODNMSN1FIZEGHUWH4JFNTVD","A3KF6O09H04SP7","3RKHNXPHGWIRLJ219DNI80W3E6SKUF","","","null","","","","","","","","","",""
"504.09999999403954","","image-keyboard-response","76","109407","0.0-76.0","39PAAFCODNMSN1FIZEGHUWH4JFNTVD","A3KF6O09H04SP7","3RKHNXPHGWIRLJ219DNI80W3E6SKUF","","img/set1/S1.jpg","68","1","random","83","random,structured_normal,structured_incentive,structured_load","","3,4,2,1","false","","",""
"null","","html-keyboard-response","77","109761","0.0-77.0","39PAAFCODNMSN1FIZEGHUWH4JFNTVD","A3KF6O09H04SP7","3RKHNXPHGWIRLJ219DNI80W3E6SKUF","","<img src=""img/set1/S1.jpg"" width=""540"" height = ""360"">","null","","","","","","","","","",""
"null","","html-keyboard-response","78","109964","0.0-78.0","39PAAFCODNMSN1FIZEGHUWH4JFNTVD","A3KF6O09H04SP7","3RKHNXPHGWIRLJ219DNI80W3E6SKUF","","","null","","","","","","","","","",""
"1470.800000011921","","image-keyboard-response","79","111438","0.0-79.0","39PAAFCODNMSN1FIZEGHUWH4JFNTVD","A3KF6O09H04SP7","3RKHNXPHGWIRLJ219DNI80W3E6SKUF","","img/set1/S2.jpg","72","2","random","68","random,structured_normal,structured_incentive,structured_load","","3,4,2,1","false","","",""
"null","","html-keyboard-response","80","111791","0.0-80.0","39PAAFCODNMSN1FIZEGHUWH4JFNTVD","A3KF6O09H04SP7","3RKHNXPHGWIRLJ219DNI80W3E6SKUF","","<img src=""img/set1/S2.jpg"" width=""540"" height = ""360"">","null","","","","","","","","","",""
"null","","html-keyboard-response","81","111993","0.0-81.0","39PAAFCODNMSN1FIZEGHUWH4JFNTVD","A3KF6O09H04SP7","3RKHNXPHGWIRLJ219DNI80W3E6SKUF","","","null","","","","","","","","","",""
"1073.4000000059605","","image-keyboard-response","82","113070","0.0-82.0","39PAAFCODNMSN1FIZEGHUWH4JFNTVD","A3KF6O09H04SP7","3RKHNXPHGWIRLJ219DNI80W3E6SKUF","","img/set1/S1.jpg","83","1","random","83","random,structured_normal,structured_incentive,structured_load","","3,4,2,1","true","","",""
"null","","html-keyboard-response","83","113426","0.0-83.0","39PAAFCODNMSN1FIZEGHUWH4JFNTVD","A3KF6O09H04SP7","3RKHNXPHGWIRLJ219DNI80W3E6SKUF","","<img src=""img/set1/S1.jpg"" width=""540"" height = ""360"" style=""border:16px solid orange"">","null","","","","","","","","","",""
"null","","html-keyboard-response","84","113629","0.0-84.0","39PAAFCODNMSN1FIZEGHUWH4JFNTVD","A3KF6O09H04SP7","3RKHNXPHGWIRLJ219DNI80W3E6SKUF","","","null","","","","","","","","","",""
"478","","image-keyboard-response","85","114110","0.0-85.0","39PAAFCODNMSN1FIZEGHUWH4JFNTVD","A3KF6O09H04SP7","3RKHNXPHGWIRLJ219DNI80W3E6SKUF","","img/set1/S1.jpg","83","1","random","83","random,structured_normal,structured_incentive,structured_load","","3,4,2,1","true","","",""
"null","","html-keyboard-response","86","114463","0.0-86.0","39PAAFCODNMSN1FIZEGHUWH4JFNTVD","A3KF6O09H04SP7","3RKHNXPHGWIRLJ219DNI80W3E6SKUF","","<img src=""img/set1/S1.jpg"" width=""540"" height = ""360"" style=""border:16px solid orange"">","null","","","","","","","","","",""
"null","","html-keyboard-response","87","114666","0.0-87.0","39PAAFCODNMSN1FIZEGHUWH4JFNTVD","A3KF6O09H04SP7","3RKHNXPHGWIRLJ219DNI80W3E6SKUF","","","null","","","","","","","","","",""
"843.5","","image-keyboard-response","88","115514","0.0-88.0","39PAAFCODNMSN1FIZEGHUWH4JFNTVD","A3KF6O09H04SP7","3RKHNXPHGWIRLJ219DNI80W3E6SKUF","","img/set1/S2.jpg","83","2","random","68","random,structured_normal,structured_incentive,structured_load","","3,4,2,1","false","","",""
"null","","html-keyboard-response","89","115867","0.0-89.0","39PAAFCODNMSN1FIZEGHUWH4JFNTVD","A3KF6O09H04SP7","3RKHNXPHGWIRLJ219DNI80W3E6SKUF","","<img src=""img/set1/S2.jpg"" width=""540"" height = ""360"">","null","","","","","","","","","",""
"null","","html-keyboard-response","90","116070","0.0-90.0","39PAAFCODNMSN1FIZEGHUWH4JFNTVD","A3KF6O09H04SP7","3RKHNXPHGWIRLJ219DNI80W3E6SKUF","","","null","","","","","","","","","",""
"613.9000000059605","","image-keyboard-response","91","116686","0.0-91.0","39PAAFCODNMSN1FIZEGHUWH4JFNTVD","A3KF6O09H04SP7","3RKHNXPHGWIRLJ219DNI80W3E6SKUF","","img/set1/S4.jpg","74","4","random","74","random,structured_normal,structured_incentive,structured_load","","3,4,2,1","true","","",""
"null","","html-keyboard-response","92","117040","0.0-92.0","39PAAFCODNMSN1FIZEGHUWH4JFNTVD","A3KF6O09H04SP7","3RKHNXPHGWIRLJ219DNI80W3E6SKUF","","<img src=""img/set1/S4.jpg"" width=""540"" height = ""360"" style=""border:16px solid orange"">","null","","","","","","","","","",""
"null","","html-keyboard-response","93","117244","0.0-93.0","39PAAFCODNMSN1FIZEGHUWH4JFNTVD","A3KF6O09H04SP7","3RKHNXPHGWIRLJ219DNI80W3E6SKUF","","","null","","","","","","","","","",""
"1127.300000011921","","image-keyboard-response","94","118373","0.0-94.0","39PAAFCODNMSN1FIZEGHUWH4JFNTVD","A3KF6O09H04SP7","3RKHNXPHGWIRLJ219DNI80W3E6SKUF","","img/set1/S3.jpg","68","3","random","72","random,structured_normal,structured_incentive,structured_load","","3,4,2,1","false","","",""
"null","","html-keyboard-response","95","118727","0.0-95.0","39PAAFCODNMSN1FIZEGHUWH4JFNTVD","A3KF6O09H04SP7","3RKHNXPHGWIRLJ219DNI80W3E6SKUF","","<img src=""img/set1/S3.jpg"" width=""540"" height = ""360"">","null","","","","","","","","","",""
"null","","html-keyboard-response","96","118931","0.0-96.0","39PAAFCODNMSN1FIZEGHUWH4JFNTVD","A3KF6O09H04SP7","3RKHNXPHGWIRLJ219DNI80W3E6SKUF","","","null","","","","","","","","","",""
"665.5","","image-keyboard-response","97","119598","0.0-97.0","39PAAFCODNMSN1FIZEGHUWH4JFNTVD","A3KF6O09H04SP7","3RKHNXPHGWIRLJ219DNI80W3E6SKUF","","img/set1/S4.jpg","74","4","random","74","random,structured_normal,structured_incentive,structured_load","","3,4,2,1","true","","",""
"null","","html-keyboard-response","98","119953","0.0-98.0","39PAAFCODNMSN1FIZEGHUWH4JFNTVD","A3KF6O09H04SP7","3RKHNXPHGWIRLJ219DNI80W3E6SKUF","","<img src=""img/set1/S4.jpg"" width=""540"" height = ""360"" style=""border:16px solid orange"">","null","","","","","","","","","",""
"null","","html-keyboard-response","99","120156","0.0-99.0","39PAAFCODNMSN1FIZEGHUWH4JFNTVD","A3KF6O09H04SP7","3RKHNXPHGWIRLJ219DNI80W3E6SKUF","","","null","","","","","","","","","",""
"586.7999999821186","","image-keyboard-response","100","120747","0.0-100.0","39PAAFCODNMSN1FIZEGHUWH4JFNTVD","A3KF6O09H04SP7","3RKHNXPHGWIRLJ219DNI80W3E6SKUF","","img/set1/S4.jpg","74","4","random","74","random,structured_normal,structured_incentive,structured_load","","3,4,2,1","true","","",""
"null","","html-keyboard-response","101","121114","0.0-101.0","39PAAFCODNMSN1FIZEGHUWH4JFNTVD","A3KF6O09H04SP7","3RKHNXPHGWIRLJ219DNI80W3E6SKUF","","<img src=""img/set1/S4.jpg"" width=""540"" height = ""360"" style=""border:16px solid orange"">","null","","","","","","","","","",""
"null","","html-keyboard-response","102","121315","0.0-102.0","39PAAFCODNMSN1FIZEGHUWH4JFNTVD","A3KF6O09H04SP7","3RKHNXPHGWIRLJ219DNI80W3E6SKUF","","","null","","","","","","","","","",""
"874.9000000059605","","image-keyboard-response","103","122193","0.0-103.0","39PAAFCODNMSN1FIZEGHUWH4JFNTVD","A3KF6O09H04SP7","3RKHNXPHGWIRLJ219DNI80W3E6SKUF","","img/set1/S3.jpg","83","3","random","72","random,structured_normal,structured_incentive,structured_load","","3,4,2,1","false","","",""
"null","","html-keyboard-response","104","122547","0.0-104.0","39PAAFCODNMSN1FIZEGHUWH4JFNTVD","A3KF6O09H04SP7","3RKHNXPHGWIRLJ219DNI80W3E6SKUF","","<img src=""img/set1/S3.jpg"" width=""540"" height = ""360"">","null","","","","","","","","","",""
"null","","html-keyboard-response","105","122750","0.0-105.0","39PAAFCODNMSN1FIZEGHUWH4JFNTVD","A3KF6O09H04SP7","3RKHNXPHGWIRLJ219DNI80W3E6SKUF","","","null","","","","","","","","","",""
"541.7999999821186","","image-keyboard-response","106","123295","0.0-106.0","39PAAFCODNMSN1FIZEGHUWH4JFNTVD","A3KF6O09H04SP7","3RKHNXPHGWIRLJ219DNI80W3E6SKUF","","img/set1/S4.jpg","74","4","random","74","random,structured_normal,structured_incentive,structured_load","","3,4,2,1","true","","",""
"null","","html-keyboard-response","107","123652","0.0-107.0","39PAAFCODNMSN1FIZEGHUWH4JFNTVD","A3KF6O09H04SP7","3RKHNXPHGWIRLJ219DNI80W3E6SKUF","","<img src=""img/set1/S4.jpg"" width=""540"" height = ""360"" style=""border:16px solid orange"">","null","","","","","","","","","",""
"null","","html-keyboard-response","108","123856","0.0-108.0","39PAAFCODNMSN1FIZEGHUWH4JFNTVD","A3KF6O09H04SP7","3RKHNXPHGWIRLJ219DNI80W3E6SKUF","","","null","","","","","","","","","",""
"470","","image-keyboard-response","109","124330","0.0-109.0","39PAAFCODNMSN1FIZEGHUWH4JFNTVD","A3KF6O09H04SP7","3RKHNXPHGWIRLJ219DNI80W3E6SKUF","","img/set1/S4.jpg","74","4","random","74","random,structured_normal,structured_incentive,structured_load","","3,4,2,1","true","","",""
"null","","html-keyboard-response","110","124684","0.0-110.0","39PAAFCODNMSN1FIZEGHUWH4JFNTVD","A3KF6O09H04SP7","3RKHNXPHGWIRLJ219DNI80W3E6SKUF","","<img src=""img/set1/S4.jpg"" width=""540"" height = ""360"" style=""border:16px solid orange"">","null","","","","","","","","","",""
"null","","html-keyboard-response","111","124887","0.0-111.0","39PAAFCODNMSN1FIZEGHUWH4JFNTVD","A3KF6O09H04SP7","3RKHNXPHGWIRLJ219DNI80W3E6SKUF","","","null","","","","","","","","","",""
"431.09999999403954","","image-keyboard-response","112","125322","0.0-112.0","39PAAFCODNMSN1FIZEGHUWH4JFNTVD","A3KF6O09H04SP7","3RKHNXPHGWIRLJ219DNI80W3E6SKUF","","img/set1/S4.jpg","74","4","random","74","random,structured_normal,structured_incentive,structured_load","","3,4,2,1","true","","",""
"null","","html-keyboard-response","113","125675","0.0-113.0","39PAAFCODNMSN1FIZEGHUWH4JFNTVD","A3KF6O09H04SP7","3RKHNXPHGWIRLJ219DNI80W3E6SKUF","","<img src=""img/set1/S4.jpg"" width=""540"" height = ""360"" style=""border:16px solid orange"">","null","","","","","","","","","",""
"null","","html-keyboard-response","114","125878","0.0-114.0","39PAAFCODNMSN1FIZEGHUWH4JFNTVD","A3KF6O09H04SP7","3RKHNXPHGWIRLJ219DNI80W3E6SKUF","","","null","","","","","","","","","",""
"422.59999999403954","","image-keyboard-response","115","126303","0.0-115.0","39PAAFCODNMSN1FIZEGHUWH4JFNTVD","A3KF6O09H04SP7","3RKHNXPHGWIRLJ219DNI80W3E6SKUF","","img/set1/S4.jpg","74","4","random","74","random,structured_normal,structured_incentive,structured_load","","3,4,2,1","true","","",""
"null","","html-keyboard-response","116","126658","0.0-116.0","39PAAFCODNMSN1FIZEGHUWH4JFNTVD","A3KF6O09H04SP7","3RKHNXPHGWIRLJ219DNI80W3E6SKUF","","<img src=""img/set1/S4.jpg"" width=""540"" height = ""360"" style=""border:16px solid orange"">","null","","","","","","","","","",""
"null","","html-keyboard-response","117","126863","0.0-117.0","39PAAFCODNMSN1FIZEGHUWH4JFNTVD","A3KF6O09H04SP7","3RKHNXPHGWIRLJ219DNI80W3E6SKUF","","","null","","","","","","","","","",""
"1031.0999999940395","","image-keyboard-response","118","127898","0.0-118.0","39PAAFCODNMSN1FIZEGHUWH4JFNTVD","A3KF6O09H04SP7","3RKHNXPHGWIRLJ219DNI80W3E6SKUF","","img/set1/S2.jpg","72","2","random","68","random,structured_normal,structured_incentive,structured_load","","3,4,2,1","false","","",""
"null","","html-keyboard-response","119","128252","0.0-119.0","39PAAFCODNMSN1FIZEGHUWH4JFNTVD","A3KF6O09H04SP7","3RKHNXPHGWIRLJ219DNI80W3E6SKUF","","<img src=""img/set1/S2.jpg"" width=""540"" height = ""360"">","null","","","","","","","","","",""
"null","","html-keyboard-response","120","128455","0.0-120.0","39PAAFCODNMSN1FIZEGHUWH4JFNTVD","A3KF6O09H04SP7","3RKHNXPHGWIRLJ219DNI80W3E6SKUF","","","null","","","","","","","","","",""
"950.4000000059605","","image-keyboard-response","121","129408","0.0-121.0","39PAAFCODNMSN1FIZEGHUWH4JFNTVD","A3KF6O09H04SP7","3RKHNXPHGWIRLJ219DNI80W3E6SKUF","","img/set1/S1.jpg","83","1","random","83","random,structured_normal,structured_incentive,structured_load","","3,4,2,1","true","","",""
"null","","html-keyboard-response","122","129762","0.0-122.0","39PAAFCODNMSN1FIZEGHUWH4JFNTVD","A3KF6O09H04SP7","3RKHNXPHGWIRLJ219DNI80W3E6SKUF","","<img src=""img/set1/S1.jpg"" width=""540"" height = ""360"" style=""border:16px solid orange"">","null","","","","","","","","","",""
"null","","html-keyboard-response","123","129967","0.0-123.0","39PAAFCODNMSN1FIZEGHUWH4JFNTVD","A3KF6O09H04SP7","3RKHNXPHGWIRLJ219DNI80W3E6SKUF","","","null","","","","","","","","","",""
"1335","","image-keyboard-response","124","131305","0.0-124.0","39PAAFCODNMSN1FIZEGHUWH4JFNTVD","A3KF6O09H04SP7","3RKHNXPHGWIRLJ219DNI80W3E6SKUF","","img/set1/S2.jpg","74","2","random","68","random,structured_normal,structured_incentive,structured_load","","3,4,2,1","false","","",""
"null","","html-keyboard-response","125","131660","0.0-125.0","39PAAFCODNMSN1FIZEGHUWH4JFNTVD","A3KF6O09H04SP7","3RKHNXPHGWIRLJ219DNI80W3E6SKUF","","<img src=""img/set1/S2.jpg"" width=""540"" height = ""360"">","null","","","","","","","","","",""
"null","","html-keyboard-response","126","131862","0.0-126.0","39PAAFCODNMSN1FIZEGHUWH4JFNTVD","A3KF6O09H04SP7","3RKHNXPHGWIRLJ219DNI80W3E6SKUF","","","null","","","","","","","","","",""
"576","","image-keyboard-response","127","132440","0.0-127.0","39PAAFCODNMSN1FIZEGHUWH4JFNTVD","A3KF6O09H04SP7","3RKHNXPHGWIRLJ219DNI80W3E6SKUF","","img/set1/S4.jpg","74","4","random","74","random,structured_normal,structured_incentive,structured_load","","3,4,2,1","true","","",""
"null","","html-keyboard-response","128","132793","0.0-128.0","39PAAFCODNMSN1FIZEGHUWH4JFNTVD","A3KF6O09H04SP7","3RKHNXPHGWIRLJ219DNI80W3E6SKUF","","<img src=""img/set1/S4.jpg"" width=""540"" height = ""360"" style=""border:16px solid orange"">","null","","","","","","","","","",""
"null","","html-keyboard-response","129","132997","0.0-129.0","39PAAFCODNMSN1FIZEGHUWH4JFNTVD","A3KF6O09H04SP7","3RKHNXPHGWIRLJ219DNI80W3E6SKUF","","","null","","","","","","","","","",""
"1158.699999988079","","image-keyboard-response","130","134158","0.0-130.0","39PAAFCODNMSN1FIZEGHUWH4JFNTVD","A3KF6O09H04SP7","3RKHNXPHGWIRLJ219DNI80W3E6SKUF","","img/set1/S3.jpg","68","3","random","72","random,structured_normal,structured_incentive,structured_load","","3,4,2,1","false","","",""
"null","","html-keyboard-response","131","134511","0.0-131.0","39PAAFCODNMSN1FIZEGHUWH4JFNTVD","A3KF6O09H04SP7","3RKHNXPHGWIRLJ219DNI80W3E6SKUF","","<img src=""img/set1/S3.jpg"" width=""540"" height = ""360"">","null","","","","","","","","","",""
"null","","html-keyboard-response","132","134715","0.0-132.0","39PAAFCODNMSN1FIZEGHUWH4JFNTVD","A3KF6O09H04SP7","3RKHNXPHGWIRLJ219DNI80W3E6SKUF","","","null","","","","","","","","","",""
"690","","image-keyboard-response","133","135407","0.0-133.0","39PAAFCODNMSN1FIZEGHUWH4JFNTVD","A3KF6O09H04SP7","3RKHNXPHGWIRLJ219DNI80W3E6SKUF","","img/set1/S4.jpg","74","4","random","74","random,structured_normal,structured_incentive,structured_load","","3,4,2,1","true","","",""
"null","","html-keyboard-response","134","135760","0.0-134.0","39PAAFCODNMSN1FIZEGHUWH4JFNTVD","A3KF6O09H04SP7","3RKHNXPHGWIRLJ219DNI80W3E6SKUF","","<img src=""img/set1/S4.jpg"" width=""540"" height = ""360"" style=""border:16px solid orange"">","null","","","","","","","","","",""
"null","","html-keyboard-response","135","135962","0.0-135.0","39PAAFCODNMSN1FIZEGHUWH4JFNTVD","A3KF6O09H04SP7","3RKHNXPHGWIRLJ219DNI80W3E6SKUF","","","null","","","","","","","","","",""
"780.0999999940395","","image-keyboard-response","136","136746","0.0-136.0","39PAAFCODNMSN1FIZEGHUWH4JFNTVD","A3KF6O09H04SP7","3RKHNXPHGWIRLJ219DNI80W3E6SKUF","","img/set1/S2.jpg","83","2","random","68","random,structured_normal,structured_incentive,structured_load","","3,4,2,1","false","","",""
"null","","html-keyboard-response","137","137101","0.0-137.0","39PAAFCODNMSN1FIZEGHUWH4JFNTVD","A3KF6O09H04SP7","3RKHNXPHGWIRLJ219DNI80W3E6SKUF","","<img src=""img/set1/S2.jpg"" width=""540"" height = ""360"">","null","","","","","","","","","",""
"null","","html-keyboard-response","138","137303","0.0-138.0","39PAAFCODNMSN1FIZEGHUWH4JFNTVD","A3KF6O09H04SP7","3RKHNXPHGWIRLJ219DNI80W3E6SKUF","","","null","","","","","","","","","",""
"847.5999999940395","","image-keyboard-response","139","138153","0.0-139.0","39PAAFCODNMSN1FIZEGHUWH4JFNTVD","A3KF6O09H04SP7","3RKHNXPHGWIRLJ219DNI80W3E6SKUF","","img/set1/S2.jpg","72","2","random","68","random,structured_normal,structured_incentive,structured_load","","3,4,2,1","false","","",""
"null","","html-keyboard-response","140","138508","0.0-140.0","39PAAFCODNMSN1FIZEGHUWH4JFNTVD","A3KF6O09H04SP7","3RKHNXPHGWIRLJ219DNI80W3E6SKUF","","<img src=""img/set1/S2.jpg"" width=""540"" height = ""360"">","null","","","","","","","","","",""
"null","","html-keyboard-response","141","138710","0.0-141.0","39PAAFCODNMSN1FIZEGHUWH4JFNTVD","A3KF6O09H04SP7","3RKHNXPHGWIRLJ219DNI80W3E6SKUF","","","null","","","","","","","","","",""
"384.90000000596046","","image-keyboard-response","142","139099","0.0-142.0","39PAAFCODNMSN1FIZEGHUWH4JFNTVD","A3KF6O09H04SP7","3RKHNXPHGWIRLJ219DNI80W3E6SKUF","","img/set1/S2.jpg","74","2","random","68","random,structured_normal,structured_incentive,structured_load","","3,4,2,1","false","","",""
"null","","html-keyboard-response","143","139454","0.0-143.0","39PAAFCODNMSN1FIZEGHUWH4JFNTVD","A3KF6O09H04SP7","3RKHNXPHGWIRLJ219DNI80W3E6SKUF","","<img src=""img/set1/S2.jpg"" width=""540"" height = ""360"">","null","","","","","","","","","",""
"null","","html-keyboard-response","144","139659","0.0-144.0","39PAAFCODNMSN1FIZEGHUWH4JFNTVD","A3KF6O09H04SP7","3RKHNXPHGWIRLJ219DNI80W3E6SKUF","","","null","","","","","","","","","",""
"691.6000000238419","","image-keyboard-response","145","140353","0.0-145.0","39PAAFCODNMSN1FIZEGHUWH4JFNTVD","A3KF6O09H04SP7","3RKHNXPHGWIRLJ219DNI80W3E6SKUF","","img/set1/S4.jpg","74","4","random","74","random,structured_normal,structured_incentive,structured_load","","3,4,2,1","true","","",""
"null","","html-keyboard-response","146","140706","0.0-146.0","39PAAFCODNMSN1FIZEGHUWH4JFNTVD","A3KF6O09H04SP7","3RKHNXPHGWIRLJ219DNI80W3E6SKUF","","<img src=""img/set1/S4.jpg"" width=""540"" height = ""360"" style=""border:16px solid orange"">","null","","","","","","","","","",""
"null","","html-keyboard-response","147","140908","0.0-147.0","39PAAFCODNMSN1FIZEGHUWH4JFNTVD","A3KF6O09H04SP7","3RKHNXPHGWIRLJ219DNI80W3E6SKUF","","","null","","","","","","","","","",""
"810.4000000059605","","image-keyboard-response","148","141720","0.0-148.0","39PAAFCODNMSN1FIZEGHUWH4JFNTVD","A3KF6O09H04SP7","3RKHNXPHGWIRLJ219DNI80W3E6SKUF","","img/set1/S3.jpg","72","3","random","72","random,structured_normal,structured_incentive,structured_load","","3,4,2,1","true","","",""
"null","","html-keyboard-response","149","142074","0.0-149.0","39PAAFCODNMSN1FIZEGHUWH4JFNTVD","A3KF6O09H04SP7","3RKHNXPHGWIRLJ219DNI80W3E6SKUF","","<img src=""img/set1/S3.jpg"" width=""540"" height = ""360"" style=""border:16px solid orange"">","null","","","","","","","","","",""
"null","","html-keyboard-response","150","142276","0.0-150.0","39PAAFCODNMSN1FIZEGHUWH4JFNTVD","A3KF6O09H04SP7","3RKHNXPHGWIRLJ219DNI80W3E6SKUF","","","null","","","","","","","","","",""
"460.69999998807907","","image-keyboard-response","151","142739","0.0-151.0","39PAAFCODNMSN1FIZEGHUWH4JFNTVD","A3KF6O09H04SP7","3RKHNXPHGWIRLJ219DNI80W3E6SKUF","","img/set1/S3.jpg","72","3","random","72","random,structured_normal,structured_incentive,structured_load","","3,4,2,1","true","","",""
"null","","html-keyboard-response","152","143098","0.0-152.0","39PAAFCODNMSN1FIZEGHUWH4JFNTVD","A3KF6O09H04SP7","3RKHNXPHGWIRLJ219DNI80W3E6SKUF","","<img src=""img/set1/S3.jpg"" width=""540"" height = ""360"" style=""border:16px solid orange"">","null","","","","","","","","","",""
"null","","html-keyboard-response","153","143302","0.0-153.0","39PAAFCODNMSN1FIZEGHUWH4JFNTVD","A3KF6O09H04SP7","3RKHNXPHGWIRLJ219DNI80W3E6SKUF","","","null","","","","","","","","","",""
"896.3000000119209","","image-keyboard-response","154","144201","0.0-154.0","39PAAFCODNMSN1FIZEGHUWH4JFNTVD","A3KF6O09H04SP7","3RKHNXPHGWIRLJ219DNI80W3E6SKUF","","img/set1/S1.jpg","83","1","random","83","random,structured_normal,structured_incentive,structured_load","","3,4,2,1","true","","",""
"null","","html-keyboard-response","155","144560","0.0-155.0","39PAAFCODNMSN1FIZEGHUWH4JFNTVD","A3KF6O09H04SP7","3RKHNXPHGWIRLJ219DNI80W3E6SKUF","","<img src=""img/set1/S1.jpg"" width=""540"" height = ""360"" style=""border:16px solid orange"">","null","","","","","","","","","",""
"null","","html-keyboard-response","156","144761","0.0-156.0","39PAAFCODNMSN1FIZEGHUWH4JFNTVD","A3KF6O09H04SP7","3RKHNXPHGWIRLJ219DNI80W3E6SKUF","","","null","","","","","","","","","",""
"502.90000000596046","","image-keyboard-response","157","145267","0.0-157.0","39PAAFCODNMSN1FIZEGHUWH4JFNTVD","A3KF6O09H04SP7","3RKHNXPHGWIRLJ219DNI80W3E6SKUF","","img/set1/S2.jpg","68","2","random","68","random,structured_normal,structured_incentive,structured_load","","3,4,2,1","true","","",""
"null","","html-keyboard-response","158","145622","0.0-158.0","39PAAFCODNMSN1FIZEGHUWH4JFNTVD","A3KF6O09H04SP7","3RKHNXPHGWIRLJ219DNI80W3E6SKUF","","<img src=""img/set1/S2.jpg"" width=""540"" height = ""360"" style=""border:16px solid orange"">","null","","","","","","","","","",""
"null","","html-keyboard-response","159","145825","0.0-159.0","39PAAFCODNMSN1FIZEGHUWH4JFNTVD","A3KF6O09H04SP7","3RKHNXPHGWIRLJ219DNI80W3E6SKUF","","","null","","","","","","","","","",""
"630.5999999940395","","image-keyboard-response","160","146456","0.0-160.0","39PAAFCODNMSN1FIZEGHUWH4JFNTVD","A3KF6O09H04SP7","3RKHNXPHGWIRLJ219DNI80W3E6SKUF","","img/set1/S4.jpg","74","4","random","74","random,structured_normal,structured_incentive,structured_load","","3,4,2,1","true","","",""
"null","","html-keyboard-response","161","146810","0.0-161.0","39PAAFCODNMSN1FIZEGHUWH4JFNTVD","A3KF6O09H04SP7","3RKHNXPHGWIRLJ219DNI80W3E6SKUF","","<img src=""img/set1/S4.jpg"" width=""540"" height = ""360"" style=""border:16px solid orange"">","null","","","","","","","","","",""
"null","","html-keyboard-response","162","147012","0.0-162.0","39PAAFCODNMSN1FIZEGHUWH4JFNTVD","A3KF6O09H04SP7","3RKHNXPHGWIRLJ219DNI80W3E6SKUF","","","null","","","","","","","","","",""
"980.4000000059605","","image-keyboard-response","163","147997","0.0-163.0","39PAAFCODNMSN1FIZEGHUWH4JFNTVD","A3KF6O09H04SP7","3RKHNXPHGWIRLJ219DNI80W3E6SKUF","","img/set1/S1.jpg","83","1","random","83","random,structured_normal,structured_incentive,structured_load","","3,4,2,1","true","","",""
"null","","html-keyboard-response","164","148351","0.0-164.0","39PAAFCODNMSN1FIZEGHUWH4JFNTVD","A3KF6O09H04SP7","3RKHNXPHGWIRLJ219DNI80W3E6SKUF","","<img src=""img/set1/S1.jpg"" width=""540"" height = ""360"" style=""border:16px solid orange"">","null","","","","","","","","","",""
"null","","html-keyboard-response","165","148553","0.0-165.0","39PAAFCODNMSN1FIZEGHUWH4JFNTVD","A3KF6O09H04SP7","3RKHNXPHGWIRLJ219DNI80W3E6SKUF","","","null","","","","","","","","","",""
"502.5","","image-keyboard-response","166","149058","0.0-166.0","39PAAFCODNMSN1FIZEGHUWH4JFNTVD","A3KF6O09H04SP7","3RKHNXPHGWIRLJ219DNI80W3E6SKUF","","img/set1/S1.jpg","83","1","random","83","random,structured_normal,structured_incentive,structured_load","","3,4,2,1","true","","",""
"null","","html-keyboard-response","167","149411","0.0-167.0","39PAAFCODNMSN1FIZEGHUWH4JFNTVD","A3KF6O09H04SP7","3RKHNXPHGWIRLJ219DNI80W3E6SKUF","","<img src=""img/set1/S1.jpg"" width=""540"" height = ""360"" style=""border:16px solid orange"">","null","","","","","","","","","",""
"null","","html-keyboard-response","168","149613","0.0-168.0","39PAAFCODNMSN1FIZEGHUWH4JFNTVD","A3KF6O09H04SP7","3RKHNXPHGWIRLJ219DNI80W3E6SKUF","","","null","","","","","","","","","",""
"498.09999999403954","","image-keyboard-response","169","150113","0.0-169.0","39PAAFCODNMSN1FIZEGHUWH4JFNTVD","A3KF6O09H04SP7","3RKHNXPHGWIRLJ219DNI80W3E6SKUF","","img/set1/S1.jpg","83","1","random","83","random,structured_normal,structured_incentive,structured_load","","3,4,2,1","true","","",""
"null","","html-keyboard-response","170","150468","0.0-170.0","39PAAFCODNMSN1FIZEGHUWH4JFNTVD","A3KF6O09H04SP7","3RKHNXPHGWIRLJ219DNI80W3E6SKUF","","<img src=""img/set1/S1.jpg"" width=""540"" height = ""360"" style=""border:16px solid orange"">","null","","","","","","","","","",""
"null","","html-keyboard-response","171","150670","0.0-171.0","39PAAFCODNMSN1FIZEGHUWH4JFNTVD","A3KF6O09H04SP7","3RKHNXPHGWIRLJ219DNI80W3E6SKUF","","","null","","","","","","","","","",""
"705.9000000059605","","image-keyboard-response","172","151378","0.0-172.0","39PAAFCODNMSN1FIZEGHUWH4JFNTVD","A3KF6O09H04SP7","3RKHNXPHGWIRLJ219DNI80W3E6SKUF","","img/set1/S4.jpg","74","4","random","74","random,structured_normal,structured_incentive,structured_load","","3,4,2,1","true","","",""
"null","","html-keyboard-response","173","151731","0.0-173.0","39PAAFCODNMSN1FIZEGHUWH4JFNTVD","A3KF6O09H04SP7","3RKHNXPHGWIRLJ219DNI80W3E6SKUF","","<img src=""img/set1/S4.jpg"" width=""540"" height = ""360"" style=""border:16px solid orange"">","null","","","","","","","","","",""
"null","","html-keyboard-response","174","151933","0.0-174.0","39PAAFCODNMSN1FIZEGHUWH4JFNTVD","A3KF6O09H04SP7","3RKHNXPHGWIRLJ219DNI80W3E6SKUF","","","null","","","","","","","","","",""
"755.7000000178814","","image-keyboard-response","175","152691","0.0-175.0","39PAAFCODNMSN1FIZEGHUWH4JFNTVD","A3KF6O09H04SP7","3RKHNXPHGWIRLJ219DNI80W3E6SKUF","","img/set1/S3.jpg","72","3","random","72","random,structured_normal,structured_incentive,structured_load","","3,4,2,1","true","","",""
"null","","html-keyboard-response","176","153048","0.0-176.0","39PAAFCODNMSN1FIZEGHUWH4JFNTVD","A3KF6O09H04SP7","3RKHNXPHGWIRLJ219DNI80W3E6SKUF","","<img src=""img/set1/S3.jpg"" width=""540"" height = ""360"" style=""border:16px solid orange"">","null","","","","","","","","","",""
"null","","html-keyboard-response","177","153251","0.0-177.0","39PAAFCODNMSN1FIZEGHUWH4JFNTVD","A3KF6O09H04SP7","3RKHNXPHGWIRLJ219DNI80W3E6SKUF","","","null","","","","","","","","","",""
"640.7000000178814","","image-keyboard-response","178","153898","0.0-178.0","39PAAFCODNMSN1FIZEGHUWH4JFNTVD","A3KF6O09H04SP7","3RKHNXPHGWIRLJ219DNI80W3E6SKUF","","img/set1/S2.jpg","68","2","random","68","random,structured_normal,structured_incentive,structured_load","","3,4,2,1","true","","",""
"null","","html-keyboard-response","179","154257","0.0-179.0","39PAAFCODNMSN1FIZEGHUWH4JFNTVD","A3KF6O09H04SP7","3RKHNXPHGWIRLJ219DNI80W3E6SKUF","","<img src=""img/set1/S2.jpg"" width=""540"" height = ""360"" style=""border:16px solid orange"">","null","","","","","","","","","",""
"null","","html-keyboard-response","180","154460","0.0-180.0","39PAAFCODNMSN1FIZEGHUWH4JFNTVD","A3KF6O09H04SP7","3RKHNXPHGWIRLJ219DNI80W3E6SKUF","","","null","","","","","","","","","",""
"638.4000000059605","","image-keyboard-response","181","155100","0.0-181.0","39PAAFCODNMSN1FIZEGHUWH4JFNTVD","A3KF6O09H04SP7","3RKHNXPHGWIRLJ219DNI80W3E6SKUF","","img/set1/S3.jpg","72","3","random","72","random,structured_normal,structured_incentive,structured_load","","3,4,2,1","true","","",""
"null","","html-keyboard-response","182","155452","0.0-182.0","39PAAFCODNMSN1FIZEGHUWH4JFNTVD","A3KF6O09H04SP7","3RKHNXPHGWIRLJ219DNI80W3E6SKUF","","<img src=""img/set1/S3.jpg"" width=""540"" height = ""360"" style=""border:16px solid orange"">","null","","","","","","","","","",""
"null","","html-keyboard-response","183","155655","0.0-183.0","39PAAFCODNMSN1FIZEGHUWH4JFNTVD","A3KF6O09H04SP7","3RKHNXPHGWIRLJ219DNI80W3E6SKUF","","","null","","","","","","","","","",""
"858.8000000119209","","image-keyboard-response","184","156516","0.0-184.0","39PAAFCODNMSN1FIZEGHUWH4JFNTVD","A3KF6O09H04SP7","3RKHNXPHGWIRLJ219DNI80W3E6SKUF","","img/set1/S1.jpg","83","1","random","83","random,structured_normal,structured_incentive,structured_load","","3,4,2,1","true","","",""
"null","","html-keyboard-response","185","156868","0.0-185.0","39PAAFCODNMSN1FIZEGHUWH4JFNTVD","A3KF6O09H04SP7","3RKHNXPHGWIRLJ219DNI80W3E6SKUF","","<img src=""img/set1/S1.jpg"" width=""540"" height = ""360"" style=""border:16px solid orange"">","null","","","","","","","","","",""
"null","","html-keyboard-response","186","157072","0.0-186.0","39PAAFCODNMSN1FIZEGHUWH4JFNTVD","A3KF6O09H04SP7","3RKHNXPHGWIRLJ219DNI80W3E6SKUF","","","null","","","","","","","","","",""
"520.8000000119209","","image-keyboard-response","187","157596","0.0-187.0","39PAAFCODNMSN1FIZEGHUWH4JFNTVD","A3KF6O09H04SP7","3RKHNXPHGWIRLJ219DNI80W3E6SKUF","","img/set1/S4.jpg","74","4","random","74","random,structured_normal,structured_incentive,structured_load","","3,4,2,1","true","","",""
"null","","html-keyboard-response","188","157950","0.0-188.0","39PAAFCODNMSN1FIZEGHUWH4JFNTVD","A3KF6O09H04SP7","3RKHNXPHGWIRLJ219DNI80W3E6SKUF","","<img src=""img/set1/S4.jpg"" width=""540"" height = ""360"" style=""border:16px solid orange"">","null","","","","","","","","","",""
"null","","html-keyboard-response","189","158152","0.0-189.0","39PAAFCODNMSN1FIZEGHUWH4JFNTVD","A3KF6O09H04SP7","3RKHNXPHGWIRLJ219DNI80W3E6SKUF","","","null","","","","","","","","","",""
"881.8999999761581","","image-keyboard-response","190","159037","0.0-190.0","39PAAFCODNMSN1FIZEGHUWH4JFNTVD","A3KF6O09H04SP7","3RKHNXPHGWIRLJ219DNI80W3E6SKUF","","img/set1/S2.jpg","68","2","random","68","random,structured_normal,structured_incentive,structured_load","","3,4,2,1","true","","",""
"null","","html-keyboard-response","191","159393","0.0-191.0","39PAAFCODNMSN1FIZEGHUWH4JFNTVD","A3KF6O09H04SP7","3RKHNXPHGWIRLJ219DNI80W3E6SKUF","","<img src=""img/set1/S2.jpg"" width=""540"" height = ""360"" style=""border:16px solid orange"">","null","","","","","","","","","",""
"null","","html-keyboard-response","192","159595","0.0-192.0","39PAAFCODNMSN1FIZEGHUWH4JFNTVD","A3KF6O09H04SP7","3RKHNXPHGWIRLJ219DNI80W3E6SKUF","","","null","","","","","","","","","",""
"422.09999999403954","","image-keyboard-response","193","160021","0.0-193.0","39PAAFCODNMSN1FIZEGHUWH4JFNTVD","A3KF6O09H04SP7","3RKHNXPHGWIRLJ219DNI80W3E6SKUF","","img/set1/S2.jpg","68","2","random","68","random,structured_normal,structured_incentive,structured_load","","3,4,2,1","true","","",""
"null","","html-keyboard-response","194","160374","0.0-194.0","39PAAFCODNMSN1FIZEGHUWH4JFNTVD","A3KF6O09H04SP7","3RKHNXPHGWIRLJ219DNI80W3E6SKUF","","<img src=""img/set1/S2.jpg"" width=""540"" height = ""360"" style=""border:16px solid orange"">","null","","","","","","","","","",""
"null","","html-keyboard-response","195","160577","0.0-195.0","39PAAFCODNMSN1FIZEGHUWH4JFNTVD","A3KF6O09H04SP7","3RKHNXPHGWIRLJ219DNI80W3E6SKUF","","","null","","","","","","","","","",""
"753.0999999940395","","image-keyboard-response","196","161332","0.0-196.0","39PAAFCODNMSN1FIZEGHUWH4JFNTVD","A3KF6O09H04SP7","3RKHNXPHGWIRLJ219DNI80W3E6SKUF","","img/set1/S1.jpg","83","1","random","83","random,structured_normal,structured_incentive,structured_load","","3,4,2,1","true","","",""
"null","","html-keyboard-response","197","161686","0.0-197.0","39PAAFCODNMSN1FIZEGHUWH4JFNTVD","A3KF6O09H04SP7","3RKHNXPHGWIRLJ219DNI80W3E6SKUF","","<img src=""img/set1/S1.jpg"" width=""540"" height = ""360"" style=""border:16px solid orange"">","null","","","","","","","","","",""
"null","","html-keyboard-response","198","161888","0.0-198.0","39PAAFCODNMSN1FIZEGHUWH4JFNTVD","A3KF6O09H04SP7","3RKHNXPHGWIRLJ219DNI80W3E6SKUF","","","null","","","","","","","","","",""
"378.19999998807907","","image-keyboard-response","199","162270","0.0-199.0","39PAAFCODNMSN1FIZEGHUWH4JFNTVD","A3KF6O09H04SP7","3RKHNXPHGWIRLJ219DNI80W3E6SKUF","","img/set1/S1.jpg","83","1","random","83","random,structured_normal,structured_incentive,structured_load","","3,4,2,1","true","","",""
"null","","html-keyboard-response","200","162627","0.0-200.0","39PAAFCODNMSN1FIZEGHUWH4JFNTVD","A3KF6O09H04SP7","3RKHNXPHGWIRLJ219DNI80W3E6SKUF","","<img src=""img/set1/S1.jpg"" width=""540"" height = ""360"" style=""border:16px solid orange"">","null","","","","","","","","","",""
"null","","html-keyboard-response","201","162832","0.0-201.0","39PAAFCODNMSN1FIZEGHUWH4JFNTVD","A3KF6O09H04SP7","3RKHNXPHGWIRLJ219DNI80W3E6SKUF","","","null","","","","","","","","","",""
"905.8000000119209","","image-keyboard-response","202","163740","0.0-202.0","39PAAFCODNMSN1FIZEGHUWH4JFNTVD","A3KF6O09H04SP7","3RKHNXPHGWIRLJ219DNI80W3E6SKUF","","img/set1/S2.jpg","68","2","random","68","random,structured_normal,structured_incentive,structured_load","","3,4,2,1","true","","",""
"null","","html-keyboard-response","203","164094","0.0-203.0","39PAAFCODNMSN1FIZEGHUWH4JFNTVD","A3KF6O09H04SP7","3RKHNXPHGWIRLJ219DNI80W3E6SKUF","","<img src=""img/set1/S2.jpg"" width=""540"" height = ""360"" style=""border:16px solid orange"">","null","","","","","","","","","",""
"null","","html-keyboard-response","204","164297","0.0-204.0","39PAAFCODNMSN1FIZEGHUWH4JFNTVD","A3KF6O09H04SP7","3RKHNXPHGWIRLJ219DNI80W3E6SKUF","","","null","","","","","","","","","",""
"513.2000000178814","","image-keyboard-response","205","164812","0.0-205.0","39PAAFCODNMSN1FIZEGHUWH4JFNTVD","A3KF6O09H04SP7","3RKHNXPHGWIRLJ219DNI80W3E6SKUF","","img/set1/S3.jpg","72","3","random","72","random,structured_normal,structured_incentive,structured_load","","3,4,2,1","true","","",""
"null","","html-keyboard-response","206","165166","0.0-206.0","39PAAFCODNMSN1FIZEGHUWH4JFNTVD","A3KF6O09H04SP7","3RKHNXPHGWIRLJ219DNI80W3E6SKUF","","<img src=""img/set1/S3.jpg"" width=""540"" height = ""360"" style=""border:16px solid orange"">","null","","","","","","","","","",""
"null","","html-keyboard-response","207","165368","0.0-207.0","39PAAFCODNMSN1FIZEGHUWH4JFNTVD","A3KF6O09H04SP7","3RKHNXPHGWIRLJ219DNI80W3E6SKUF","","","null","","","","","","","","","",""
"668.4000000059605","","image-keyboard-response","208","166039","0.0-208.0","39PAAFCODNMSN1FIZEGHUWH4JFNTVD","A3KF6O09H04SP7","3RKHNXPHGWIRLJ219DNI80W3E6SKUF","","img/set1/S2.jpg","83","2","random","68","random,structured_normal,structured_incentive,structured_load","","3,4,2,1","false","","",""
"null","","html-keyboard-response","209","166400","0.0-209.0","39PAAFCODNMSN1FIZEGHUWH4JFNTVD","A3KF6O09H04SP7","3RKHNXPHGWIRLJ219DNI80W3E6SKUF","","<img src=""img/set1/S2.jpg"" width=""540"" height = ""360"">","null","","","","","","","","","",""
"null","","html-keyboard-response","210","166601","0.0-210.0","39PAAFCODNMSN1FIZEGHUWH4JFNTVD","A3KF6O09H04SP7","3RKHNXPHGWIRLJ219DNI80W3E6SKUF","","","null","","","","","","","","","",""
"465.40000000596046","","image-keyboard-response","211","167071","0.0-211.0","39PAAFCODNMSN1FIZEGHUWH4JFNTVD","A3KF6O09H04SP7","3RKHNXPHGWIRLJ219DNI80W3E6SKUF","","img/set1/S2.jpg","68","2","random","68","random,structured_normal,structured_incentive,structured_load","","3,4,2,1","true","","",""
"null","","html-keyboard-response","212","167427","0.0-212.0","39PAAFCODNMSN1FIZEGHUWH4JFNTVD","A3KF6O09H04SP7","3RKHNXPHGWIRLJ219DNI80W3E6SKUF","","<img src=""img/set1/S2.jpg"" width=""540"" height = ""360"" style=""border:16px solid orange"">","null","","","","","","","","","",""
"null","","html-keyboard-response","213","167631","0.0-213.0","39PAAFCODNMSN1FIZEGHUWH4JFNTVD","A3KF6O09H04SP7","3RKHNXPHGWIRLJ219DNI80W3E6SKUF","","","null","","","","","","","","","",""
"810.1999999880791","","image-keyboard-response","214","168448","0.0-214.0","39PAAFCODNMSN1FIZEGHUWH4JFNTVD","A3KF6O09H04SP7","3RKHNXPHGWIRLJ219DNI80W3E6SKUF","","img/set1/S1.jpg","83","1","random","83","random,structured_normal,structured_incentive,structured_load","","3,4,2,1","true","","",""
"null","","html-keyboard-response","215","168802","0.0-215.0","39PAAFCODNMSN1FIZEGHUWH4JFNTVD","A3KF6O09H04SP7","3RKHNXPHGWIRLJ219DNI80W3E6SKUF","","<img src=""img/set1/S1.jpg"" width=""540"" height = ""360"" style=""border:16px solid orange"">","null","","","","","","","","","",""
"null","","html-keyboard-response","216","169005","0.0-216.0","39PAAFCODNMSN1FIZEGHUWH4JFNTVD","A3KF6O09H04SP7","3RKHNXPHGWIRLJ219DNI80W3E6SKUF","","","null","","","","","","","","","",""
"444.2000000178814","","image-keyboard-response","217","169452","0.0-217.0","39PAAFCODNMSN1FIZEGHUWH4JFNTVD","A3KF6O09H04SP7","3RKHNXPHGWIRLJ219DNI80W3E6SKUF","","img/set1/S2.jpg","68","2","random","68","random,structured_normal,structured_incentive,structured_load","","3,4,2,1","true","","",""
"null","","html-keyboard-response","218","169805","0.0-218.0","39PAAFCODNMSN1FIZEGHUWH4JFNTVD","A3KF6O09H04SP7","3RKHNXPHGWIRLJ219DNI80W3E6SKUF","","<img src=""img/set1/S2.jpg"" width=""540"" height = ""360"" style=""border:16px solid orange"">","null","","","","","","","","","",""
"null","","html-keyboard-response","219","170007","0.0-219.0","39PAAFCODNMSN1FIZEGHUWH4JFNTVD","A3KF6O09H04SP7","3RKHNXPHGWIRLJ219DNI80W3E6SKUF","","","null","","","","","","","","","",""
"498.40000000596046","","image-keyboard-response","220","170508","0.0-220.0","39PAAFCODNMSN1FIZEGHUWH4JFNTVD","A3KF6O09H04SP7","3RKHNXPHGWIRLJ219DNI80W3E6SKUF","","img/set1/S2.jpg","68","2","random","68","random,structured_normal,structured_incentive,structured_load","","3,4,2,1","true","","",""
"null","","html-keyboard-response","221","170862","0.0-221.0","39PAAFCODNMSN1FIZEGHUWH4JFNTVD","A3KF6O09H04SP7","3RKHNXPHGWIRLJ219DNI80W3E6SKUF","","<img src=""img/set1/S2.jpg"" width=""540"" height = ""360"" style=""border:16px solid orange"">","null","","","","","","","","","",""
"null","","html-keyboard-response","222","171065","0.0-222.0","39PAAFCODNMSN1FIZEGHUWH4JFNTVD","A3KF6O09H04SP7","3RKHNXPHGWIRLJ219DNI80W3E6SKUF","","","null","","","","","","","","","",""
"665.5999999940395","","image-keyboard-response","223","171733","0.0-223.0","39PAAFCODNMSN1FIZEGHUWH4JFNTVD","A3KF6O09H04SP7","3RKHNXPHGWIRLJ219DNI80W3E6SKUF","","img/set1/S4.jpg","74","4","random","74","random,structured_normal,structured_incentive,structured_load","","3,4,2,1","true","","",""
"null","","html-keyboard-response","224","172087","0.0-224.0","39PAAFCODNMSN1FIZEGHUWH4JFNTVD","A3KF6O09H04SP7","3RKHNXPHGWIRLJ219DNI80W3E6SKUF","","<img src=""img/set1/S4.jpg"" width=""540"" height = ""360"" style=""border:16px solid orange"">","null","","","","","","","","","",""
"null","","html-keyboard-response","225","172289","0.0-225.0","39PAAFCODNMSN1FIZEGHUWH4JFNTVD","A3KF6O09H04SP7","3RKHNXPHGWIRLJ219DNI80W3E6SKUF","","","null","","","","","","","","","",""
"769.9000000059605","","image-keyboard-response","226","173061","0.0-226.0","39PAAFCODNMSN1FIZEGHUWH4JFNTVD","A3KF6O09H04SP7","3RKHNXPHGWIRLJ219DNI80W3E6SKUF","","img/set1/S1.jpg","83","1","random","83","random,structured_normal,structured_incentive,structured_load","","3,4,2,1","true","","",""
"null","","html-keyboard-response","227","173420","0.0-227.0","39PAAFCODNMSN1FIZEGHUWH4JFNTVD","A3KF6O09H04SP7","3RKHNXPHGWIRLJ219DNI80W3E6SKUF","","<img src=""img/set1/S1.jpg"" width=""540"" height = ""360"" style=""border:16px solid orange"">","null","","","","","","","","","",""
"null","","html-keyboard-response","228","173623","0.0-228.0","39PAAFCODNMSN1FIZEGHUWH4JFNTVD","A3KF6O09H04SP7","3RKHNXPHGWIRLJ219DNI80W3E6SKUF","","","null","","","","","","","","","",""
"572.5999999940395","","image-keyboard-response","229","174199","0.0-229.0","39PAAFCODNMSN1FIZEGHUWH4JFNTVD","A3KF6O09H04SP7","3RKHNXPHGWIRLJ219DNI80W3E6SKUF","","img/set1/S3.jpg","72","3","random","72","random,structured_normal,structured_incentive,structured_load","","3,4,2,1","true","","",""
"null","","html-keyboard-response","230","174555","0.0-230.0","39PAAFCODNMSN1FIZEGHUWH4JFNTVD","A3KF6O09H04SP7","3RKHNXPHGWIRLJ219DNI80W3E6SKUF","","<img src=""img/set1/S3.jpg"" width=""540"" height = ""360"" style=""border:16px solid orange"">","null","","","","","","","","","",""
"null","","html-keyboard-response","231","174758","0.0-231.0","39PAAFCODNMSN1FIZEGHUWH4JFNTVD","A3KF6O09H04SP7","3RKHNXPHGWIRLJ219DNI80W3E6SKUF","","","null","","","","","","","","","",""
"670.0999999940395","","image-keyboard-response","232","175431","0.0-232.0","39PAAFCODNMSN1FIZEGHUWH4JFNTVD","A3KF6O09H04SP7","3RKHNXPHGWIRLJ219DNI80W3E6SKUF","","img/set1/S4.jpg","74","4","random","74","random,structured_normal,structured_incentive,structured_load","","3,4,2,1","true","","",""
"null","","html-keyboard-response","233","175785","0.0-233.0","39PAAFCODNMSN1FIZEGHUWH4JFNTVD","A3KF6O09H04SP7","3RKHNXPHGWIRLJ219DNI80W3E6SKUF","","<img src=""img/set1/S4.jpg"" width=""540"" height = ""360"" style=""border:16px solid orange"">","null","","","","","","","","","",""
"null","","html-keyboard-response","234","175989","0.0-234.0","39PAAFCODNMSN1FIZEGHUWH4JFNTVD","A3KF6O09H04SP7","3RKHNXPHGWIRLJ219DNI80W3E6SKUF","","","null","","","","","","","","","",""
"949.2999999821186","","image-keyboard-response","235","176942","0.0-235.0","39PAAFCODNMSN1FIZEGHUWH4JFNTVD","A3KF6O09H04SP7","3RKHNXPHGWIRLJ219DNI80W3E6SKUF","","img/set1/S1.jpg","83","1","random","83","random,structured_normal,structured_incentive,structured_load","","3,4,2,1","true","","",""
"null","","html-keyboard-response","236","177296","0.0-236.0","39PAAFCODNMSN1FIZEGHUWH4JFNTVD","A3KF6O09H04SP7","3RKHNXPHGWIRLJ219DNI80W3E6SKUF","","<img src=""img/set1/S1.jpg"" width=""540"" height = ""360"" style=""border:16px solid orange"">","null","","","","","","","","","",""
"null","","html-keyboard-response","237","177508","0.0-237.0","39PAAFCODNMSN1FIZEGHUWH4JFNTVD","A3KF6O09H04SP7","3RKHNXPHGWIRLJ219DNI80W3E6SKUF","","","null","","","","","","","","","",""
"646.3000000119209","","image-keyboard-response","238","178158","0.0-238.0","39PAAFCODNMSN1FIZEGHUWH4JFNTVD","A3KF6O09H04SP7","3RKHNXPHGWIRLJ219DNI80W3E6SKUF","","img/set1/S4.jpg","74","4","random","74","random,structured_normal,structured_incentive,structured_load","","3,4,2,1","true","","",""
"null","","html-keyboard-response","239","178512","0.0-239.0","39PAAFCODNMSN1FIZEGHUWH4JFNTVD","A3KF6O09H04SP7","3RKHNXPHGWIRLJ219DNI80W3E6SKUF","","<img src=""img/set1/S4.jpg"" width=""540"" height = ""360"" style=""border:16px solid orange"">","null","","","","","","","","","",""
"null","","html-keyboard-response","240","178716","0.0-240.0","39PAAFCODNMSN1FIZEGHUWH4JFNTVD","A3KF6O09H04SP7","3RKHNXPHGWIRLJ219DNI80W3E6SKUF","","","null","","","","","","","","","",""
"513.0999999940395","","image-keyboard-response","241","179232","0.0-241.0","39PAAFCODNMSN1FIZEGHUWH4JFNTVD","A3KF6O09H04SP7","3RKHNXPHGWIRLJ219DNI80W3E6SKUF","","img/set1/S4.jpg","74","4","random","74","random,structured_normal,structured_incentive,structured_load","","3,4,2,1","true","","",""
"null","","html-keyboard-response","242","179587","0.0-242.0","39PAAFCODNMSN1FIZEGHUWH4JFNTVD","A3KF6O09H04SP7","3RKHNXPHGWIRLJ219DNI80W3E6SKUF","","<img src=""img/set1/S4.jpg"" width=""540"" height = ""360"" style=""border:16px solid orange"">","null","","","","","","","","","",""
"null","","html-keyboard-response","243","179789","0.0-243.0","39PAAFCODNMSN1FIZEGHUWH4JFNTVD","A3KF6O09H04SP7","3RKHNXPHGWIRLJ219DNI80W3E6SKUF","","","null","","","","","","","","","",""
"510.39999997615814","","image-keyboard-response","244","180302","0.0-244.0","39PAAFCODNMSN1FIZEGHUWH4JFNTVD","A3KF6O09H04SP7","3RKHNXPHGWIRLJ219DNI80W3E6SKUF","","img/set1/S4.jpg","74","4","random","74","random,structured_normal,structured_incentive,structured_load","","3,4,2,1","true","","",""
"null","","html-keyboard-response","245","180655","0.0-245.0","39PAAFCODNMSN1FIZEGHUWH4JFNTVD","A3KF6O09H04SP7","3RKHNXPHGWIRLJ219DNI80W3E6SKUF","","<img src=""img/set1/S4.jpg"" width=""540"" height = ""360"" style=""border:16px solid orange"">","null","","","","","","","","","",""
"null","","html-keyboard-response","246","180857","0.0-246.0","39PAAFCODNMSN1FIZEGHUWH4JFNTVD","A3KF6O09H04SP7","3RKHNXPHGWIRLJ219DNI80W3E6SKUF","","","null","","","","","","","","","",""
"948.0999999940395","","image-keyboard-response","247","181808","0.0-247.0","39PAAFCODNMSN1FIZEGHUWH4JFNTVD","A3KF6O09H04SP7","3RKHNXPHGWIRLJ219DNI80W3E6SKUF","","img/set1/S2.jpg","68","2","random","68","random,structured_normal,structured_incentive,structured_load","","3,4,2,1","true","","",""
"null","","html-keyboard-response","248","182165","0.0-248.0","39PAAFCODNMSN1FIZEGHUWH4JFNTVD","A3KF6O09H04SP7","3RKHNXPHGWIRLJ219DNI80W3E6SKUF","","<img src=""img/set1/S2.jpg"" width=""540"" height = ""360"" style=""border:16px solid orange"">","null","","","","","","","","","",""
"null","","html-keyboard-response","249","182368","0.0-249.0","39PAAFCODNMSN1FIZEGHUWH4JFNTVD","A3KF6O09H04SP7","3RKHNXPHGWIRLJ219DNI80W3E6SKUF","","","null","","","","","","","","","",""
"637.2999999821186","","image-keyboard-response","250","183008","0.0-250.0","39PAAFCODNMSN1FIZEGHUWH4JFNTVD","A3KF6O09H04SP7","3RKHNXPHGWIRLJ219DNI80W3E6SKUF","","img/set1/S1.jpg","83","1","random","83","random,structured_normal,structured_incentive,structured_load","","3,4,2,1","true","","",""
"null","","html-keyboard-response","251","183365","0.0-251.0","39PAAFCODNMSN1FIZEGHUWH4JFNTVD","A3KF6O09H04SP7","3RKHNXPHGWIRLJ219DNI80W3E6SKUF","","<img src=""img/set1/S1.jpg"" width=""540"" height = ""360"" style=""border:16px solid orange"">","null","","","","","","","","","",""
"null","","html-keyboard-response","252","183567","0.0-252.0","39PAAFCODNMSN1FIZEGHUWH4JFNTVD","A3KF6O09H04SP7","3RKHNXPHGWIRLJ219DNI80W3E6SKUF","","","null","","","","","","","","","",""
"652.5","","image-keyboard-response","253","184222","0.0-253.0","39PAAFCODNMSN1FIZEGHUWH4JFNTVD","A3KF6O09H04SP7","3RKHNXPHGWIRLJ219DNI80W3E6SKUF","","img/set1/S4.jpg","74","4","random","74","random,structured_normal,structured_incentive,structured_load","","3,4,2,1","true","","",""
"null","","html-keyboard-response","254","184576","0.0-254.0","39PAAFCODNMSN1FIZEGHUWH4JFNTVD","A3KF6O09H04SP7","3RKHNXPHGWIRLJ219DNI80W3E6SKUF","","<img src=""img/set1/S4.jpg"" width=""540"" height = ""360"" style=""border:16px solid orange"">","null","","","","","","","","","",""
"null","","html-keyboard-response","255","184778","0.0-255.0","39PAAFCODNMSN1FIZEGHUWH4JFNTVD","A3KF6O09H04SP7","3RKHNXPHGWIRLJ219DNI80W3E6SKUF","","","null","","","","","","","","","",""
"528.9000000059605","","image-keyboard-response","256","185311","0.0-256.0","39PAAFCODNMSN1FIZEGHUWH4JFNTVD","A3KF6O09H04SP7","3RKHNXPHGWIRLJ219DNI80W3E6SKUF","","img/set1/S4.jpg","74","4","random","74","random,structured_normal,structured_incentive,structured_load","","3,4,2,1","true","","",""
"null","","html-keyboard-response","257","185665","0.0-257.0","39PAAFCODNMSN1FIZEGHUWH4JFNTVD","A3KF6O09H04SP7","3RKHNXPHGWIRLJ219DNI80W3E6SKUF","","<img src=""img/set1/S4.jpg"" width=""540"" height = ""360"" style=""border:16px solid orange"">","null","","","","","","","","","",""
"null","","html-keyboard-response","258","185869","0.0-258.0","39PAAFCODNMSN1FIZEGHUWH4JFNTVD","A3KF6O09H04SP7","3RKHNXPHGWIRLJ219DNI80W3E6SKUF","","","null","","","","","","","","","",""
"432","","image-keyboard-response","259","186304","0.0-259.0","39PAAFCODNMSN1FIZEGHUWH4JFNTVD","A3KF6O09H04SP7","3RKHNXPHGWIRLJ219DNI80W3E6SKUF","","img/set1/S4.jpg","74","4","random","74","random,structured_normal,structured_incentive,structured_load","","3,4,2,1","true","","",""
"null","","html-keyboard-response","260","186658","0.0-260.0","39PAAFCODNMSN1FIZEGHUWH4JFNTVD","A3KF6O09H04SP7","3RKHNXPHGWIRLJ219DNI80W3E6SKUF","","<img src=""img/set1/S4.jpg"" width=""540"" height = ""360"" style=""border:16px solid orange"">","null","","","","","","","","","",""
"null","","html-keyboard-response","261","186861","0.0-261.0","39PAAFCODNMSN1FIZEGHUWH4JFNTVD","A3KF6O09H04SP7","3RKHNXPHGWIRLJ219DNI80W3E6SKUF","","","null","","","","","","","","","",""
"926.0999999940395","","image-keyboard-response","262","187791","0.0-262.0","39PAAFCODNMSN1FIZEGHUWH4JFNTVD","A3KF6O09H04SP7","3RKHNXPHGWIRLJ219DNI80W3E6SKUF","","img/set1/S2.jpg","68","2","random","68","random,structured_normal,structured_incentive,structured_load","","3,4,2,1","true","","",""
"null","","html-keyboard-response","263","188148","0.0-263.0","39PAAFCODNMSN1FIZEGHUWH4JFNTVD","A3KF6O09H04SP7","3RKHNXPHGWIRLJ219DNI80W3E6SKUF","","<img src=""img/set1/S2.jpg"" width=""540"" height = ""360"" style=""border:16px solid orange"">","null","","","","","","","","","",""
"null","","html-keyboard-response","264","188354","0.0-264.0","39PAAFCODNMSN1FIZEGHUWH4JFNTVD","A3KF6O09H04SP7","3RKHNXPHGWIRLJ219DNI80W3E6SKUF","","","null","","","","","","","","","",""
"724.4000000059605","","image-keyboard-response","265","189081","0.0-265.0","39PAAFCODNMSN1FIZEGHUWH4JFNTVD","A3KF6O09H04SP7","3RKHNXPHGWIRLJ219DNI80W3E6SKUF","","img/set1/S4.jpg","74","4","random","74","random,structured_normal,structured_incentive,structured_load","","3,4,2,1","true","","",""
"null","","html-keyboard-response","266","189436","0.0-266.0","39PAAFCODNMSN1FIZEGHUWH4JFNTVD","A3KF6O09H04SP7","3RKHNXPHGWIRLJ219DNI80W3E6SKUF","","<img src=""img/set1/S4.jpg"" width=""540"" height = ""360"" style=""border:16px solid orange"">","null","","","","","","","","","",""
"null","","html-keyboard-response","267","189638","0.0-267.0","39PAAFCODNMSN1FIZEGHUWH4JFNTVD","A3KF6O09H04SP7","3RKHNXPHGWIRLJ219DNI80W3E6SKUF","","","null","","","","","","","","","",""
"503.30000001192093","","image-keyboard-response","268","190144","0.0-268.0","39PAAFCODNMSN1FIZEGHUWH4JFNTVD","A3KF6O09H04SP7","3RKHNXPHGWIRLJ219DNI80W3E6SKUF","","img/set1/S2.jpg","68","2","random","68","random,structured_normal,structured_incentive,structured_load","","3,4,2,1","true","","",""
"null","","html-keyboard-response","269","190499","0.0-269.0","39PAAFCODNMSN1FIZEGHUWH4JFNTVD","A3KF6O09H04SP7","3RKHNXPHGWIRLJ219DNI80W3E6SKUF","","<img src=""img/set1/S2.jpg"" width=""540"" height = ""360"" style=""border:16px solid orange"">","null","","","","","","","","","",""
"null","","html-keyboard-response","270","190702","0.0-270.0","39PAAFCODNMSN1FIZEGHUWH4JFNTVD","A3KF6O09H04SP7","3RKHNXPHGWIRLJ219DNI80W3E6SKUF","","","null","","","","","","","","","",""
"430.69999998807907","","image-keyboard-response","271","191135","0.0-271.0","39PAAFCODNMSN1FIZEGHUWH4JFNTVD","A3KF6O09H04SP7","3RKHNXPHGWIRLJ219DNI80W3E6SKUF","","img/set1/S2.jpg","68","2","random","68","random,structured_normal,structured_incentive,structured_load","","3,4,2,1","true","","",""
"null","","html-keyboard-response","272","191487","0.0-272.0","39PAAFCODNMSN1FIZEGHUWH4JFNTVD","A3KF6O09H04SP7","3RKHNXPHGWIRLJ219DNI80W3E6SKUF","","<img src=""img/set1/S2.jpg"" width=""540"" height = ""360"" style=""border:16px solid orange"">","null","","","","","","","","","",""
"null","","html-keyboard-response","273","191689","0.0-273.0","39PAAFCODNMSN1FIZEGHUWH4JFNTVD","A3KF6O09H04SP7","3RKHNXPHGWIRLJ219DNI80W3E6SKUF","","","null","","","","","","","","","",""
"947.4000000059605","","image-keyboard-response","274","192639","0.0-274.0","39PAAFCODNMSN1FIZEGHUWH4JFNTVD","A3KF6O09H04SP7","3RKHNXPHGWIRLJ219DNI80W3E6SKUF","","img/set1/S3.jpg","72","3","random","72","random,structured_normal,structured_incentive,structured_load","","3,4,2,1","true","","",""
"null","","html-keyboard-response","275","192994","0.0-275.0","39PAAFCODNMSN1FIZEGHUWH4JFNTVD","A3KF6O09H04SP7","3RKHNXPHGWIRLJ219DNI80W3E6SKUF","","<img src=""img/set1/S3.jpg"" width=""540"" height = ""360"" style=""border:16px solid orange"">","null","","","","","","","","","",""
"null","","html-keyboard-response","276","193197","0.0-276.0","39PAAFCODNMSN1FIZEGHUWH4JFNTVD","A3KF6O09H04SP7","3RKHNXPHGWIRLJ219DNI80W3E6SKUF","","","null","","","","","","","","","",""
"617","","image-keyboard-response","277","193818","0.0-277.0","39PAAFCODNMSN1FIZEGHUWH4JFNTVD","A3KF6O09H04SP7","3RKHNXPHGWIRLJ219DNI80W3E6SKUF","","img/set1/S1.jpg","83","1","random","83","random,structured_normal,structured_incentive,structured_load","","3,4,2,1","true","","",""
"null","","html-keyboard-response","278","194173","0.0-278.0","39PAAFCODNMSN1FIZEGHUWH4JFNTVD","A3KF6O09H04SP7","3RKHNXPHGWIRLJ219DNI80W3E6SKUF","","<img src=""img/set1/S1.jpg"" width=""540"" height = ""360"" style=""border:16px solid orange"">","null","","","","","","","","","",""
"null","","html-keyboard-response","279","194377","0.0-279.0","39PAAFCODNMSN1FIZEGHUWH4JFNTVD","A3KF6O09H04SP7","3RKHNXPHGWIRLJ219DNI80W3E6SKUF","","","null","","","","","","","","","",""
"613.3000000119209","","image-keyboard-response","280","194994","0.0-280.0","39PAAFCODNMSN1FIZEGHUWH4JFNTVD","A3KF6O09H04SP7","3RKHNXPHGWIRLJ219DNI80W3E6SKUF","","img/set1/S4.jpg","74","4","random","74","random,structured_normal,structured_incentive,structured_load","","3,4,2,1","true","","",""
"null","","html-keyboard-response","281","195349","0.0-281.0","39PAAFCODNMSN1FIZEGHUWH4JFNTVD","A3KF6O09H04SP7","3RKHNXPHGWIRLJ219DNI80W3E6SKUF","","<img src=""img/set1/S4.jpg"" width=""540"" height = ""360"" style=""border:16px solid orange"">","null","","","","","","","","","",""
"null","","html-keyboard-response","282","195551","0.0-282.0","39PAAFCODNMSN1FIZEGHUWH4JFNTVD","A3KF6O09H04SP7","3RKHNXPHGWIRLJ219DNI80W3E6SKUF","","","null","","","","","","","","","",""
"646.9000000059605","","image-keyboard-response","283","196202","0.0-283.0","39PAAFCODNMSN1FIZEGHUWH4JFNTVD","A3KF6O09H04SP7","3RKHNXPHGWIRLJ219DNI80W3E6SKUF","","img/set1/S3.jpg","72","3","random","72","random,structured_normal,structured_incentive,structured_load","","3,4,2,1","true","","",""
"null","","html-keyboard-response","284","196556","0.0-284.0","39PAAFCODNMSN1FIZEGHUWH4JFNTVD","A3KF6O09H04SP7","3RKHNXPHGWIRLJ219DNI80W3E6SKUF","","<img src=""img/set1/S3.jpg"" width=""540"" height = ""360"" style=""border:16px solid orange"">","null","","","","","","","","","",""
"null","","html-keyboard-response","285","196760","0.0-285.0","39PAAFCODNMSN1FIZEGHUWH4JFNTVD","A3KF6O09H04SP7","3RKHNXPHGWIRLJ219DNI80W3E6SKUF","","","null","","","","","","","","","",""
"686","","image-keyboard-response","286","197448","0.0-286.0","39PAAFCODNMSN1FIZEGHUWH4JFNTVD","A3KF6O09H04SP7","3RKHNXPHGWIRLJ219DNI80W3E6SKUF","","img/set1/S4.jpg","74","4","random","74","random,structured_normal,structured_incentive,structured_load","","3,4,2,1","true","","",""
"null","","html-keyboard-response","287","197803","0.0-287.0","39PAAFCODNMSN1FIZEGHUWH4JFNTVD","A3KF6O09H04SP7","3RKHNXPHGWIRLJ219DNI80W3E6SKUF","","<img src=""img/set1/S4.jpg"" width=""540"" height = ""360"" style=""border:16px solid orange"">","null","","","","","","","","","",""
"null","","html-keyboard-response","288","198005","0.0-288.0","39PAAFCODNMSN1FIZEGHUWH4JFNTVD","A3KF6O09H04SP7","3RKHNXPHGWIRLJ219DNI80W3E6SKUF","","","null","","","","","","","","","",""
"475.09999999403954","","image-keyboard-response","289","198482","0.0-289.0","39PAAFCODNMSN1FIZEGHUWH4JFNTVD","A3KF6O09H04SP7","3RKHNXPHGWIRLJ219DNI80W3E6SKUF","","img/set1/S4.jpg","74","4","random","74","random,structured_normal,structured_incentive,structured_load","","3,4,2,1","true","","",""
"null","","html-keyboard-response","290","198834","0.0-290.0","39PAAFCODNMSN1FIZEGHUWH4JFNTVD","A3KF6O09H04SP7","3RKHNXPHGWIRLJ219DNI80W3E6SKUF","","<img src=""img/set1/S4.jpg"" width=""540"" height = ""360"" style=""border:16px solid orange"">","null","","","","","","","","","",""
"null","","html-keyboard-response","291","199037","0.0-291.0","39PAAFCODNMSN1FIZEGHUWH4JFNTVD","A3KF6O09H04SP7","3RKHNXPHGWIRLJ219DNI80W3E6SKUF","","","null","","","","","","","","","",""
"656.2999999821186","","image-keyboard-response","292","199697","0.0-292.0","39PAAFCODNMSN1FIZEGHUWH4JFNTVD","A3KF6O09H04SP7","3RKHNXPHGWIRLJ219DNI80W3E6SKUF","","img/set1/S1.jpg","83","1","random","83","random,structured_normal,structured_incentive,structured_load","","3,4,2,1","true","","",""
"null","","html-keyboard-response","293","200050","0.0-293.0","39PAAFCODNMSN1FIZEGHUWH4JFNTVD","A3KF6O09H04SP7","3RKHNXPHGWIRLJ219DNI80W3E6SKUF","","<img src=""img/set1/S1.jpg"" width=""540"" height = ""360"" style=""border:16px solid orange"">","null","","","","","","","","","",""
"null","","html-keyboard-response","294","200255","0.0-294.0","39PAAFCODNMSN1FIZEGHUWH4JFNTVD","A3KF6O09H04SP7","3RKHNXPHGWIRLJ219DNI80W3E6SKUF","","","null","","","","","","","","","",""
"582.7999999821186","","image-keyboard-response","295","200840","0.0-295.0","39PAAFCODNMSN1FIZEGHUWH4JFNTVD","A3KF6O09H04SP7","3RKHNXPHGWIRLJ219DNI80W3E6SKUF","","img/set1/S4.jpg","74","4","random","74","random,structured_normal,structured_incentive,structured_load","","3,4,2,1","true","","",""
"null","","html-keyboard-response","296","201202","0.0-296.0","39PAAFCODNMSN1FIZEGHUWH4JFNTVD","A3KF6O09H04SP7","3RKHNXPHGWIRLJ219DNI80W3E6SKUF","","<img src=""img/set1/S4.jpg"" width=""540"" height = ""360"" style=""border:16px solid orange"">","null","","","","","","","","","",""
"null","","html-keyboard-response","297","201404","0.0-297.0","39PAAFCODNMSN1FIZEGHUWH4JFNTVD","A3KF6O09H04SP7","3RKHNXPHGWIRLJ219DNI80W3E6SKUF","","","null","","","","","","","","","",""
"1033.8999999761581","","image-keyboard-response","298","202440","0.0-298.0","39PAAFCODNMSN1FIZEGHUWH4JFNTVD","A3KF6O09H04SP7","3RKHNXPHGWIRLJ219DNI80W3E6SKUF","","img/set1/S2.jpg","72","2","random","68","random,structured_normal,structured_incentive,structured_load","","3,4,2,1","false","","",""
"null","","html-keyboard-response","299","202794","0.0-299.0","39PAAFCODNMSN1FIZEGHUWH4JFNTVD","A3KF6O09H04SP7","3RKHNXPHGWIRLJ219DNI80W3E6SKUF","","<img src=""img/set1/S2.jpg"" width=""540"" height = ""360"">","null","","","","","","","","","",""
"null","","html-keyboard-response","300","202997","0.0-300.0","39PAAFCODNMSN1FIZEGHUWH4JFNTVD","A3KF6O09H04SP7","3RKHNXPHGWIRLJ219DNI80W3E6SKUF","","","null","","","","","","","","","",""
"665.7999999821186","","image-keyboard-response","301","203666","0.0-301.0","39PAAFCODNMSN1FIZEGHUWH4JFNTVD","A3KF6O09H04SP7","3RKHNXPHGWIRLJ219DNI80W3E6SKUF","","img/set1/S4.jpg","74","4","random","74","random,structured_normal,structured_incentive,structured_load","","3,4,2,1","true","","",""
"null","","html-keyboard-response","302","204020","0.0-302.0","39PAAFCODNMSN1FIZEGHUWH4JFNTVD","A3KF6O09H04SP7","3RKHNXPHGWIRLJ219DNI80W3E6SKUF","","<img src=""img/set1/S4.jpg"" width=""540"" height = ""360"" style=""border:16px solid orange"">","null","","","","","","","","","",""
"null","","html-keyboard-response","303","204223","0.0-303.0","39PAAFCODNMSN1FIZEGHUWH4JFNTVD","A3KF6O09H04SP7","3RKHNXPHGWIRLJ219DNI80W3E6SKUF","","","null","","","","","","","","","",""
"615.5","","image-keyboard-response","304","204841","0.0-304.0","39PAAFCODNMSN1FIZEGHUWH4JFNTVD","A3KF6O09H04SP7","3RKHNXPHGWIRLJ219DNI80W3E6SKUF","","img/set1/S3.jpg","72","3","random","72","random,structured_normal,structured_incentive,structured_load","","3,4,2,1","true","","",""
"null","","html-keyboard-response","305","205195","0.0-305.0","39PAAFCODNMSN1FIZEGHUWH4JFNTVD","A3KF6O09H04SP7","3RKHNXPHGWIRLJ219DNI80W3E6SKUF","","<img src=""img/set1/S3.jpg"" width=""540"" height = ""360"" style=""border:16px solid orange"">","null","","","","","","","","","",""
"null","","html-keyboard-response","306","205397","0.0-306.0","39PAAFCODNMSN1FIZEGHUWH4JFNTVD","A3KF6O09H04SP7","3RKHNXPHGWIRLJ219DNI80W3E6SKUF","","","null","","","","","","","","","",""
"697.1000000238419","","image-keyboard-response","307","206096","0.0-307.0","39PAAFCODNMSN1FIZEGHUWH4JFNTVD","A3KF6O09H04SP7","3RKHNXPHGWIRLJ219DNI80W3E6SKUF","","img/set1/S1.jpg","83","1","random","83","random,structured_normal,structured_incentive,structured_load","","3,4,2,1","true","","",""
"null","","html-keyboard-response","308","206450","0.0-308.0","39PAAFCODNMSN1FIZEGHUWH4JFNTVD","A3KF6O09H04SP7","3RKHNXPHGWIRLJ219DNI80W3E6SKUF","","<img src=""img/set1/S1.jpg"" width=""540"" height = ""360"" style=""border:16px solid orange"">","null","","","","","","","","","",""
"null","","html-keyboard-response","309","206653","0.0-309.0","39PAAFCODNMSN1FIZEGHUWH4JFNTVD","A3KF6O09H04SP7","3RKHNXPHGWIRLJ219DNI80W3E6SKUF","","","null","","","","","","","","","",""
"545.3000000119209","","image-keyboard-response","310","207200","0.0-310.0","39PAAFCODNMSN1FIZEGHUWH4JFNTVD","A3KF6O09H04SP7","3RKHNXPHGWIRLJ219DNI80W3E6SKUF","","img/set1/S3.jpg","72","3","random","72","random,structured_normal,structured_incentive,structured_load","","3,4,2,1","true","","",""
"null","","html-keyboard-response","311","207554","0.0-311.0","39PAAFCODNMSN1FIZEGHUWH4JFNTVD","A3KF6O09H04SP7","3RKHNXPHGWIRLJ219DNI80W3E6SKUF","","<img src=""img/set1/S3.jpg"" width=""540"" height = ""360"" style=""border:16px solid orange"">","null","","","","","","","","","",""
"null","","html-keyboard-response","312","207758","0.0-312.0","39PAAFCODNMSN1FIZEGHUWH4JFNTVD","A3KF6O09H04SP7","3RKHNXPHGWIRLJ219DNI80W3E6SKUF","","","null","","","","","","","","","",""
"521.6999999880791","","image-keyboard-response","313","208284","0.0-313.0","39PAAFCODNMSN1FIZEGHUWH4JFNTVD","A3KF6O09H04SP7","3RKHNXPHGWIRLJ219DNI80W3E6SKUF","","img/set1/S4.jpg","74","4","random","74","random,structured_normal,structured_incentive,structured_load","","3,4,2,1","true","","",""
"null","","html-keyboard-response","314","208640","0.0-314.0","39PAAFCODNMSN1FIZEGHUWH4JFNTVD","A3KF6O09H04SP7","3RKHNXPHGWIRLJ219DNI80W3E6SKUF","","<img src=""img/set1/S4.jpg"" width=""540"" height = ""360"" style=""border:16px solid orange"">","null","","","","","","","","","",""
"null","","html-keyboard-response","315","208843","0.0-315.0","39PAAFCODNMSN1FIZEGHUWH4JFNTVD","A3KF6O09H04SP7","3RKHNXPHGWIRLJ219DNI80W3E6SKUF","","","null","","","","","","","","","",""
"659.5","","image-keyboard-response","316","209506","0.0-316.0","39PAAFCODNMSN1FIZEGHUWH4JFNTVD","A3KF6O09H04SP7","3RKHNXPHGWIRLJ219DNI80W3E6SKUF","","img/set1/S1.jpg","83","1","random","83","random,structured_normal,structured_incentive,structured_load","","3,4,2,1","true","","",""
"null","","html-keyboard-response","317","209863","0.0-317.0","39PAAFCODNMSN1FIZEGHUWH4JFNTVD","A3KF6O09H04SP7","3RKHNXPHGWIRLJ219DNI80W3E6SKUF","","<img src=""img/set1/S1.jpg"" width=""540"" height = ""360"" style=""border:16px solid orange"">","null","","","","","","","","","",""
"null","","html-keyboard-response","318","210067","0.0-318.0","39PAAFCODNMSN1FIZEGHUWH4JFNTVD","A3KF6O09H04SP7","3RKHNXPHGWIRLJ219DNI80W3E6SKUF","","","null","","","","","","","","","",""
"573.1000000238419","","image-keyboard-response","319","210643","0.0-319.0","39PAAFCODNMSN1FIZEGHUWH4JFNTVD","A3KF6O09H04SP7","3RKHNXPHGWIRLJ219DNI80W3E6SKUF","","img/set1/S3.jpg","72","3","random","72","random,structured_normal,structured_incentive,structured_load","","3,4,2,1","true","","",""
"null","","html-keyboard-response","320","210995","0.0-320.0","39PAAFCODNMSN1FIZEGHUWH4JFNTVD","A3KF6O09H04SP7","3RKHNXPHGWIRLJ219DNI80W3E6SKUF","","<img src=""img/set1/S3.jpg"" width=""540"" height = ""360"" style=""border:16px solid orange"">","null","","","","","","","","","",""
"null","","html-keyboard-response","321","211199","0.0-321.0","39PAAFCODNMSN1FIZEGHUWH4JFNTVD","A3KF6O09H04SP7","3RKHNXPHGWIRLJ219DNI80W3E6SKUF","","","null","","","","","","","","","",""
"488.7999999821186","","image-keyboard-response","322","211689","0.0-322.0","39PAAFCODNMSN1FIZEGHUWH4JFNTVD","A3KF6O09H04SP7","3RKHNXPHGWIRLJ219DNI80W3E6SKUF","","img/set1/S3.jpg","72","3","random","72","random,structured_normal,structured_incentive,structured_load","","3,4,2,1","true","","",""
"null","","html-keyboard-response","323","212041","0.0-323.0","39PAAFCODNMSN1FIZEGHUWH4JFNTVD","A3KF6O09H04SP7","3RKHNXPHGWIRLJ219DNI80W3E6SKUF","","<img src=""img/set1/S3.jpg"" width=""540"" height = ""360"" style=""border:16px solid orange"">","null","","","","","","","","","",""
"null","","html-keyboard-response","324","212242","0.0-324.0","39PAAFCODNMSN1FIZEGHUWH4JFNTVD","A3KF6O09H04SP7","3RKHNXPHGWIRLJ219DNI80W3E6SKUF","","","null","","","","","","","","","",""
"389.39999997615814","","image-keyboard-response","325","212634","0.0-325.0","39PAAFCODNMSN1FIZEGHUWH4JFNTVD","A3KF6O09H04SP7","3RKHNXPHGWIRLJ219DNI80W3E6SKUF","","img/set1/S2.jpg","68","2","random","68","random,structured_normal,structured_incentive,structured_load","","3,4,2,1","true","","",""
"null","","html-keyboard-response","326","212988","0.0-326.0","39PAAFCODNMSN1FIZEGHUWH4JFNTVD","A3KF6O09H04SP7","3RKHNXPHGWIRLJ219DNI80W3E6SKUF","","<img src=""img/set1/S2.jpg"" width=""540"" height = ""360"" style=""border:16px solid orange"">","null","","","","","","","","","",""
"null","","html-keyboard-response","327","213191","0.0-327.0","39PAAFCODNMSN1FIZEGHUWH4JFNTVD","A3KF6O09H04SP7","3RKHNXPHGWIRLJ219DNI80W3E6SKUF","","","null","","","","","","","","","",""
"392.40000000596046","","image-keyboard-response","328","213586","0.0-328.0","39PAAFCODNMSN1FIZEGHUWH4JFNTVD","A3KF6O09H04SP7","3RKHNXPHGWIRLJ219DNI80W3E6SKUF","","img/set1/S2.jpg","68","2","random","68","random,structured_normal,structured_incentive,structured_load","","3,4,2,1","true","","",""
"null","","html-keyboard-response","329","213941","0.0-329.0","39PAAFCODNMSN1FIZEGHUWH4JFNTVD","A3KF6O09H04SP7","3RKHNXPHGWIRLJ219DNI80W3E6SKUF","","<img src=""img/set1/S2.jpg"" width=""540"" height = ""360"" style=""border:16px solid orange"">","null","","","","","","","","","",""
"null","","html-keyboard-response","330","214143","0.0-330.0","39PAAFCODNMSN1FIZEGHUWH4JFNTVD","A3KF6O09H04SP7","3RKHNXPHGWIRLJ219DNI80W3E6SKUF","","","null","","","","","","","","","",""
"440","","image-keyboard-response","331","214585","0.0-331.0","39PAAFCODNMSN1FIZEGHUWH4JFNTVD","A3KF6O09H04SP7","3RKHNXPHGWIRLJ219DNI80W3E6SKUF","","img/set1/S2.jpg","68","2","random","68","random,structured_normal,structured_incentive,structured_load","","3,4,2,1","true","","",""
"null","","html-keyboard-response","332","214939","0.0-332.0","39PAAFCODNMSN1FIZEGHUWH4JFNTVD","A3KF6O09H04SP7","3RKHNXPHGWIRLJ219DNI80W3E6SKUF","","<img src=""img/set1/S2.jpg"" width=""540"" height = ""360"" style=""border:16px solid orange"">","null","","","","","","","","","",""
"null","","html-keyboard-response","333","215142","0.0-333.0","39PAAFCODNMSN1FIZEGHUWH4JFNTVD","A3KF6O09H04SP7","3RKHNXPHGWIRLJ219DNI80W3E6SKUF","","","null","","","","","","","","","",""
"691.2000000178814","","image-keyboard-response","334","215835","0.0-334.0","39PAAFCODNMSN1FIZEGHUWH4JFNTVD","A3KF6O09H04SP7","3RKHNXPHGWIRLJ219DNI80W3E6SKUF","","img/set1/S4.jpg","74","4","random","74","random,structured_normal,structured_incentive,structured_load","","3,4,2,1","true","","",""
"null","","html-keyboard-response","335","216189","0.0-335.0","39PAAFCODNMSN1FIZEGHUWH4JFNTVD","A3KF6O09H04SP7","3RKHNXPHGWIRLJ219DNI80W3E6SKUF","","<img src=""img/set1/S4.jpg"" width=""540"" height = ""360"" style=""border:16px solid orange"">","null","","","","","","","","","",""
"null","","html-keyboard-response","336","216390","0.0-336.0","39PAAFCODNMSN1FIZEGHUWH4JFNTVD","A3KF6O09H04SP7","3RKHNXPHGWIRLJ219DNI80W3E6SKUF","","","null","","","","","","","","","",""
"994.1999999880791","","image-keyboard-response","337","217388","0.0-337.0","39PAAFCODNMSN1FIZEGHUWH4JFNTVD","A3KF6O09H04SP7","3RKHNXPHGWIRLJ219DNI80W3E6SKUF","","img/set1/S2.jpg","68","2","random","68","random,structured_normal,structured_incentive,structured_load","","3,4,2,1","true","","",""
"null","","html-keyboard-response","338","217744","0.0-338.0","39PAAFCODNMSN1FIZEGHUWH4JFNTVD","A3KF6O09H04SP7","3RKHNXPHGWIRLJ219DNI80W3E6SKUF","","<img src=""img/set1/S2.jpg"" width=""540"" height = ""360"" style=""border:16px solid orange"">","null","","","","","","","","","",""
"null","","html-keyboard-response","339","217946","0.0-339.0","39PAAFCODNMSN1FIZEGHUWH4JFNTVD","A3KF6O09H04SP7","3RKHNXPHGWIRLJ219DNI80W3E6SKUF","","","null","","","","","","","","","",""
"645.5999999940395","","image-keyboard-response","340","218595","0.0-340.0","39PAAFCODNMSN1FIZEGHUWH4JFNTVD","A3KF6O09H04SP7","3RKHNXPHGWIRLJ219DNI80W3E6SKUF","","img/set1/S1.jpg","83","1","random","83","random,structured_normal,structured_incentive,structured_load","","3,4,2,1","true","","",""
"null","","html-keyboard-response","341","218948","0.0-341.0","39PAAFCODNMSN1FIZEGHUWH4JFNTVD","A3KF6O09H04SP7","3RKHNXPHGWIRLJ219DNI80W3E6SKUF","","<img src=""img/set1/S1.jpg"" width=""540"" height = ""360"" style=""border:16px solid orange"">","null","","","","","","","","","",""
"null","","html-keyboard-response","342","219151","0.0-342.0","39PAAFCODNMSN1FIZEGHUWH4JFNTVD","A3KF6O09H04SP7","3RKHNXPHGWIRLJ219DNI80W3E6SKUF","","","null","","","","","","","","","",""
"563.1999999880791","","image-keyboard-response","343","219716","0.0-343.0","39PAAFCODNMSN1FIZEGHUWH4JFNTVD","A3KF6O09H04SP7","3RKHNXPHGWIRLJ219DNI80W3E6SKUF","","img/set1/S2.jpg","68","2","random","68","random,structured_normal,structured_incentive,structured_load","","3,4,2,1","true","","",""
"null","","html-keyboard-response","344","220069","0.0-344.0","39PAAFCODNMSN1FIZEGHUWH4JFNTVD","A3KF6O09H04SP7","3RKHNXPHGWIRLJ219DNI80W3E6SKUF","","<img src=""img/set1/S2.jpg"" width=""540"" height = ""360"" style=""border:16px solid orange"">","null","","","","","","","","","",""
"null","","html-keyboard-response","345","220271","0.0-345.0","39PAAFCODNMSN1FIZEGHUWH4JFNTVD","A3KF6O09H04SP7","3RKHNXPHGWIRLJ219DNI80W3E6SKUF","","","null","","","","","","","","","",""
"516.5999999940395","","image-keyboard-response","346","220791","0.0-346.0","39PAAFCODNMSN1FIZEGHUWH4JFNTVD","A3KF6O09H04SP7","3RKHNXPHGWIRLJ219DNI80W3E6SKUF","","img/set1/S1.jpg","83","1","random","83","random,structured_normal,structured_incentive,structured_load","","3,4,2,1","true","","",""
"null","","html-keyboard-response","347","221147","0.0-347.0","39PAAFCODNMSN1FIZEGHUWH4JFNTVD","A3KF6O09H04SP7","3RKHNXPHGWIRLJ219DNI80W3E6SKUF","","<img src=""img/set1/S1.jpg"" width=""540"" height = ""360"" style=""border:16px solid orange"">","null","","","","","","","","","",""
"null","","html-keyboard-response","348","221357","0.0-348.0","39PAAFCODNMSN1FIZEGHUWH4JFNTVD","A3KF6O09H04SP7","3RKHNXPHGWIRLJ219DNI80W3E6SKUF","","","null","","","","","","","","","",""
"525.2999999821186","","image-keyboard-response","349","221885","0.0-349.0","39PAAFCODNMSN1FIZEGHUWH4JFNTVD","A3KF6O09H04SP7","3RKHNXPHGWIRLJ219DNI80W3E6SKUF","","img/set1/S3.jpg","72","3","random","72","random,structured_normal,structured_incentive,structured_load","","3,4,2,1","true","","",""
"null","","html-keyboard-response","350","222241","0.0-350.0","39PAAFCODNMSN1FIZEGHUWH4JFNTVD","A3KF6O09H04SP7","3RKHNXPHGWIRLJ219DNI80W3E6SKUF","","<img src=""img/set1/S3.jpg"" width=""540"" height = ""360"" style=""border:16px solid orange"">","null","","","","","","","","","",""
"null","","html-keyboard-response","351","222445","0.0-351.0","39PAAFCODNMSN1FIZEGHUWH4JFNTVD","A3KF6O09H04SP7","3RKHNXPHGWIRLJ219DNI80W3E6SKUF","","","null","","","","","","","","","",""
"653.2999999821186","","image-keyboard-response","352","223102","0.0-352.0","39PAAFCODNMSN1FIZEGHUWH4JFNTVD","A3KF6O09H04SP7","3RKHNXPHGWIRLJ219DNI80W3E6SKUF","","img/set1/S2.jpg","68","2","random","68","random,structured_normal,structured_incentive,structured_load","","3,4,2,1","true","","",""
"null","","html-keyboard-response","353","223460","0.0-353.0","39PAAFCODNMSN1FIZEGHUWH4JFNTVD","A3KF6O09H04SP7","3RKHNXPHGWIRLJ219DNI80W3E6SKUF","","<img src=""img/set1/S2.jpg"" width=""540"" height = ""360"" style=""border:16px solid orange"">","null","","","","","","","","","",""
"null","","html-keyboard-response","354","223663","0.0-354.0","39PAAFCODNMSN1FIZEGHUWH4JFNTVD","A3KF6O09H04SP7","3RKHNXPHGWIRLJ219DNI80W3E6SKUF","","","null","","","","","","","","","",""
"643.1999999880791","","image-keyboard-response","355","224308","0.0-355.0","39PAAFCODNMSN1FIZEGHUWH4JFNTVD","A3KF6O09H04SP7","3RKHNXPHGWIRLJ219DNI80W3E6SKUF","","img/set1/S1.jpg","83","1","random","83","random,structured_normal,structured_incentive,structured_load","","3,4,2,1","true","","",""
"null","","html-keyboard-response","356","224666","0.0-356.0","39PAAFCODNMSN1FIZEGHUWH4JFNTVD","A3KF6O09H04SP7","3RKHNXPHGWIRLJ219DNI80W3E6SKUF","","<img src=""img/set1/S1.jpg"" width=""540"" height = ""360"" style=""border:16px solid orange"">","null","","","","","","","","","",""
"null","","html-keyboard-response","357","224868","0.0-357.0","39PAAFCODNMSN1FIZEGHUWH4JFNTVD","A3KF6O09H04SP7","3RKHNXPHGWIRLJ219DNI80W3E6SKUF","","","null","","","","","","","","","",""
"1036.699999988079","","image-keyboard-response","358","225906","0.0-358.0","39PAAFCODNMSN1FIZEGHUWH4JFNTVD","A3KF6O09H04SP7","3RKHNXPHGWIRLJ219DNI80W3E6SKUF","","img/set1/S4.jpg","83","4","random","74","random,structured_normal,structured_incentive,structured_load","","3,4,2,1","false","","",""
"null","","html-keyboard-response","359","226259","0.0-359.0","39PAAFCODNMSN1FIZEGHUWH4JFNTVD","A3KF6O09H04SP7","3RKHNXPHGWIRLJ219DNI80W3E6SKUF","","<img src=""img/set1/S4.jpg"" width=""540"" height = ""360"">","null","","","","","","","","","",""
"null","","html-keyboard-response","360","226462","0.0-360.0","39PAAFCODNMSN1FIZEGHUWH4JFNTVD","A3KF6O09H04SP7","3RKHNXPHGWIRLJ219DNI80W3E6SKUF","","","null","","","","","","","","","",""
"461.2000000178814","","image-keyboard-response","361","226926","0.0-361.0","39PAAFCODNMSN1FIZEGHUWH4JFNTVD","A3KF6O09H04SP7","3RKHNXPHGWIRLJ219DNI80W3E6SKUF","","img/set1/S4.jpg","74","4","random","74","random,structured_normal,structured_incentive,structured_load","","3,4,2,1","true","","",""
"null","","html-keyboard-response","362","227281","0.0-362.0","39PAAFCODNMSN1FIZEGHUWH4JFNTVD","A3KF6O09H04SP7","3RKHNXPHGWIRLJ219DNI80W3E6SKUF","","<img src=""img/set1/S4.jpg"" width=""540"" height = ""360"" style=""border:16px solid orange"">","null","","","","","","","","","",""
"null","","html-keyboard-response","363","227482","0.0-363.0","39PAAFCODNMSN1FIZEGHUWH4JFNTVD","A3KF6O09H04SP7","3RKHNXPHGWIRLJ219DNI80W3E6SKUF","","","null","","","","","","","","","",""
"1263.9000000059605","","image-keyboard-response","364","228752","0.0-364.0","39PAAFCODNMSN1FIZEGHUWH4JFNTVD","A3KF6O09H04SP7","3RKHNXPHGWIRLJ219DNI80W3E6SKUF","","img/set1/S2.jpg","68","2","random","68","random,structured_normal,structured_incentive,structured_load","","3,4,2,1","true","","",""
"null","","html-keyboard-response","365","229107","0.0-365.0","39PAAFCODNMSN1FIZEGHUWH4JFNTVD","A3KF6O09H04SP7","3RKHNXPHGWIRLJ219DNI80W3E6SKUF","","<img src=""img/set1/S2.jpg"" width=""540"" height = ""360"" style=""border:16px solid orange"">","null","","","","","","","","","",""
"null","","html-keyboard-response","366","229309","0.0-366.0","39PAAFCODNMSN1FIZEGHUWH4JFNTVD","A3KF6O09H04SP7","3RKHNXPHGWIRLJ219DNI80W3E6SKUF","","","null","","","","","","","","","",""
"381.30000001192093","","image-keyboard-response","367","229692","0.0-367.0","39PAAFCODNMSN1FIZEGHUWH4JFNTVD","A3KF6O09H04SP7","3RKHNXPHGWIRLJ219DNI80W3E6SKUF","","img/set1/S2.jpg","68","2","random","68","random,structured_normal,structured_incentive,structured_load","","3,4,2,1","true","","",""
"null","","html-keyboard-response","368","230046","0.0-368.0","39PAAFCODNMSN1FIZEGHUWH4JFNTVD","A3KF6O09H04SP7","3RKHNXPHGWIRLJ219DNI80W3E6SKUF","","<img src=""img/set1/S2.jpg"" width=""540"" height = ""360"" style=""border:16px solid orange"">","null","","","","","","","","","",""
"null","","html-keyboard-response","369","230251","0.0-369.0","39PAAFCODNMSN1FIZEGHUWH4JFNTVD","A3KF6O09H04SP7","3RKHNXPHGWIRLJ219DNI80W3E6SKUF","","","null","","","","","","","","","",""
"694.9000000059605","","image-keyboard-response","370","230949","0.0-370.0","39PAAFCODNMSN1FIZEGHUWH4JFNTVD","A3KF6O09H04SP7","3RKHNXPHGWIRLJ219DNI80W3E6SKUF","","img/set1/S4.jpg","74","4","random","74","random,structured_normal,structured_incentive,structured_load","","3,4,2,1","true","","",""
"null","","html-keyboard-response","371","231302","0.0-371.0","39PAAFCODNMSN1FIZEGHUWH4JFNTVD","A3KF6O09H04SP7","3RKHNXPHGWIRLJ219DNI80W3E6SKUF","","<img src=""img/set1/S4.jpg"" width=""540"" height = ""360"" style=""border:16px solid orange"">","null","","","","","","","","","",""
"null","","html-keyboard-response","372","231504","0.0-372.0","39PAAFCODNMSN1FIZEGHUWH4JFNTVD","A3KF6O09H04SP7","3RKHNXPHGWIRLJ219DNI80W3E6SKUF","","","null","","","","","","","","","",""
"699.4000000059605","","image-keyboard-response","373","232207","0.0-373.0","39PAAFCODNMSN1FIZEGHUWH4JFNTVD","A3KF6O09H04SP7","3RKHNXPHGWIRLJ219DNI80W3E6SKUF","","img/set1/S1.jpg","83","1","random","83","random,structured_normal,structured_incentive,structured_load","","3,4,2,1","true","","",""
"null","","html-keyboard-response","374","232563","0.0-374.0","39PAAFCODNMSN1FIZEGHUWH4JFNTVD","A3KF6O09H04SP7","3RKHNXPHGWIRLJ219DNI80W3E6SKUF","","<img src=""img/set1/S1.jpg"" width=""540"" height = ""360"" style=""border:16px solid orange"">","null","","","","","","","","","",""
"null","","html-keyboard-response","375","232767","0.0-375.0","39PAAFCODNMSN1FIZEGHUWH4JFNTVD","A3KF6O09H04SP7","3RKHNXPHGWIRLJ219DNI80W3E6SKUF","","","null","","","","","","","","","",""
"715.2000000178814","","image-keyboard-response","376","233484","0.0-376.0","39PAAFCODNMSN1FIZEGHUWH4JFNTVD","A3KF6O09H04SP7","3RKHNXPHGWIRLJ219DNI80W3E6SKUF","","img/set1/S4.jpg","74","4","random","74","random,structured_normal,structured_incentive,structured_load","","3,4,2,1","true","","",""
"null","","html-keyboard-response","377","233837","0.0-377.0","39PAAFCODNMSN1FIZEGHUWH4JFNTVD","A3KF6O09H04SP7","3RKHNXPHGWIRLJ219DNI80W3E6SKUF","","<img src=""img/set1/S4.jpg"" width=""540"" height = ""360"" style=""border:16px solid orange"">","null","","","","","","","","","",""
"null","","html-keyboard-response","378","234039","0.0-378.0","39PAAFCODNMSN1FIZEGHUWH4JFNTVD","A3KF6O09H04SP7","3RKHNXPHGWIRLJ219DNI80W3E6SKUF","","","null","","","","","","","","","",""
"622.0999999940395","","image-keyboard-response","379","234667","0.0-379.0","39PAAFCODNMSN1FIZEGHUWH4JFNTVD","A3KF6O09H04SP7","3RKHNXPHGWIRLJ219DNI80W3E6SKUF","","img/set1/S2.jpg","68","2","random","68","random,structured_normal,structured_incentive,structured_load","","3,4,2,1","true","","",""
"null","","html-keyboard-response","380","235022","0.0-380.0","39PAAFCODNMSN1FIZEGHUWH4JFNTVD","A3KF6O09H04SP7","3RKHNXPHGWIRLJ219DNI80W3E6SKUF","","<img src=""img/set1/S2.jpg"" width=""540"" height = ""360"" style=""border:16px solid orange"">","null","","","","","","","","","",""
"null","","html-keyboard-response","381","235226","0.0-381.0","39PAAFCODNMSN1FIZEGHUWH4JFNTVD","A3KF6O09H04SP7","3RKHNXPHGWIRLJ219DNI80W3E6SKUF","","","null","","","","","","","","","",""
"672.5999999940395","","image-keyboard-response","382","235901","0.0-382.0","39PAAFCODNMSN1FIZEGHUWH4JFNTVD","A3KF6O09H04SP7","3RKHNXPHGWIRLJ219DNI80W3E6SKUF","","img/set1/S4.jpg","74","4","random","74","random,structured_normal,structured_incentive,structured_load","","3,4,2,1","true","","",""
"null","","html-keyboard-response","383","236256","0.0-383.0","39PAAFCODNMSN1FIZEGHUWH4JFNTVD","A3KF6O09H04SP7","3RKHNXPHGWIRLJ219DNI80W3E6SKUF","","<img src=""img/set1/S4.jpg"" width=""540"" height = ""360"" style=""border:16px solid orange"">","null","","","","","","","","","",""
"null","","html-keyboard-response","384","236458","0.0-384.0","39PAAFCODNMSN1FIZEGHUWH4JFNTVD","A3KF6O09H04SP7","3RKHNXPHGWIRLJ219DNI80W3E6SKUF","","","null","","","","","","","","","",""
"857.0999999940395","","image-keyboard-response","385","237319","0.0-385.0","39PAAFCODNMSN1FIZEGHUWH4JFNTVD","A3KF6O09H04SP7","3RKHNXPHGWIRLJ219DNI80W3E6SKUF","","img/set1/S1.jpg","83","1","random","83","random,structured_normal,structured_incentive,structured_load","","3,4,2,1","true","","",""
"null","","html-keyboard-response","386","237673","0.0-386.0","39PAAFCODNMSN1FIZEGHUWH4JFNTVD","A3KF6O09H04SP7","3RKHNXPHGWIRLJ219DNI80W3E6SKUF","","<img src=""img/set1/S1.jpg"" width=""540"" height = ""360"" style=""border:16px solid orange"">","null","","","","","","","","","",""
"null","","html-keyboard-response","387","237876","0.0-387.0","39PAAFCODNMSN1FIZEGHUWH4JFNTVD","A3KF6O09H04SP7","3RKHNXPHGWIRLJ219DNI80W3E6SKUF","","","null","","","","","","","","","",""
"561.0999999940395","","image-keyboard-response","388","238441","0.0-388.0","39PAAFCODNMSN1FIZEGHUWH4JFNTVD","A3KF6O09H04SP7","3RKHNXPHGWIRLJ219DNI80W3E6SKUF","","img/set1/S3.jpg","72","3","random","72","random,structured_normal,structured_incentive,structured_load","","3,4,2,1","true","","",""
"null","","html-keyboard-response","389","238796","0.0-389.0","39PAAFCODNMSN1FIZEGHUWH4JFNTVD","A3KF6O09H04SP7","3RKHNXPHGWIRLJ219DNI80W3E6SKUF","","<img src=""img/set1/S3.jpg"" width=""540"" height = ""360"" style=""border:16px solid orange"">","null","","","","","","","","","",""
"null","","html-keyboard-response","390","238998","0.0-390.0","39PAAFCODNMSN1FIZEGHUWH4JFNTVD","A3KF6O09H04SP7","3RKHNXPHGWIRLJ219DNI80W3E6SKUF","","","null","","","","","","","","","",""
"613.2999999821186","","image-keyboard-response","391","239614","0.0-391.0","39PAAFCODNMSN1FIZEGHUWH4JFNTVD","A3KF6O09H04SP7","3RKHNXPHGWIRLJ219DNI80W3E6SKUF","","img/set1/S1.jpg","83","1","random","83","random,structured_normal,structured_incentive,structured_load","","3,4,2,1","true","","",""
