"rt","url","trial_type","trial_index","time_elapsed","internal_node_id","view_history","stimulus","key_press","state","test_part","correct_response","order_block","order_chunk","correct","responses","bonus"
"5988","consent.html","external-html","0","6171","0.0-0.0","","","","","","","","","","",""
"104656","","instructions","1","110833","0.0-1.0","[{""page_index"":0,""viewing_time"":6841},{""page_index"":1,""viewing_time"":16848},{""page_index"":2,""viewing_time"":14383},{""page_index"":3,""viewing_time"":16352},{""page_index"":4,""viewing_time"":12888},{""page_index"":5,""viewing_time"":21519},{""page_index"":6,""viewing_time"":15824}]","","","","","","","","","",""
"15923","","instructions","2","126759","0.0-2.0","[{""page_index"":0,""viewing_time"":15922}]","","","","","","","","","",""
"9110","","instructions","3","135871","0.0-3.0","[{""page_index"":0,""viewing_time"":9109}]","","","","","","","","","",""
"1417","","image-keyboard-response","4","137294","0.0-4.0","","img/set1/S4.jpg","72","4","random","74","random,structured_incentive,structured_load,structured_normal","2,3,2,1,3,4","false","",""
"null","","html-keyboard-response","5","137651","0.0-5.0","","<img src=""img/set1/S4.jpg"" width=""540"" height = ""360"">","null","","","","","","","",""
"null","","html-keyboard-response","6","137860","0.0-6.0","","","null","","","","","","","",""
"1182","","image-keyboard-response","7","139045","0.0-7.0","","img/set1/S1.jpg","68","1","random","83","random,structured_incentive,structured_load,structured_normal","2,3,2,1,3,4","false","",""
"null","","html-keyboard-response","8","139402","0.0-8.0","","<img src=""img/set1/S1.jpg"" width=""540"" height = ""360"">","null","","","","","","","",""
"null","","html-keyboard-response","9","139611","0.0-9.0","","","null","","","","","","","",""
"1369","","image-keyboard-response","10","140982","0.0-10.0","","img/set1/S3.jpg","72","3","random","72","random,structured_incentive,structured_load,structured_normal","2,3,2,1,3,4","true","",""
"null","","html-keyboard-response","11","141342","0.0-11.0","","<img src=""img/set1/S3.jpg"" width=""540"" height = ""360"" style=""border:16px solid orange"">","null","","","","","","","",""
"null","","html-keyboard-response","12","141553","0.0-12.0","","","null","","","","","","","",""
"1210","","image-keyboard-response","13","142764","0.0-13.0","","img/set1/S1.jpg","83","1","random","83","random,structured_incentive,structured_load,structured_normal","2,3,2,1,3,4","true","",""
"null","","html-keyboard-response","14","143123","0.0-14.0","","<img src=""img/set1/S1.jpg"" width=""540"" height = ""360"" style=""border:16px solid orange"">","null","","","","","","","",""
"null","","html-keyboard-response","15","143333","0.0-15.0","","","null","","","","","","","",""
"1087","","image-keyboard-response","16","144419","0.0-16.0","","img/set1/S4.jpg","74","4","random","74","random,structured_incentive,structured_load,structured_normal","2,3,2,1,3,4","true","",""
"null","","html-keyboard-response","17","144773","0.0-17.0","","<img src=""img/set1/S4.jpg"" width=""540"" height = ""360"" style=""border:16px solid orange"">","null","","","","","","","",""
"null","","html-keyboard-response","18","144983","0.0-18.0","","","null","","","","","","","",""
"515","","image-keyboard-response","19","145500","0.0-19.0","","img/set1/S4.jpg","74","4","random","74","random,structured_incentive,structured_load,structured_normal","2,3,2,1,3,4","true","",""
"null","","html-keyboard-response","20","145853","0.0-20.0","","<img src=""img/set1/S4.jpg"" width=""540"" height = ""360"" style=""border:16px solid orange"">","null","","","","","","","",""
"null","","html-keyboard-response","21","146063","0.0-21.0","","","null","","","","","","","",""
"834","","image-keyboard-response","22","146899","0.0-22.0","","img/set1/S2.jpg","68","2","random","68","random,structured_incentive,structured_load,structured_normal","2,3,2,1,3,4","true","",""
"null","","html-keyboard-response","23","147252","0.0-23.0","","<img src=""img/set1/S2.jpg"" width=""540"" height = ""360"" style=""border:16px solid orange"">","null","","","","","","","",""
"null","","html-keyboard-response","24","147462","0.0-24.0","","","null","","","","","","","",""
"773","","image-keyboard-response","25","148237","0.0-25.0","","img/set1/S3.jpg","72","3","random","72","random,structured_incentive,structured_load,structured_normal","2,3,2,1,3,4","true","",""
"null","","html-keyboard-response","26","148592","0.0-26.0","","<img src=""img/set1/S3.jpg"" width=""540"" height = ""360"" style=""border:16px solid orange"">","null","","","","","","","",""
"null","","html-keyboard-response","27","148802","0.0-27.0","","","null","","","","","","","",""
"879","","image-keyboard-response","28","149683","0.0-28.0","","img/set1/S4.jpg","74","4","random","74","random,structured_incentive,structured_load,structured_normal","2,3,2,1,3,4","true","",""
"null","","html-keyboard-response","29","150044","0.0-29.0","","<img src=""img/set1/S4.jpg"" width=""540"" height = ""360"" style=""border:16px solid orange"">","null","","","","","","","",""
"null","","html-keyboard-response","30","150254","0.0-30.0","","","null","","","","","","","",""
"547","","image-keyboard-response","31","150804","0.0-31.0","","img/set1/S4.jpg","74","4","random","74","random,structured_incentive,structured_load,structured_normal","2,3,2,1,3,4","true","",""
"null","","html-keyboard-response","32","151154","0.0-32.0","","<img src=""img/set1/S4.jpg"" width=""540"" height = ""360"" style=""border:16px solid orange"">","null","","","","","","","",""
"null","","html-keyboard-response","33","151364","0.0-33.0","","","null","","","","","","","",""
"630","","image-keyboard-response","34","151996","0.0-34.0","","img/set1/S1.jpg","68","1","random","83","random,structured_incentive,structured_load,structured_normal","2,3,2,1,3,4","false","",""
"null","","html-keyboard-response","35","152355","0.0-35.0","","<img src=""img/set1/S1.jpg"" width=""540"" height = ""360"">","null","","","","","","","",""
"null","","html-keyboard-response","36","152564","0.0-36.0","","","null","","","","","","","",""
"727","","image-keyboard-response","37","153291","0.0-37.0","","img/set1/S3.jpg","72","3","random","72","random,structured_incentive,structured_load,structured_normal","2,3,2,1,3,4","true","",""
"null","","html-keyboard-response","38","153646","0.0-38.0","","<img src=""img/set1/S3.jpg"" width=""540"" height = ""360"" style=""border:16px solid orange"">","null","","","","","","","",""
"null","","html-keyboard-response","39","153857","0.0-39.0","","","null","","","","","","","",""
"515","","image-keyboard-response","40","154372","0.0-40.0","","img/set1/S1.jpg","83","1","random","83","random,structured_incentive,structured_load,structured_normal","2,3,2,1,3,4","true","",""
"null","","html-keyboard-response","41","154729","0.0-41.0","","<img src=""img/set1/S1.jpg"" width=""540"" height = ""360"" style=""border:16px solid orange"">","null","","","","","","","",""
"null","","html-keyboard-response","42","154938","0.0-42.0","","","null","","","","","","","",""
"528","","image-keyboard-response","43","155468","0.0-43.0","","img/set1/S1.jpg","83","1","random","83","random,structured_incentive,structured_load,structured_normal","2,3,2,1,3,4","true","",""
"null","","html-keyboard-response","44","155829","0.0-44.0","","<img src=""img/set1/S1.jpg"" width=""540"" height = ""360"" style=""border:16px solid orange"">","null","","","","","","","",""
"null","","html-keyboard-response","45","156038","0.0-45.0","","","null","","","","","","","",""
"492","","image-keyboard-response","46","156533","0.0-46.0","","img/set1/S1.jpg","83","1","random","83","random,structured_incentive,structured_load,structured_normal","2,3,2,1,3,4","true","",""
"null","","html-keyboard-response","47","156888","0.0-47.0","","<img src=""img/set1/S1.jpg"" width=""540"" height = ""360"" style=""border:16px solid orange"">","null","","","","","","","",""
"null","","html-keyboard-response","48","157099","0.0-48.0","","","null","","","","","","","",""
"839","","image-keyboard-response","49","157939","0.0-49.0","","img/set1/S4.jpg","74","4","random","74","random,structured_incentive,structured_load,structured_normal","2,3,2,1,3,4","true","",""
"null","","html-keyboard-response","50","158290","0.0-50.0","","<img src=""img/set1/S4.jpg"" width=""540"" height = ""360"" style=""border:16px solid orange"">","null","","","","","","","",""
"null","","html-keyboard-response","51","158501","0.0-51.0","","","null","","","","","","","",""
"438","","image-keyboard-response","52","158940","0.0-52.0","","img/set1/S4.jpg","74","4","random","74","random,structured_incentive,structured_load,structured_normal","2,3,2,1,3,4","true","",""
"null","","html-keyboard-response","53","159301","0.0-53.0","","<img src=""img/set1/S4.jpg"" width=""540"" height = ""360"" style=""border:16px solid orange"">","null","","","","","","","",""
"null","","html-keyboard-response","54","159510","0.0-54.0","","","null","","","","","","","",""
"628","","image-keyboard-response","55","160140","0.0-55.0","","img/set1/S2.jpg","68","2","random","68","random,structured_incentive,structured_load,structured_normal","2,3,2,1,3,4","true","",""
"null","","html-keyboard-response","56","160492","0.0-56.0","","<img src=""img/set1/S2.jpg"" width=""540"" height = ""360"" style=""border:16px solid orange"">","null","","","","","","","",""
"null","","html-keyboard-response","57","160702","0.0-57.0","","","null","","","","","","","",""
"644","","image-keyboard-response","58","161348","0.0-58.0","","img/set1/S3.jpg","72","3","random","72","random,structured_incentive,structured_load,structured_normal","2,3,2,1,3,4","true","",""
"null","","html-keyboard-response","59","161703","0.0-59.0","","<img src=""img/set1/S3.jpg"" width=""540"" height = ""360"" style=""border:16px solid orange"">","null","","","","","","","",""
"null","","html-keyboard-response","60","161912","0.0-60.0","","","null","","","","","","","",""
"729","","image-keyboard-response","61","162643","0.0-61.0","","img/set1/S2.jpg","68","2","random","68","random,structured_incentive,structured_load,structured_normal","2,3,2,1,3,4","true","",""
"null","","html-keyboard-response","62","163002","0.0-62.0","","<img src=""img/set1/S2.jpg"" width=""540"" height = ""360"" style=""border:16px solid orange"">","null","","","","","","","",""
"null","","html-keyboard-response","63","163213","0.0-63.0","","","null","","","","","","","",""
"430","","image-keyboard-response","64","163644","0.0-64.0","","img/set1/S2.jpg","68","2","random","68","random,structured_incentive,structured_load,structured_normal","2,3,2,1,3,4","true","",""
"null","","html-keyboard-response","65","164002","0.0-65.0","","<img src=""img/set1/S2.jpg"" width=""540"" height = ""360"" style=""border:16px solid orange"">","null","","","","","","","",""
"null","","html-keyboard-response","66","164213","0.0-66.0","","","null","","","","","","","",""
"758","","image-keyboard-response","67","164971","0.0-67.0","","img/set1/S3.jpg","72","3","random","72","random,structured_incentive,structured_load,structured_normal","2,3,2,1,3,4","true","",""
"null","","html-keyboard-response","68","165322","0.0-68.0","","<img src=""img/set1/S3.jpg"" width=""540"" height = ""360"" style=""border:16px solid orange"">","null","","","","","","","",""
"null","","html-keyboard-response","69","165532","0.0-69.0","","","null","","","","","","","",""
"495","","image-keyboard-response","70","166027","0.0-70.0","","img/set1/S1.jpg","74","1","random","83","random,structured_incentive,structured_load,structured_normal","2,3,2,1,3,4","false","",""
"null","","html-keyboard-response","71","166383","0.0-71.0","","<img src=""img/set1/S1.jpg"" width=""540"" height = ""360"">","null","","","","","","","",""
"null","","html-keyboard-response","72","166593","0.0-72.0","","","null","","","","","","","",""
"602","","image-keyboard-response","73","167195","0.0-73.0","","img/set1/S4.jpg","74","4","random","74","random,structured_incentive,structured_load,structured_normal","2,3,2,1,3,4","true","",""
"null","","html-keyboard-response","74","167552","0.0-74.0","","<img src=""img/set1/S4.jpg"" width=""540"" height = ""360"" style=""border:16px solid orange"">","null","","","","","","","",""
"null","","html-keyboard-response","75","167762","0.0-75.0","","","null","","","","","","","",""
"760","","image-keyboard-response","76","168524","0.0-76.0","","img/set1/S2.jpg","68","2","random","68","random,structured_incentive,structured_load,structured_normal","2,3,2,1,3,4","true","",""
"null","","html-keyboard-response","77","168882","0.0-77.0","","<img src=""img/set1/S2.jpg"" width=""540"" height = ""360"" style=""border:16px solid orange"">","null","","","","","","","",""
"null","","html-keyboard-response","78","169092","0.0-78.0","","","null","","","","","","","",""
"855","","image-keyboard-response","79","169947","0.0-79.0","","img/set1/S3.jpg","72","3","random","72","random,structured_incentive,structured_load,structured_normal","2,3,2,1,3,4","true","",""
"null","","html-keyboard-response","80","170302","0.0-80.0","","<img src=""img/set1/S3.jpg"" width=""540"" height = ""360"" style=""border:16px solid orange"">","null","","","","","","","",""
"null","","html-keyboard-response","81","170512","0.0-81.0","","","null","","","","","","","",""
"562","","image-keyboard-response","82","171076","0.0-82.0","","img/set1/S4.jpg","74","4","random","74","random,structured_incentive,structured_load,structured_normal","2,3,2,1,3,4","true","",""
"null","","html-keyboard-response","83","171432","0.0-83.0","","<img src=""img/set1/S4.jpg"" width=""540"" height = ""360"" style=""border:16px solid orange"">","null","","","","","","","",""
"null","","html-keyboard-response","84","171643","0.0-84.0","","","null","","","","","","","",""
"641","","image-keyboard-response","85","172283","0.0-85.0","","img/set1/S2.jpg","68","2","random","68","random,structured_incentive,structured_load,structured_normal","2,3,2,1,3,4","true","",""
"null","","html-keyboard-response","86","172644","0.0-86.0","","<img src=""img/set1/S2.jpg"" width=""540"" height = ""360"" style=""border:16px solid orange"">","null","","","","","","","",""
"null","","html-keyboard-response","87","172852","0.0-87.0","","","null","","","","","","","",""
"574","","image-keyboard-response","88","173427","0.0-88.0","","img/set1/S4.jpg","74","4","random","74","random,structured_incentive,structured_load,structured_normal","2,3,2,1,3,4","true","",""
"null","","html-keyboard-response","89","173782","0.0-89.0","","<img src=""img/set1/S4.jpg"" width=""540"" height = ""360"" style=""border:16px solid orange"">","null","","","","","","","",""
"null","","html-keyboard-response","90","173993","0.0-90.0","","","null","","","","","","","",""
"730","","image-keyboard-response","91","174722","0.0-91.0","","img/set1/S3.jpg","72","3","random","72","random,structured_incentive,structured_load,structured_normal","2,3,2,1,3,4","true","",""
"null","","html-keyboard-response","92","175082","0.0-92.0","","<img src=""img/set1/S3.jpg"" width=""540"" height = ""360"" style=""border:16px solid orange"">","null","","","","","","","",""
"null","","html-keyboard-response","93","175292","0.0-93.0","","","null","","","","","","","",""
"646","","image-keyboard-response","94","175939","0.0-94.0","","img/set1/S2.jpg","68","2","random","68","random,structured_incentive,structured_load,structured_normal","2,3,2,1,3,4","true","",""
"null","","html-keyboard-response","95","176292","0.0-95.0","","<img src=""img/set1/S2.jpg"" width=""540"" height = ""360"" style=""border:16px solid orange"">","null","","","","","","","",""
"null","","html-keyboard-response","96","176502","0.0-96.0","","","null","","","","","","","",""
"684","","image-keyboard-response","97","177187","0.0-97.0","","img/set1/S4.jpg","74","4","random","74","random,structured_incentive,structured_load,structured_normal","2,3,2,1,3,4","true","",""
"null","","html-keyboard-response","98","177544","0.0-98.0","","<img src=""img/set1/S4.jpg"" width=""540"" height = ""360"" style=""border:16px solid orange"">","null","","","","","","","",""
"null","","html-keyboard-response","99","177755","0.0-99.0","","","null","","","","","","","",""
"487","","image-keyboard-response","100","178243","0.0-100.0","","img/set1/S4.jpg","74","4","random","74","random,structured_incentive,structured_load,structured_normal","2,3,2,1,3,4","true","",""
"null","","html-keyboard-response","101","178594","0.0-101.0","","<img src=""img/set1/S4.jpg"" width=""540"" height = ""360"" style=""border:16px solid orange"">","null","","","","","","","",""
"null","","html-keyboard-response","102","178805","0.0-102.0","","","null","","","","","","","",""
"727","","image-keyboard-response","103","179531","0.0-103.0","","img/set1/S2.jpg","68","2","random","68","random,structured_incentive,structured_load,structured_normal","2,3,2,1,3,4","true","",""
"null","","html-keyboard-response","104","179885","0.0-104.0","","<img src=""img/set1/S2.jpg"" width=""540"" height = ""360"" style=""border:16px solid orange"">","null","","","","","","","",""
"null","","html-keyboard-response","105","180094","0.0-105.0","","","null","","","","","","","",""
"510","","image-keyboard-response","106","180604","0.0-106.0","","img/set1/S2.jpg","68","2","random","68","random,structured_incentive,structured_load,structured_normal","2,3,2,1,3,4","true","",""
"null","","html-keyboard-response","107","180964","0.0-107.0","","<img src=""img/set1/S2.jpg"" width=""540"" height = ""360"" style=""border:16px solid orange"">","null","","","","","","","",""
"null","","html-keyboard-response","108","181174","0.0-108.0","","","null","","","","","","","",""
"699","","image-keyboard-response","109","181875","0.0-109.0","","img/set1/S1.jpg","83","1","random","83","random,structured_incentive,structured_load,structured_normal","2,3,2,1,3,4","true","",""
"null","","html-keyboard-response","110","182234","0.0-110.0","","<img src=""img/set1/S1.jpg"" width=""540"" height = ""360"" style=""border:16px solid orange"">","null","","","","","","","",""
"null","","html-keyboard-response","111","182444","0.0-111.0","","","null","","","","","","","",""
"1053","","image-keyboard-response","112","183499","0.0-112.0","","img/set1/S1.jpg","83","1","random","83","random,structured_incentive,structured_load,structured_normal","2,3,2,1,3,4","true","",""
"null","","html-keyboard-response","113","183854","0.0-113.0","","<img src=""img/set1/S1.jpg"" width=""540"" height = ""360"" style=""border:16px solid orange"">","null","","","","","","","",""
"null","","html-keyboard-response","114","184064","0.0-114.0","","","null","","","","","","","",""
"721","","image-keyboard-response","115","184787","0.0-115.0","","img/set1/S2.jpg","68","2","random","68","random,structured_incentive,structured_load,structured_normal","2,3,2,1,3,4","true","",""
"null","","html-keyboard-response","116","185146","0.0-116.0","","<img src=""img/set1/S2.jpg"" width=""540"" height = ""360"" style=""border:16px solid orange"">","null","","","","","","","",""
"null","","html-keyboard-response","117","185356","0.0-117.0","","","null","","","","","","","",""
"695","","image-keyboard-response","118","186051","0.0-118.0","","img/set1/S1.jpg","83","1","random","83","random,structured_incentive,structured_load,structured_normal","2,3,2,1,3,4","true","",""
"null","","html-keyboard-response","119","186407","0.0-119.0","","<img src=""img/set1/S1.jpg"" width=""540"" height = ""360"" style=""border:16px solid orange"">","null","","","","","","","",""
"null","","html-keyboard-response","120","186616","0.0-120.0","","","null","","","","","","","",""
"650","","image-keyboard-response","121","187267","0.0-121.0","","img/set1/S3.jpg","72","3","random","72","random,structured_incentive,structured_load,structured_normal","2,3,2,1,3,4","true","",""
"null","","html-keyboard-response","122","187626","0.0-122.0","","<img src=""img/set1/S3.jpg"" width=""540"" height = ""360"" style=""border:16px solid orange"">","null","","","","","","","",""
"null","","html-keyboard-response","123","187836","0.0-123.0","","","null","","","","","","","",""
"509","","image-keyboard-response","124","188347","0.0-124.0","","img/set1/S4.jpg","74","4","random","74","random,structured_incentive,structured_load,structured_normal","2,3,2,1,3,4","true","",""
"null","","html-keyboard-response","125","188706","0.0-125.0","","<img src=""img/set1/S4.jpg"" width=""540"" height = ""360"" style=""border:16px solid orange"">","null","","","","","","","",""
"null","","html-keyboard-response","126","188916","0.0-126.0","","","null","","","","","","","",""
"614","","image-keyboard-response","127","189531","0.0-127.0","","img/set1/S2.jpg","68","2","random","68","random,structured_incentive,structured_load,structured_normal","2,3,2,1,3,4","true","",""
"null","","html-keyboard-response","128","189886","0.0-128.0","","<img src=""img/set1/S2.jpg"" width=""540"" height = ""360"" style=""border:16px solid orange"">","null","","","","","","","",""
"null","","html-keyboard-response","129","190096","0.0-129.0","","","null","","","","","","","",""
"626","","image-keyboard-response","130","190723","0.0-130.0","","img/set1/S4.jpg","74","4","random","74","random,structured_incentive,structured_load,structured_normal","2,3,2,1,3,4","true","",""
"null","","html-keyboard-response","131","191077","0.0-131.0","","<img src=""img/set1/S4.jpg"" width=""540"" height = ""360"" style=""border:16px solid orange"">","null","","","","","","","",""
"null","","html-keyboard-response","132","191286","0.0-132.0","","","null","","","","","","","",""
"403","","image-keyboard-response","133","191690","0.0-133.0","","img/set1/S4.jpg","74","4","random","74","random,structured_incentive,structured_load,structured_normal","2,3,2,1,3,4","true","",""
"null","","html-keyboard-response","134","192046","0.0-134.0","","<img src=""img/set1/S4.jpg"" width=""540"" height = ""360"" style=""border:16px solid orange"">","null","","","","","","","",""
"null","","html-keyboard-response","135","192248","0.0-135.0","","","null","","","","","","","",""
"561","","image-keyboard-response","136","192810","0.0-136.0","","img/set1/S2.jpg","68","2","random","68","random,structured_incentive,structured_load,structured_normal","2,3,2,1,3,4","true","",""
"null","","html-keyboard-response","137","193168","0.0-137.0","","<img src=""img/set1/S2.jpg"" width=""540"" height = ""360"" style=""border:16px solid orange"">","null","","","","","","","",""
"null","","html-keyboard-response","138","193378","0.0-138.0","","","null","","","","","","","",""
"608","","image-keyboard-response","139","193986","0.0-139.0","","img/set1/S3.jpg","72","3","random","72","random,structured_incentive,structured_load,structured_normal","2,3,2,1,3,4","true","",""
"null","","html-keyboard-response","140","194338","0.0-140.0","","<img src=""img/set1/S3.jpg"" width=""540"" height = ""360"" style=""border:16px solid orange"">","null","","","","","","","",""
"null","","html-keyboard-response","141","194548","0.0-141.0","","","null","","","","","","","",""
"558","","image-keyboard-response","142","195108","0.0-142.0","","img/set1/S4.jpg","74","4","random","74","random,structured_incentive,structured_load,structured_normal","2,3,2,1,3,4","true","",""
"null","","html-keyboard-response","143","195468","0.0-143.0","","<img src=""img/set1/S4.jpg"" width=""540"" height = ""360"" style=""border:16px solid orange"">","null","","","","","","","",""
"null","","html-keyboard-response","144","195670","0.0-144.0","","","null","","","","","","","",""
"476","","image-keyboard-response","145","196147","0.0-145.0","","img/set1/S4.jpg","74","4","random","74","random,structured_incentive,structured_load,structured_normal","2,3,2,1,3,4","true","",""
"null","","html-keyboard-response","146","196500","0.0-146.0","","<img src=""img/set1/S4.jpg"" width=""540"" height = ""360"" style=""border:16px solid orange"">","null","","","","","","","",""
"null","","html-keyboard-response","147","196710","0.0-147.0","","","null","","","","","","","",""
"981","","image-keyboard-response","148","197691","0.0-148.0","","img/set1/S3.jpg","72","3","random","72","random,structured_incentive,structured_load,structured_normal","2,3,2,1,3,4","true","",""
"null","","html-keyboard-response","149","198050","0.0-149.0","","<img src=""img/set1/S3.jpg"" width=""540"" height = ""360"" style=""border:16px solid orange"">","null","","","","","","","",""
"null","","html-keyboard-response","150","198260","0.0-150.0","","","null","","","","","","","",""
"629","","image-keyboard-response","151","198891","0.0-151.0","","img/set1/S2.jpg","68","2","random","68","random,structured_incentive,structured_load,structured_normal","2,3,2,1,3,4","true","",""
"null","","html-keyboard-response","152","199250","0.0-152.0","","<img src=""img/set1/S2.jpg"" width=""540"" height = ""360"" style=""border:16px solid orange"">","null","","","","","","","",""
"null","","html-keyboard-response","153","199460","0.0-153.0","","","null","","","","","","","",""
"660","","image-keyboard-response","154","200122","0.0-154.0","","img/set1/S3.jpg","72","3","random","72","random,structured_incentive,structured_load,structured_normal","2,3,2,1,3,4","true","",""
"null","","html-keyboard-response","155","200480","0.0-155.0","","<img src=""img/set1/S3.jpg"" width=""540"" height = ""360"" style=""border:16px solid orange"">","null","","","","","","","",""
"null","","html-keyboard-response","156","200690","0.0-156.0","","","null","","","","","","","",""
"976","","image-keyboard-response","157","201667","0.0-157.0","","img/set1/S2.jpg","68","2","random","68","random,structured_incentive,structured_load,structured_normal","2,3,2,1,3,4","true","",""
"null","","html-keyboard-response","158","202020","0.0-158.0","","<img src=""img/set1/S2.jpg"" width=""540"" height = ""360"" style=""border:16px solid orange"">","null","","","","","","","",""
"null","","html-keyboard-response","159","202230","0.0-159.0","","","null","","","","","","","",""
"611","","image-keyboard-response","160","202842","0.0-160.0","","img/set1/S4.jpg","74","4","random","74","random,structured_incentive,structured_load,structured_normal","2,3,2,1,3,4","true","",""
"null","","html-keyboard-response","161","203200","0.0-161.0","","<img src=""img/set1/S4.jpg"" width=""540"" height = ""360"" style=""border:16px solid orange"">","null","","","","","","","",""
"null","","html-keyboard-response","162","203410","0.0-162.0","","","null","","","","","","","",""
"704","","image-keyboard-response","163","204115","0.0-163.0","","img/set1/S1.jpg","83","1","random","83","random,structured_incentive,structured_load,structured_normal","2,3,2,1,3,4","true","",""
"null","","html-keyboard-response","164","204470","0.0-164.0","","<img src=""img/set1/S1.jpg"" width=""540"" height = ""360"" style=""border:16px solid orange"">","null","","","","","","","",""
"null","","html-keyboard-response","165","204680","0.0-165.0","","","null","","","","","","","",""
"882","","image-keyboard-response","166","205562","0.0-166.0","","img/set1/S3.jpg","72","3","random","72","random,structured_incentive,structured_load,structured_normal","2,3,2,1,3,4","true","",""
"null","","html-keyboard-response","167","205919","0.0-167.0","","<img src=""img/set1/S3.jpg"" width=""540"" height = ""360"" style=""border:16px solid orange"">","null","","","","","","","",""
"null","","html-keyboard-response","168","206130","0.0-168.0","","","null","","","","","","","",""
"840","","image-keyboard-response","169","206971","0.0-169.0","","img/set1/S1.jpg","83","1","random","83","random,structured_incentive,structured_load,structured_normal","2,3,2,1,3,4","true","",""
"null","","html-keyboard-response","170","207330","0.0-170.0","","<img src=""img/set1/S1.jpg"" width=""540"" height = ""360"" style=""border:16px solid orange"">","null","","","","","","","",""
"null","","html-keyboard-response","171","207540","0.0-171.0","","","null","","","","","","","",""
"630","","image-keyboard-response","172","208171","0.0-172.0","","img/set1/S4.jpg","74","4","random","74","random,structured_incentive,structured_load,structured_normal","2,3,2,1,3,4","true","",""
"null","","html-keyboard-response","173","208530","0.0-173.0","","<img src=""img/set1/S4.jpg"" width=""540"" height = ""360"" style=""border:16px solid orange"">","null","","","","","","","",""
"null","","html-keyboard-response","174","208740","0.0-174.0","","","null","","","","","","","",""
"918","","image-keyboard-response","175","209658","0.0-175.0","","img/set1/S3.jpg","68","3","random","72","random,structured_incentive,structured_load,structured_normal","2,3,2,1,3,4","false","",""
"null","","html-keyboard-response","176","210010","0.0-176.0","","<img src=""img/set1/S3.jpg"" width=""540"" height = ""360"">","null","","","","","","","",""
"null","","html-keyboard-response","177","210220","0.0-177.0","","","null","","","","","","","",""
"710","","image-keyboard-response","178","210930","0.0-178.0","","img/set1/S4.jpg","74","4","random","74","random,structured_incentive,structured_load,structured_normal","2,3,2,1,3,4","true","",""
"null","","html-keyboard-response","179","211282","0.0-179.0","","<img src=""img/set1/S4.jpg"" width=""540"" height = ""360"" style=""border:16px solid orange"">","null","","","","","","","",""
"null","","html-keyboard-response","180","211491","0.0-180.0","","","null","","","","","","","",""
"830","","image-keyboard-response","181","212322","0.0-181.0","","img/set1/S1.jpg","83","1","random","83","random,structured_incentive,structured_load,structured_normal","2,3,2,1,3,4","true","",""
"null","","html-keyboard-response","182","212676","0.0-182.0","","<img src=""img/set1/S1.jpg"" width=""540"" height = ""360"" style=""border:16px solid orange"">","null","","","","","","","",""
"null","","html-keyboard-response","183","212886","0.0-183.0","","","null","","","","","","","",""
"643","","image-keyboard-response","184","213530","0.0-184.0","","img/set1/S2.jpg","68","2","random","68","random,structured_incentive,structured_load,structured_normal","2,3,2,1,3,4","true","",""
"null","","html-keyboard-response","185","213886","0.0-185.0","","<img src=""img/set1/S2.jpg"" width=""540"" height = ""360"" style=""border:16px solid orange"">","null","","","","","","","",""
"null","","html-keyboard-response","186","214096","0.0-186.0","","","null","","","","","","","",""
"482","","image-keyboard-response","187","214578","0.0-187.0","","img/set1/S1.jpg","83","1","random","83","random,structured_incentive,structured_load,structured_normal","2,3,2,1,3,4","true","",""
"null","","html-keyboard-response","188","214936","0.0-188.0","","<img src=""img/set1/S1.jpg"" width=""540"" height = ""360"" style=""border:16px solid orange"">","null","","","","","","","",""
"null","","html-keyboard-response","189","215146","0.0-189.0","","","null","","","","","","","",""
"743","","image-keyboard-response","190","215890","0.0-190.0","","img/set1/S2.jpg","68","2","random","68","random,structured_incentive,structured_load,structured_normal","2,3,2,1,3,4","true","",""
"null","","html-keyboard-response","191","216246","0.0-191.0","","<img src=""img/set1/S2.jpg"" width=""540"" height = ""360"" style=""border:16px solid orange"">","null","","","","","","","",""
"null","","html-keyboard-response","192","216456","0.0-192.0","","","null","","","","","","","",""
"594","","image-keyboard-response","193","217050","0.0-193.0","","img/set1/S2.jpg","68","2","random","68","random,structured_incentive,structured_load,structured_normal","2,3,2,1,3,4","true","",""
"null","","html-keyboard-response","194","217406","0.0-194.0","","<img src=""img/set1/S2.jpg"" width=""540"" height = ""360"" style=""border:16px solid orange"">","null","","","","","","","",""
"null","","html-keyboard-response","195","217616","0.0-195.0","","","null","","","","","","","",""
"657","","image-keyboard-response","196","218274","0.0-196.0","","img/set1/S3.jpg","72","3","random","72","random,structured_incentive,structured_load,structured_normal","2,3,2,1,3,4","true","",""
"null","","html-keyboard-response","197","218626","0.0-197.0","","<img src=""img/set1/S3.jpg"" width=""540"" height = ""360"" style=""border:16px solid orange"">","null","","","","","","","",""
"null","","html-keyboard-response","198","218836","0.0-198.0","","","null","","","","","","","",""
"566","","image-keyboard-response","199","219402","0.0-199.0","","img/set1/S3.jpg","72","3","random","72","random,structured_incentive,structured_load,structured_normal","2,3,2,1,3,4","true","",""
"null","","html-keyboard-response","200","219756","0.0-200.0","","<img src=""img/set1/S3.jpg"" width=""540"" height = ""360"" style=""border:16px solid orange"">","null","","","","","","","",""
"null","","html-keyboard-response","201","219965","0.0-201.0","","","null","","","","","","","",""
"707","","image-keyboard-response","202","220674","0.0-202.0","","img/set1/S1.jpg","83","1","random","83","random,structured_incentive,structured_load,structured_normal","2,3,2,1,3,4","true","",""
"null","","html-keyboard-response","203","221030","0.0-203.0","","<img src=""img/set1/S1.jpg"" width=""540"" height = ""360"" style=""border:16px solid orange"">","null","","","","","","","",""
"null","","html-keyboard-response","204","221239","0.0-204.0","","","null","","","","","","","",""
"529","","image-keyboard-response","205","221769","0.0-205.0","","img/set1/S1.jpg","83","1","random","83","random,structured_incentive,structured_load,structured_normal","2,3,2,1,3,4","true","",""
"null","","html-keyboard-response","206","222130","0.0-206.0","","<img src=""img/set1/S1.jpg"" width=""540"" height = ""360"" style=""border:16px solid orange"">","null","","","","","","","",""
"null","","html-keyboard-response","207","222340","0.0-207.0","","","null","","","","","","","",""
"573","","image-keyboard-response","208","222914","0.0-208.0","","img/set1/S2.jpg","68","2","random","68","random,structured_incentive,structured_load,structured_normal","2,3,2,1,3,4","true","",""
"null","","html-keyboard-response","209","223269","0.0-209.0","","<img src=""img/set1/S2.jpg"" width=""540"" height = ""360"" style=""border:16px solid orange"">","null","","","","","","","",""
"null","","html-keyboard-response","210","223480","0.0-210.0","","","null","","","","","","","",""
"586","","image-keyboard-response","211","224067","0.0-211.0","","img/set1/S1.jpg","83","1","random","83","random,structured_incentive,structured_load,structured_normal","2,3,2,1,3,4","true","",""
"null","","html-keyboard-response","212","224419","0.0-212.0","","<img src=""img/set1/S1.jpg"" width=""540"" height = ""360"" style=""border:16px solid orange"">","null","","","","","","","",""
"null","","html-keyboard-response","213","224629","0.0-213.0","","","null","","","","","","","",""
"605","","image-keyboard-response","214","225234","0.0-214.0","","img/set1/S2.jpg","83","2","random","68","random,structured_incentive,structured_load,structured_normal","2,3,2,1,3,4","false","",""
"null","","html-keyboard-response","215","225590","0.0-215.0","","<img src=""img/set1/S2.jpg"" width=""540"" height = ""360"">","null","","","","","","","",""
"null","","html-keyboard-response","216","225799","0.0-216.0","","","null","","","","","","","",""
"767","","image-keyboard-response","217","226568","0.0-217.0","","img/set1/S3.jpg","72","3","random","72","random,structured_incentive,structured_load,structured_normal","2,3,2,1,3,4","true","",""
"null","","html-keyboard-response","218","226923","0.0-218.0","","<img src=""img/set1/S3.jpg"" width=""540"" height = ""360"" style=""border:16px solid orange"">","null","","","","","","","",""
"null","","html-keyboard-response","219","227134","0.0-219.0","","","null","","","","","","","",""
"548","","image-keyboard-response","220","227682","0.0-220.0","","img/set1/S3.jpg","72","3","random","72","random,structured_incentive,structured_load,structured_normal","2,3,2,1,3,4","true","",""
"null","","html-keyboard-response","221","228044","0.0-221.0","","<img src=""img/set1/S3.jpg"" width=""540"" height = ""360"" style=""border:16px solid orange"">","null","","","","","","","",""
"null","","html-keyboard-response","222","228253","0.0-222.0","","","null","","","","","","","",""
"643","","image-keyboard-response","223","228898","0.0-223.0","","img/set1/S1.jpg","74","1","random","83","random,structured_incentive,structured_load,structured_normal","2,3,2,1,3,4","false","",""
"null","","html-keyboard-response","224","229256","0.0-224.0","","<img src=""img/set1/S1.jpg"" width=""540"" height = ""360"">","null","","","","","","","",""
"null","","html-keyboard-response","225","229465","0.0-225.0","","","null","","","","","","","",""
"815","","image-keyboard-response","226","230282","0.0-226.0","","img/set1/S3.jpg","72","3","random","72","random,structured_incentive,structured_load,structured_normal","2,3,2,1,3,4","true","",""
"null","","html-keyboard-response","227","230637","0.0-227.0","","<img src=""img/set1/S3.jpg"" width=""540"" height = ""360"" style=""border:16px solid orange"">","null","","","","","","","",""
"null","","html-keyboard-response","228","230847","0.0-228.0","","","null","","","","","","","",""
"614","","image-keyboard-response","229","231462","0.0-229.0","","img/set1/S4.jpg","74","4","random","74","random,structured_incentive,structured_load,structured_normal","2,3,2,1,3,4","true","",""
"null","","html-keyboard-response","230","231818","0.0-230.0","","<img src=""img/set1/S4.jpg"" width=""540"" height = ""360"" style=""border:16px solid orange"">","null","","","","","","","",""
"null","","html-keyboard-response","231","232028","0.0-231.0","","","null","","","","","","","",""
"645","","image-keyboard-response","232","232674","0.0-232.0","","img/set1/S3.jpg","72","3","random","72","random,structured_incentive,structured_load,structured_normal","2,3,2,1,3,4","true","",""
"null","","html-keyboard-response","233","233027","0.0-233.0","","<img src=""img/set1/S3.jpg"" width=""540"" height = ""360"" style=""border:16px solid orange"">","null","","","","","","","",""
"null","","html-keyboard-response","234","233238","0.0-234.0","","","null","","","","","","","",""
"667","","image-keyboard-response","235","233906","0.0-235.0","","img/set1/S2.jpg","68","2","random","68","random,structured_incentive,structured_load,structured_normal","2,3,2,1,3,4","true","",""
"null","","html-keyboard-response","236","234258","0.0-236.0","","<img src=""img/set1/S2.jpg"" width=""540"" height = ""360"" style=""border:16px solid orange"">","null","","","","","","","",""
"null","","html-keyboard-response","237","234468","0.0-237.0","","","null","","","","","","","",""
"757","","image-keyboard-response","238","235226","0.0-238.0","","img/set1/S3.jpg","72","3","random","72","random,structured_incentive,structured_load,structured_normal","2,3,2,1,3,4","true","",""
"null","","html-keyboard-response","239","235578","0.0-239.0","","<img src=""img/set1/S3.jpg"" width=""540"" height = ""360"" style=""border:16px solid orange"">","null","","","","","","","",""
"null","","html-keyboard-response","240","235788","0.0-240.0","","","null","","","","","","","",""
"764","","image-keyboard-response","241","236554","0.0-241.0","","img/set1/S2.jpg","68","2","random","68","random,structured_incentive,structured_load,structured_normal","2,3,2,1,3,4","true","",""
"null","","html-keyboard-response","242","236907","0.0-242.0","","<img src=""img/set1/S2.jpg"" width=""540"" height = ""360"" style=""border:16px solid orange"">","null","","","","","","","",""
"null","","html-keyboard-response","243","237118","0.0-243.0","","","null","","","","","","","",""
"483","","image-keyboard-response","244","237603","0.0-244.0","","img/set1/S2.jpg","68","2","random","68","random,structured_incentive,structured_load,structured_normal","2,3,2,1,3,4","true","",""
"null","","html-keyboard-response","245","237957","0.0-245.0","","<img src=""img/set1/S2.jpg"" width=""540"" height = ""360"" style=""border:16px solid orange"">","null","","","","","","","",""
"null","","html-keyboard-response","246","238168","0.0-246.0","","","null","","","","","","","",""
"592","","image-keyboard-response","247","238762","0.0-247.0","","img/set1/S1.jpg","83","1","random","83","random,structured_incentive,structured_load,structured_normal","2,3,2,1,3,4","true","",""
"null","","html-keyboard-response","248","239117","0.0-248.0","","<img src=""img/set1/S1.jpg"" width=""540"" height = ""360"" style=""border:16px solid orange"">","null","","","","","","","",""
"null","","html-keyboard-response","249","239328","0.0-249.0","","","null","","","","","","","",""
"458","","image-keyboard-response","250","239786","0.0-250.0","","img/set1/S1.jpg","68","1","random","83","random,structured_incentive,structured_load,structured_normal","2,3,2,1,3,4","false","",""
"null","","html-keyboard-response","251","240137","0.0-251.0","","<img src=""img/set1/S1.jpg"" width=""540"" height = ""360"">","null","","","","","","","",""
"null","","html-keyboard-response","252","240339","0.0-252.0","","","null","","","","","","","",""
"589","","image-keyboard-response","253","240929","0.0-253.0","","img/set1/S4.jpg","74","4","random","74","random,structured_incentive,structured_load,structured_normal","2,3,2,1,3,4","true","",""
"null","","html-keyboard-response","254","241290","0.0-254.0","","<img src=""img/set1/S4.jpg"" width=""540"" height = ""360"" style=""border:16px solid orange"">","null","","","","","","","",""
"null","","html-keyboard-response","255","241501","0.0-255.0","","","null","","","","","","","",""
"517","","image-keyboard-response","256","242018","0.0-256.0","","img/set1/S4.jpg","74","4","random","74","random,structured_incentive,structured_load,structured_normal","2,3,2,1,3,4","true","",""
"null","","html-keyboard-response","257","242369","0.0-257.0","","<img src=""img/set1/S4.jpg"" width=""540"" height = ""360"" style=""border:16px solid orange"">","null","","","","","","","",""
"null","","html-keyboard-response","258","242579","0.0-258.0","","","null","","","","","","","",""
"478","","image-keyboard-response","259","243058","0.0-259.0","","img/set1/S4.jpg","74","4","random","74","random,structured_incentive,structured_load,structured_normal","2,3,2,1,3,4","true","",""
"null","","html-keyboard-response","260","243420","0.0-260.0","","<img src=""img/set1/S4.jpg"" width=""540"" height = ""360"" style=""border:16px solid orange"">","null","","","","","","","",""
"null","","html-keyboard-response","261","243629","0.0-261.0","","","null","","","","","","","",""
"771","","image-keyboard-response","262","244401","0.0-262.0","","img/set1/S2.jpg","83","2","random","68","random,structured_incentive,structured_load,structured_normal","2,3,2,1,3,4","false","",""
"null","","html-keyboard-response","263","244759","0.0-263.0","","<img src=""img/set1/S2.jpg"" width=""540"" height = ""360"">","null","","","","","","","",""
"null","","html-keyboard-response","264","244969","0.0-264.0","","","null","","","","","","","",""
"455","","image-keyboard-response","265","245426","0.0-265.0","","img/set1/S2.jpg","68","2","random","68","random,structured_incentive,structured_load,structured_normal","2,3,2,1,3,4","true","",""
"null","","html-keyboard-response","266","245779","0.0-266.0","","<img src=""img/set1/S2.jpg"" width=""540"" height = ""360"" style=""border:16px solid orange"">","null","","","","","","","",""
"null","","html-keyboard-response","267","245989","0.0-267.0","","","null","","","","","","","",""
"659","","image-keyboard-response","268","246650","0.0-268.0","","img/set1/S1.jpg","83","1","random","83","random,structured_incentive,structured_load,structured_normal","2,3,2,1,3,4","true","",""
"null","","html-keyboard-response","269","247009","0.0-269.0","","<img src=""img/set1/S1.jpg"" width=""540"" height = ""360"" style=""border:16px solid orange"">","null","","","","","","","",""
"null","","html-keyboard-response","270","247220","0.0-270.0","","","null","","","","","","","",""
"622","","image-keyboard-response","271","247842","0.0-271.0","","img/set1/S4.jpg","74","4","random","74","random,structured_incentive,structured_load,structured_normal","2,3,2,1,3,4","true","",""
"null","","html-keyboard-response","272","248199","0.0-272.0","","<img src=""img/set1/S4.jpg"" width=""540"" height = ""360"" style=""border:16px solid orange"">","null","","","","","","","",""
"null","","html-keyboard-response","273","248409","0.0-273.0","","","null","","","","","","","",""
"736","","image-keyboard-response","274","249146","0.0-274.0","","img/set1/S3.jpg","72","3","random","72","random,structured_incentive,structured_load,structured_normal","2,3,2,1,3,4","true","",""
"null","","html-keyboard-response","275","249501","0.0-275.0","","<img src=""img/set1/S3.jpg"" width=""540"" height = ""360"" style=""border:16px solid orange"">","null","","","","","","","",""
"null","","html-keyboard-response","276","249710","0.0-276.0","","","null","","","","","","","",""
"595","","image-keyboard-response","277","250305","0.0-277.0","","img/set1/S2.jpg","68","2","random","68","random,structured_incentive,structured_load,structured_normal","2,3,2,1,3,4","true","",""
"null","","html-keyboard-response","278","250659","0.0-278.0","","<img src=""img/set1/S2.jpg"" width=""540"" height = ""360"" style=""border:16px solid orange"">","null","","","","","","","",""
"null","","html-keyboard-response","279","250869","0.0-279.0","","","null","","","","","","","",""
"467","","image-keyboard-response","280","251338","0.0-280.0","","img/set1/S2.jpg","68","2","random","68","random,structured_incentive,structured_load,structured_normal","2,3,2,1,3,4","true","",""
"null","","html-keyboard-response","281","251689","0.0-281.0","","<img src=""img/set1/S2.jpg"" width=""540"" height = ""360"" style=""border:16px solid orange"">","null","","","","","","","",""
"null","","html-keyboard-response","282","251899","0.0-282.0","","","null","","","","","","","",""
"430","","image-keyboard-response","283","252330","0.0-283.0","","img/set1/S2.jpg","68","2","random","68","random,structured_incentive,structured_load,structured_normal","2,3,2,1,3,4","true","",""
"null","","html-keyboard-response","284","252689","0.0-284.0","","<img src=""img/set1/S2.jpg"" width=""540"" height = ""360"" style=""border:16px solid orange"">","null","","","","","","","",""
"null","","html-keyboard-response","285","252899","0.0-285.0","","","null","","","","","","","",""
"557","","image-keyboard-response","286","253457","0.0-286.0","","img/set1/S4.jpg","74","4","random","74","random,structured_incentive,structured_load,structured_normal","2,3,2,1,3,4","true","",""
"null","","html-keyboard-response","287","253809","0.0-287.0","","<img src=""img/set1/S4.jpg"" width=""540"" height = ""360"" style=""border:16px solid orange"">","null","","","","","","","",""
"null","","html-keyboard-response","288","254019","0.0-288.0","","","null","","","","","","","",""
"1053","","image-keyboard-response","289","255073","0.0-289.0","","img/set1/S2.jpg","68","2","random","68","random,structured_incentive,structured_load,structured_normal","2,3,2,1,3,4","true","",""
"null","","html-keyboard-response","290","255430","0.0-290.0","","<img src=""img/set1/S2.jpg"" width=""540"" height = ""360"" style=""border:16px solid orange"">","null","","","","","","","",""
"null","","html-keyboard-response","291","255639","0.0-291.0","","","null","","","","","","","",""
"610","","image-keyboard-response","292","256251","0.0-292.0","","img/set1/S1.jpg","83","1","random","83","random,structured_incentive,structured_load,structured_normal","2,3,2,1,3,4","true","",""
"null","","html-keyboard-response","293","256610","0.0-293.0","","<img src=""img/set1/S1.jpg"" width=""540"" height = ""360"" style=""border:16px solid orange"">","null","","","","","","","",""
"null","","html-keyboard-response","294","256812","0.0-294.0","","","null","","","","","","","",""
"701","","image-keyboard-response","295","257514","0.0-295.0","","img/set1/S3.jpg","72","3","random","72","random,structured_incentive,structured_load,structured_normal","2,3,2,1,3,4","true","",""
"null","","html-keyboard-response","296","257873","0.0-296.0","","<img src=""img/set1/S3.jpg"" width=""540"" height = ""360"" style=""border:16px solid orange"">","null","","","","","","","",""
"null","","html-keyboard-response","297","258097","0.0-297.0","","","null","","","","","","","",""
"615","","image-keyboard-response","298","258713","0.0-298.0","","img/set1/S1.jpg","83","1","random","83","random,structured_incentive,structured_load,structured_normal","2,3,2,1,3,4","true","",""
"null","","html-keyboard-response","299","259065","0.0-299.0","","<img src=""img/set1/S1.jpg"" width=""540"" height = ""360"" style=""border:16px solid orange"">","null","","","","","","","",""
"null","","html-keyboard-response","300","259275","0.0-300.0","","","null","","","","","","","",""
"574","","image-keyboard-response","301","259850","0.0-301.0","","img/set1/S4.jpg","74","4","random","74","random,structured_incentive,structured_load,structured_normal","2,3,2,1,3,4","true","",""
"null","","html-keyboard-response","302","260205","0.0-302.0","","<img src=""img/set1/S4.jpg"" width=""540"" height = ""360"" style=""border:16px solid orange"">","null","","","","","","","",""
"null","","html-keyboard-response","303","260415","0.0-303.0","","","null","","","","","","","",""
"441","","image-keyboard-response","304","260857","0.0-304.0","","img/set1/S4.jpg","74","4","random","74","random,structured_incentive,structured_load,structured_normal","2,3,2,1,3,4","true","",""
"null","","html-keyboard-response","305","261215","0.0-305.0","","<img src=""img/set1/S4.jpg"" width=""540"" height = ""360"" style=""border:16px solid orange"">","null","","","","","","","",""
"null","","html-keyboard-response","306","261425","0.0-306.0","","","null","","","","","","","",""
"504","","image-keyboard-response","307","261931","0.0-307.0","","img/set1/S3.jpg","74","3","random","72","random,structured_incentive,structured_load,structured_normal","2,3,2,1,3,4","false","",""
"null","","html-keyboard-response","308","262287","0.0-308.0","","<img src=""img/set1/S3.jpg"" width=""540"" height = ""360"">","null","","","","","","","",""
"null","","html-keyboard-response","309","262497","0.0-309.0","","","null","","","","","","","",""
"599","","image-keyboard-response","310","263097","0.0-310.0","","img/set1/S1.jpg","83","1","random","83","random,structured_incentive,structured_load,structured_normal","2,3,2,1,3,4","true","",""
"null","","html-keyboard-response","311","263449","0.0-311.0","","<img src=""img/set1/S1.jpg"" width=""540"" height = ""360"" style=""border:16px solid orange"">","null","","","","","","","",""
"null","","html-keyboard-response","312","263659","0.0-312.0","","","null","","","","","","","",""
"598","","image-keyboard-response","313","264258","0.0-313.0","","img/set1/S1.jpg","83","1","random","83","random,structured_incentive,structured_load,structured_normal","2,3,2,1,3,4","true","",""
"null","","html-keyboard-response","314","264619","0.0-314.0","","<img src=""img/set1/S1.jpg"" width=""540"" height = ""360"" style=""border:16px solid orange"">","null","","","","","","","",""
"null","","html-keyboard-response","315","264823","0.0-315.0","","","null","","","","","","","",""
"746","","image-keyboard-response","316","265569","0.0-316.0","","img/set1/S2.jpg","68","2","random","68","random,structured_incentive,structured_load,structured_normal","2,3,2,1,3,4","true","",""
"null","","html-keyboard-response","317","265923","0.0-317.0","","<img src=""img/set1/S2.jpg"" width=""540"" height = ""360"" style=""border:16px solid orange"">","null","","","","","","","",""
"null","","html-keyboard-response","318","266133","0.0-318.0","","","null","","","","","","","",""
"611","","image-keyboard-response","319","266745","0.0-319.0","","img/set1/S3.jpg","72","3","random","72","random,structured_incentive,structured_load,structured_normal","2,3,2,1,3,4","true","",""
"null","","html-keyboard-response","320","267103","0.0-320.0","","<img src=""img/set1/S3.jpg"" width=""540"" height = ""360"" style=""border:16px solid orange"">","null","","","","","","","",""
"null","","html-keyboard-response","321","267314","0.0-321.0","","","null","","","","","","","",""
"486","","image-keyboard-response","322","267801","0.0-322.0","","img/set1/S3.jpg","72","3","random","72","random,structured_incentive,structured_load,structured_normal","2,3,2,1,3,4","true","",""
"null","","html-keyboard-response","323","268155","0.0-323.0","","<img src=""img/set1/S3.jpg"" width=""540"" height = ""360"" style=""border:16px solid orange"">","null","","","","","","","",""
"null","","html-keyboard-response","324","268365","0.0-324.0","","","null","","","","","","","",""
"602","","image-keyboard-response","325","268969","0.0-325.0","","img/set1/S1.jpg","83","1","random","83","random,structured_incentive,structured_load,structured_normal","2,3,2,1,3,4","true","",""
"null","","html-keyboard-response","326","269328","0.0-326.0","","<img src=""img/set1/S1.jpg"" width=""540"" height = ""360"" style=""border:16px solid orange"">","null","","","","","","","",""
"null","","html-keyboard-response","327","269537","0.0-327.0","","","null","","","","","","","",""
"599","","image-keyboard-response","328","270138","0.0-328.0","","img/set1/S1.jpg","83","1","random","83","random,structured_incentive,structured_load,structured_normal","2,3,2,1,3,4","true","",""
"null","","html-keyboard-response","329","270497","0.0-329.0","","<img src=""img/set1/S1.jpg"" width=""540"" height = ""360"" style=""border:16px solid orange"">","null","","","","","","","",""
"null","","html-keyboard-response","330","270707","0.0-330.0","","","null","","","","","","","",""
"965","","image-keyboard-response","331","271673","0.0-331.0","","img/set1/S3.jpg","72","3","random","72","random,structured_incentive,structured_load,structured_normal","2,3,2,1,3,4","true","",""
"null","","html-keyboard-response","332","272029","0.0-332.0","","<img src=""img/set1/S3.jpg"" width=""540"" height = ""360"" style=""border:16px solid orange"">","null","","","","","","","",""
"null","","html-keyboard-response","333","272240","0.0-333.0","","","null","","","","","","","",""
"512","","image-keyboard-response","334","272753","0.0-334.0","","img/set1/S4.jpg","74","4","random","74","random,structured_incentive,structured_load,structured_normal","2,3,2,1,3,4","true","",""
"null","","html-keyboard-response","335","273111","0.0-335.0","","<img src=""img/set1/S4.jpg"" width=""540"" height = ""360"" style=""border:16px solid orange"">","null","","","","","","","",""
"null","","html-keyboard-response","336","273321","0.0-336.0","","","null","","","","","","","",""
"391","","image-keyboard-response","337","273713","0.0-337.0","","img/set1/S4.jpg","74","4","random","74","random,structured_incentive,structured_load,structured_normal","2,3,2,1,3,4","true","",""
"null","","html-keyboard-response","338","274071","0.0-338.0","","<img src=""img/set1/S4.jpg"" width=""540"" height = ""360"" style=""border:16px solid orange"">","null","","","","","","","",""
"null","","html-keyboard-response","339","274281","0.0-339.0","","","null","","","","","","","",""
"646","","image-keyboard-response","340","274929","0.0-340.0","","img/set1/S3.jpg","72","3","random","72","random,structured_incentive,structured_load,structured_normal","2,3,2,1,3,4","true","",""
"null","","html-keyboard-response","341","275281","0.0-341.0","","<img src=""img/set1/S3.jpg"" width=""540"" height = ""360"" style=""border:16px solid orange"">","null","","","","","","","",""
"null","","html-keyboard-response","342","275491","0.0-342.0","","","null","","","","","","","",""
"685","","image-keyboard-response","343","276177","0.0-343.0","","img/set1/S1.jpg","83","1","random","83","random,structured_incentive,structured_load,structured_normal","2,3,2,1,3,4","true","",""
"null","","html-keyboard-response","344","276531","0.0-344.0","","<img src=""img/set1/S1.jpg"" width=""540"" height = ""360"" style=""border:16px solid orange"">","null","","","","","","","",""
"null","","html-keyboard-response","345","276741","0.0-345.0","","","null","","","","","","","",""
"443","","image-keyboard-response","346","277186","0.0-346.0","","img/set1/S3.jpg","83","3","random","72","random,structured_incentive,structured_load,structured_normal","2,3,2,1,3,4","false","",""
"null","","html-keyboard-response","347","277541","0.0-347.0","","<img src=""img/set1/S3.jpg"" width=""540"" height = ""360"">","null","","","","","","","",""
"null","","html-keyboard-response","348","277751","0.0-348.0","","","null","","","","","","","",""
"586","","image-keyboard-response","349","278337","0.0-349.0","","img/set1/S3.jpg","72","3","random","72","random,structured_incentive,structured_load,structured_normal","2,3,2,1,3,4","true","",""
"null","","html-keyboard-response","350","278692","0.0-350.0","","<img src=""img/set1/S3.jpg"" width=""540"" height = ""360"" style=""border:16px solid orange"">","null","","","","","","","",""
"null","","html-keyboard-response","351","278901","0.0-351.0","","","null","","","","","","","",""
"690","","image-keyboard-response","352","279593","0.0-352.0","","img/set1/S1.jpg","83","1","random","83","random,structured_incentive,structured_load,structured_normal","2,3,2,1,3,4","true","",""
"null","","html-keyboard-response","353","279951","0.0-353.0","","<img src=""img/set1/S1.jpg"" width=""540"" height = ""360"" style=""border:16px solid orange"">","null","","","","","","","",""
"null","","html-keyboard-response","354","280161","0.0-354.0","","","null","","","","","","","",""
"569","","image-keyboard-response","355","280730","0.0-355.0","","img/set1/S2.jpg","68","2","random","68","random,structured_incentive,structured_load,structured_normal","2,3,2,1,3,4","true","",""
"null","","html-keyboard-response","356","281083","0.0-356.0","","<img src=""img/set1/S2.jpg"" width=""540"" height = ""360"" style=""border:16px solid orange"">","null","","","","","","","",""
"null","","html-keyboard-response","357","281293","0.0-357.0","","","null","","","","","","","",""
"643","","image-keyboard-response","358","281937","0.0-358.0","","img/set1/S1.jpg","83","1","random","83","random,structured_incentive,structured_load,structured_normal","2,3,2,1,3,4","true","",""
"null","","html-keyboard-response","359","282293","0.0-359.0","","<img src=""img/set1/S1.jpg"" width=""540"" height = ""360"" style=""border:16px solid orange"">","null","","","","","","","",""
"null","","html-keyboard-response","360","282503","0.0-360.0","","","null","","","","","","","",""
"656","","image-keyboard-response","361","283161","0.0-361.0","","img/set1/S3.jpg","72","3","random","72","random,structured_incentive,structured_load,structured_normal","2,3,2,1,3,4","true","",""
"null","","html-keyboard-response","362","283513","0.0-362.0","","<img src=""img/set1/S3.jpg"" width=""540"" height = ""360"" style=""border:16px solid orange"">","null","","","","","","","",""
"null","","html-keyboard-response","363","283724","0.0-363.0","","","null","","","","","","","",""
"11924","","html-keyboard-response","364","295649","0.0-364.0","","<p class=""center-content"">You have completed a block! </p><p class=""center-content"">Press any key on the keyboard to continue, </p><p class=""center-content"">or wait for the automatic progression to the next block after one minute.</p>","32","","","","","","","",""
"5864","","instructions","365","301515","0.0-365.0","[{""page_index"":0,""viewing_time"":5864}]","","","","","","","","","",""
"22782","","instructions","366","324299","0.0-366.0","[{""page_index"":0,""viewing_time"":14615},{""page_index"":1,""viewing_time"":8167}]","","","","","","","","","",""
"1507","","image-keyboard-response","367","325809","0.0-367.0","","img/set2/S2.jpg","83","2","structured_incentive","68","random,structured_incentive,structured_load,structured_normal","2,3,2,1,3,4","false","",""
"null","","html-keyboard-response","368","326168","0.0-368.0","","<img src=""img/set2/S2.jpg"" width=""540"" height = ""360"">","null","","","","","","","",""
"null","","html-keyboard-response","369","326378","0.0-369.0","","","null","","","","","","","",""
"909","","image-keyboard-response","370","327289","0.0-370.0","","img/set2/S3.jpg","68","3","structured_incentive","72","random,structured_incentive,structured_load,structured_normal","2,3,2,1,3,4","false","",""
"null","","html-keyboard-response","371","327647","0.0-371.0","","<img src=""img/set2/S3.jpg"" width=""540"" height = ""360"">","null","","","","","","","",""
"null","","html-keyboard-response","372","327857","0.0-372.0","","","null","","","","","","","",""
"902","","image-keyboard-response","373","328760","0.0-373.0","","img/set2/S4.jpg","74","4","structured_incentive","74","random,structured_incentive,structured_load,structured_normal","2,3,2,1,3,4","true","",""
"null","","html-keyboard-response","374","329119","0.0-374.0","","<img src=""img/set2/S4.jpg"" width=""540"" height = ""360"" style=""border:16px solid orange"">","null","","","","","","","",""
"null","","html-keyboard-response","375","329329","0.0-375.0","","","null","","","","","","","",""
"813","","image-keyboard-response","376","330145","0.0-376.0","","img/set2/S2.jpg","72","2","structured_incentive","68","random,structured_incentive,structured_load,structured_normal","2,3,2,1,3,4","false","",""
"null","","html-keyboard-response","377","330500","0.0-377.0","","<img src=""img/set2/S2.jpg"" width=""540"" height = ""360"">","null","","","","","","","",""
"null","","html-keyboard-response","378","330709","0.0-378.0","","","null","","","","","","","",""
"809","","image-keyboard-response","379","331520","0.0-379.0","","img/set2/S3.jpg","74","3","structured_incentive","72","random,structured_incentive,structured_load,structured_normal","2,3,2,1,3,4","false","",""
"null","","html-keyboard-response","380","331880","0.0-380.0","","<img src=""img/set2/S3.jpg"" width=""540"" height = ""360"">","null","","","","","","","",""
"null","","html-keyboard-response","381","332090","0.0-381.0","","","null","","","","","","","",""
"1206","","image-keyboard-response","382","333296","0.0-382.0","","img/set2/S1.jpg","72","1","structured_incentive","83","random,structured_incentive,structured_load,structured_normal","2,3,2,1,3,4","false","",""
"null","","html-keyboard-response","383","333649","0.0-383.0","","<img src=""img/set2/S1.jpg"" width=""540"" height = ""360"">","null","","","","","","","",""
"null","","html-keyboard-response","384","333859","0.0-384.0","","","null","","","","","","","",""
"1445","","image-keyboard-response","385","335305","0.0-385.0","","img/set2/S2.jpg","74","2","structured_incentive","68","random,structured_incentive,structured_load,structured_normal","2,3,2,1,3,4","false","",""
"null","","html-keyboard-response","386","335660","0.0-386.0","","<img src=""img/set2/S2.jpg"" width=""540"" height = ""360"">","null","","","","","","","",""
"null","","html-keyboard-response","387","335869","0.0-387.0","","","null","","","","","","","",""
"1089","","image-keyboard-response","388","336960","0.0-388.0","","img/set2/S3.jpg","83","3","structured_incentive","72","random,structured_incentive,structured_load,structured_normal","2,3,2,1,3,4","false","",""
"null","","html-keyboard-response","389","337319","0.0-389.0","","<img src=""img/set2/S3.jpg"" width=""540"" height = ""360"">","null","","","","","","","",""
"null","","html-keyboard-response","390","337530","0.0-390.0","","","null","","","","","","","",""
"1072","","image-keyboard-response","391","338602","0.0-391.0","","img/set2/S1.jpg","68","1","structured_incentive","83","random,structured_incentive,structured_load,structured_normal","2,3,2,1,3,4","false","",""
"null","","html-keyboard-response","392","338959","0.0-392.0","","<img src=""img/set2/S1.jpg"" width=""540"" height = ""360"">","null","","","","","","","",""
"null","","html-keyboard-response","393","339169","0.0-393.0","","","null","","","","","","","",""
"886","","image-keyboard-response","394","340057","0.0-394.0","","img/set2/S4.jpg","68","4","structured_incentive","74","random,structured_incentive,structured_load,structured_normal","2,3,2,1,3,4","false","",""
"null","","html-keyboard-response","395","340413","0.0-395.0","","<img src=""img/set2/S4.jpg"" width=""540"" height = ""360"">","null","","","","","","","",""
"null","","html-keyboard-response","396","340623","0.0-396.0","","","null","","","","","","","",""
"1191","","image-keyboard-response","397","341816","0.0-397.0","","img/set2/S4.jpg","72","4","structured_incentive","74","random,structured_incentive,structured_load,structured_normal","2,3,2,1,3,4","false","",""
"null","","html-keyboard-response","398","342173","0.0-398.0","","<img src=""img/set2/S4.jpg"" width=""540"" height = ""360"">","null","","","","","","","",""
"null","","html-keyboard-response","399","342383","0.0-399.0","","","null","","","","","","","",""
"1375","","image-keyboard-response","400","343759","0.0-400.0","","img/set2/S1.jpg","74","1","structured_incentive","83","random,structured_incentive,structured_load,structured_normal","2,3,2,1,3,4","false","",""
"null","","html-keyboard-response","401","344113","0.0-401.0","","<img src=""img/set2/S1.jpg"" width=""540"" height = ""360"">","null","","","","","","","",""
"null","","html-keyboard-response","402","344323","0.0-402.0","","","null","","","","","","","",""
"1468","","image-keyboard-response","403","345792","0.0-403.0","","img/set2/S2.jpg","68","2","structured_incentive","68","random,structured_incentive,structured_load,structured_normal","2,3,2,1,3,4","true","",""
"null","","html-keyboard-response","404","346143","0.0-404.0","","<img src=""img/set2/S2.jpg"" width=""540"" height = ""360"" style=""border:16px solid orange"">","null","","","","","","","",""
"null","","html-keyboard-response","405","346353","0.0-405.0","","","null","","","","","","","",""
"844","","image-keyboard-response","406","347200","0.0-406.0","","img/set2/S3.jpg","83","3","structured_incentive","72","random,structured_incentive,structured_load,structured_normal","2,3,2,1,3,4","false","",""
"null","","html-keyboard-response","407","347553","0.0-407.0","","<img src=""img/set2/S3.jpg"" width=""540"" height = ""360"">","null","","","","","","","",""
"null","","html-keyboard-response","408","347764","0.0-408.0","","","null","","","","","","","",""
"940","","image-keyboard-response","409","348704","0.0-409.0","","img/set2/S4.jpg","74","4","structured_incentive","74","random,structured_incentive,structured_load,structured_normal","2,3,2,1,3,4","true","",""
"null","","html-keyboard-response","410","349057","0.0-410.0","","<img src=""img/set2/S4.jpg"" width=""540"" height = ""360"" style=""border:16px solid orange"">","null","","","","","","","",""
"null","","html-keyboard-response","411","349267","0.0-411.0","","","null","","","","","","","",""
"875","","image-keyboard-response","412","350144","0.0-412.0","","img/set2/S1.jpg","72","1","structured_incentive","83","random,structured_incentive,structured_load,structured_normal","2,3,2,1,3,4","false","",""
"null","","html-keyboard-response","413","350498","0.0-413.0","","<img src=""img/set2/S1.jpg"" width=""540"" height = ""360"">","null","","","","","","","",""
"null","","html-keyboard-response","414","350708","0.0-414.0","","","null","","","","","","","",""
"988","","image-keyboard-response","415","351696","0.0-415.0","","img/set2/S4.jpg","74","4","structured_incentive","74","random,structured_incentive,structured_load,structured_normal","2,3,2,1,3,4","true","",""
"null","","html-keyboard-response","416","352052","0.0-416.0","","<img src=""img/set2/S4.jpg"" width=""540"" height = ""360"" style=""border:16px solid orange"">","null","","","","","","","",""
"null","","html-keyboard-response","417","352261","0.0-417.0","","","null","","","","","","","",""
"793","","image-keyboard-response","418","353055","0.0-418.0","","img/set2/S2.jpg","68","2","structured_incentive","68","random,structured_incentive,structured_load,structured_normal","2,3,2,1,3,4","true","",""
"null","","html-keyboard-response","419","353413","0.0-419.0","","<img src=""img/set2/S2.jpg"" width=""540"" height = ""360"" style=""border:16px solid orange"">","null","","","","","","","",""
"null","","html-keyboard-response","420","353623","0.0-420.0","","","null","","","","","","","",""
"510","","image-keyboard-response","421","354136","0.0-421.0","","img/set2/S3.jpg","72","3","structured_incentive","72","random,structured_incentive,structured_load,structured_normal","2,3,2,1,3,4","true","",""
"null","","html-keyboard-response","422","354493","0.0-422.0","","<img src=""img/set2/S3.jpg"" width=""540"" height = ""360"" style=""border:16px solid Violet"">","null","","","","","","","",""
"null","","html-keyboard-response","423","354703","0.0-423.0","","","null","","","","","","","",""
"1656","","image-keyboard-response","424","356360","0.0-424.0","","img/set2/S4.jpg","74","4","structured_incentive","74","random,structured_incentive,structured_load,structured_normal","2,3,2,1,3,4","true","",""
"null","","html-keyboard-response","425","356713","0.0-425.0","","<img src=""img/set2/S4.jpg"" width=""540"" height = ""360"" style=""border:16px solid orange"">","null","","","","","","","",""
"null","","html-keyboard-response","426","356924","0.0-426.0","","","null","","","","","","","",""
"467","","image-keyboard-response","427","357391","0.0-427.0","","img/set2/S4.jpg","74","4","structured_incentive","74","random,structured_incentive,structured_load,structured_normal","2,3,2,1,3,4","true","",""
"null","","html-keyboard-response","428","357745","0.0-428.0","","<img src=""img/set2/S4.jpg"" width=""540"" height = ""360"" style=""border:16px solid orange"">","null","","","","","","","",""
"null","","html-keyboard-response","429","357959","0.0-429.0","","","null","","","","","","","",""
"647","","image-keyboard-response","430","358607","0.0-430.0","","img/set2/S1.jpg","83","1","structured_incentive","83","random,structured_incentive,structured_load,structured_normal","2,3,2,1,3,4","true","",""
"null","","html-keyboard-response","431","358965","0.0-431.0","","<img src=""img/set2/S1.jpg"" width=""540"" height = ""360"" style=""border:16px solid orange"">","null","","","","","","","",""
"null","","html-keyboard-response","432","359175","0.0-432.0","","","null","","","","","","","",""
"496","","image-keyboard-response","433","359671","0.0-433.0","","img/set2/S1.jpg","83","1","structured_incentive","83","random,structured_incentive,structured_load,structured_normal","2,3,2,1,3,4","true","",""
"null","","html-keyboard-response","434","360025","0.0-434.0","","<img src=""img/set2/S1.jpg"" width=""540"" height = ""360"" style=""border:16px solid orange"">","null","","","","","","","",""
"null","","html-keyboard-response","435","360235","0.0-435.0","","","null","","","","","","","",""
"371","","image-keyboard-response","436","360608","0.0-436.0","","img/set2/S1.jpg","83","1","structured_incentive","83","random,structured_incentive,structured_load,structured_normal","2,3,2,1,3,4","true","",""
"null","","html-keyboard-response","437","360966","0.0-437.0","","<img src=""img/set2/S1.jpg"" width=""540"" height = ""360"" style=""border:16px solid orange"">","null","","","","","","","",""
"null","","html-keyboard-response","438","361175","0.0-438.0","","","null","","","","","","","",""
"847","","image-keyboard-response","439","362024","0.0-439.0","","img/set2/S4.jpg","74","4","structured_incentive","74","random,structured_incentive,structured_load,structured_normal","2,3,2,1,3,4","true","",""
"null","","html-keyboard-response","440","362377","0.0-440.0","","<img src=""img/set2/S4.jpg"" width=""540"" height = ""360"" style=""border:16px solid orange"">","null","","","","","","","",""
"null","","html-keyboard-response","441","362588","0.0-441.0","","","null","","","","","","","",""
"596","","image-keyboard-response","442","363184","0.0-442.0","","img/set2/S2.jpg","68","2","structured_incentive","68","random,structured_incentive,structured_load,structured_normal","2,3,2,1,3,4","true","",""
"null","","html-keyboard-response","443","363537","0.0-443.0","","<img src=""img/set2/S2.jpg"" width=""540"" height = ""360"" style=""border:16px solid orange"">","null","","","","","","","",""
"null","","html-keyboard-response","444","363747","0.0-444.0","","","null","","","","","","","",""
"476","","image-keyboard-response","445","364224","0.0-445.0","","img/set2/S3.jpg","72","3","structured_incentive","72","random,structured_incentive,structured_load,structured_normal","2,3,2,1,3,4","true","",""
"null","","html-keyboard-response","446","364577","0.0-446.0","","<img src=""img/set2/S3.jpg"" width=""540"" height = ""360"" style=""border:16px solid Violet"">","null","","","","","","","",""
"null","","html-keyboard-response","447","364787","0.0-447.0","","","null","","","","","","","",""
"595","","image-keyboard-response","448","365383","0.0-448.0","","img/set2/S1.jpg","83","1","structured_incentive","83","random,structured_incentive,structured_load,structured_normal","2,3,2,1,3,4","true","",""
"null","","html-keyboard-response","449","365737","0.0-449.0","","<img src=""img/set2/S1.jpg"" width=""540"" height = ""360"" style=""border:16px solid orange"">","null","","","","","","","",""
"null","","html-keyboard-response","450","365947","0.0-450.0","","","null","","","","","","","",""
"380","","image-keyboard-response","451","366327","0.0-451.0","","img/set2/S1.jpg","83","1","structured_incentive","83","random,structured_incentive,structured_load,structured_normal","2,3,2,1,3,4","true","",""
"null","","html-keyboard-response","452","366687","0.0-452.0","","<img src=""img/set2/S1.jpg"" width=""540"" height = ""360"" style=""border:16px solid orange"">","null","","","","","","","",""
"null","","html-keyboard-response","453","366897","0.0-453.0","","","null","","","","","","","",""
"837","","image-keyboard-response","454","367735","0.0-454.0","","img/set2/S4.jpg","74","4","structured_incentive","74","random,structured_incentive,structured_load,structured_normal","2,3,2,1,3,4","true","",""
"null","","html-keyboard-response","455","368097","0.0-455.0","","<img src=""img/set2/S4.jpg"" width=""540"" height = ""360"" style=""border:16px solid orange"">","null","","","","","","","",""
"null","","html-keyboard-response","456","368301","0.0-456.0","","","null","","","","","","","",""
"426","","image-keyboard-response","457","368727","0.0-457.0","","img/set2/S4.jpg","74","4","structured_incentive","74","random,structured_incentive,structured_load,structured_normal","2,3,2,1,3,4","true","",""
"null","","html-keyboard-response","458","369087","0.0-458.0","","<img src=""img/set2/S4.jpg"" width=""540"" height = ""360"" style=""border:16px solid orange"">","null","","","","","","","",""
"null","","html-keyboard-response","459","369297","0.0-459.0","","","null","","","","","","","",""
"389","","image-keyboard-response","460","369687","0.0-460.0","","img/set2/S4.jpg","74","4","structured_incentive","74","random,structured_incentive,structured_load,structured_normal","2,3,2,1,3,4","true","",""
"null","","html-keyboard-response","461","370039","0.0-461.0","","<img src=""img/set2/S4.jpg"" width=""540"" height = ""360"" style=""border:16px solid orange"">","null","","","","","","","",""
"null","","html-keyboard-response","462","370249","0.0-462.0","","","null","","","","","","","",""
"564","","image-keyboard-response","463","370815","0.0-463.0","","img/set2/S2.jpg","68","2","structured_incentive","68","random,structured_incentive,structured_load,structured_normal","2,3,2,1,3,4","true","",""
"null","","html-keyboard-response","464","371169","0.0-464.0","","<img src=""img/set2/S2.jpg"" width=""540"" height = ""360"" style=""border:16px solid orange"">","null","","","","","","","",""
"null","","html-keyboard-response","465","371379","0.0-465.0","","","null","","","","","","","",""
"602","","image-keyboard-response","466","371983","0.0-466.0","","img/set2/S3.jpg","72","3","structured_incentive","72","random,structured_incentive,structured_load,structured_normal","2,3,2,1,3,4","true","",""
"null","","html-keyboard-response","467","372337","0.0-467.0","","<img src=""img/set2/S3.jpg"" width=""540"" height = ""360"" style=""border:16px solid Violet"">","null","","","","","","","",""
"null","","html-keyboard-response","468","372547","0.0-468.0","","","null","","","","","","","",""
"764","","image-keyboard-response","469","373311","0.0-469.0","","img/set2/S4.jpg","74","4","structured_incentive","74","random,structured_incentive,structured_load,structured_normal","2,3,2,1,3,4","true","",""
"null","","html-keyboard-response","470","373667","0.0-470.0","","<img src=""img/set2/S4.jpg"" width=""540"" height = ""360"" style=""border:16px solid orange"">","null","","","","","","","",""
"null","","html-keyboard-response","471","373877","0.0-471.0","","","null","","","","","","","",""
"1025","","image-keyboard-response","472","374903","0.0-472.0","","img/set2/S2.jpg","68","2","structured_incentive","68","random,structured_incentive,structured_load,structured_normal","2,3,2,1,3,4","true","",""
"null","","html-keyboard-response","473","375257","0.0-473.0","","<img src=""img/set2/S2.jpg"" width=""540"" height = ""360"" style=""border:16px solid orange"">","null","","","","","","","",""
"null","","html-keyboard-response","474","375467","0.0-474.0","","","null","","","","","","","",""
"819","","image-keyboard-response","475","376287","0.0-475.0","","img/set2/S3.jpg","72","3","structured_incentive","72","random,structured_incentive,structured_load,structured_normal","2,3,2,1,3,4","true","",""
"null","","html-keyboard-response","476","376647","0.0-476.0","","<img src=""img/set2/S3.jpg"" width=""540"" height = ""360"" style=""border:16px solid Violet"">","null","","","","","","","",""
"null","","html-keyboard-response","477","376857","0.0-477.0","","","null","","","","","","","",""
"581","","image-keyboard-response","478","377438","0.0-478.0","","img/set2/S1.jpg","83","1","structured_incentive","83","random,structured_incentive,structured_load,structured_normal","2,3,2,1,3,4","true","",""
"null","","html-keyboard-response","479","377797","0.0-479.0","","<img src=""img/set2/S1.jpg"" width=""540"" height = ""360"" style=""border:16px solid orange"">","null","","","","","","","",""
"null","","html-keyboard-response","480","378007","0.0-480.0","","","null","","","","","","","",""
"431","","image-keyboard-response","481","378439","0.0-481.0","","img/set2/S1.jpg","83","1","structured_incentive","83","random,structured_incentive,structured_load,structured_normal","2,3,2,1,3,4","true","",""
"null","","html-keyboard-response","482","378796","0.0-482.0","","<img src=""img/set2/S1.jpg"" width=""540"" height = ""360"" style=""border:16px solid orange"">","null","","","","","","","",""
"null","","html-keyboard-response","483","379006","0.0-483.0","","","null","","","","","","","",""
"608","","image-keyboard-response","484","379615","0.0-484.0","","img/set2/S2.jpg","68","2","structured_incentive","68","random,structured_incentive,structured_load,structured_normal","2,3,2,1,3,4","true","",""
"null","","html-keyboard-response","485","379967","0.0-485.0","","<img src=""img/set2/S2.jpg"" width=""540"" height = ""360"" style=""border:16px solid orange"">","null","","","","","","","",""
"null","","html-keyboard-response","486","380177","0.0-486.0","","","null","","","","","","","",""
"717","","image-keyboard-response","487","380895","0.0-487.0","","img/set2/S3.jpg","72","3","structured_incentive","72","random,structured_incentive,structured_load,structured_normal","2,3,2,1,3,4","true","",""
"null","","html-keyboard-response","488","381247","0.0-488.0","","<img src=""img/set2/S3.jpg"" width=""540"" height = ""360"" style=""border:16px solid Violet"">","null","","","","","","","",""
"null","","html-keyboard-response","489","381457","0.0-489.0","","","null","","","","","","","",""
"582","","image-keyboard-response","490","382039","0.0-490.0","","img/set2/S1.jpg","83","1","structured_incentive","83","random,structured_incentive,structured_load,structured_normal","2,3,2,1,3,4","true","",""
"null","","html-keyboard-response","491","382397","0.0-491.0","","<img src=""img/set2/S1.jpg"" width=""540"" height = ""360"" style=""border:16px solid orange"">","null","","","","","","","",""
"null","","html-keyboard-response","492","382606","0.0-492.0","","","null","","","","","","","",""
"958","","image-keyboard-response","493","383567","0.0-493.0","","img/set2/S4.jpg","74","4","structured_incentive","74","random,structured_incentive,structured_load,structured_normal","2,3,2,1,3,4","true","",""
"null","","html-keyboard-response","494","383926","0.0-494.0","","<img src=""img/set2/S4.jpg"" width=""540"" height = ""360"" style=""border:16px solid orange"">","null","","","","","","","",""
"null","","html-keyboard-response","495","384137","0.0-495.0","","","null","","","","","","","",""
"437","","image-keyboard-response","496","384575","0.0-496.0","","img/set2/S4.jpg","74","4","structured_incentive","74","random,structured_incentive,structured_load,structured_normal","2,3,2,1,3,4","true","",""
"null","","html-keyboard-response","497","384928","0.0-497.0","","<img src=""img/set2/S4.jpg"" width=""540"" height = ""360"" style=""border:16px solid orange"">","null","","","","","","","",""
"null","","html-keyboard-response","498","385137","0.0-498.0","","","null","","","","","","","",""
"517","","image-keyboard-response","499","385656","0.0-499.0","","img/set2/S2.jpg","68","2","structured_incentive","68","random,structured_incentive,structured_load,structured_normal","2,3,2,1,3,4","true","",""
"null","","html-keyboard-response","500","386007","0.0-500.0","","<img src=""img/set2/S2.jpg"" width=""540"" height = ""360"" style=""border:16px solid orange"">","null","","","","","","","",""
"null","","html-keyboard-response","501","386217","0.0-501.0","","","null","","","","","","","",""
"493","","image-keyboard-response","502","386711","0.0-502.0","","img/set2/S3.jpg","72","3","structured_incentive","72","random,structured_incentive,structured_load,structured_normal","2,3,2,1,3,4","true","",""
"null","","html-keyboard-response","503","387066","0.0-503.0","","<img src=""img/set2/S3.jpg"" width=""540"" height = ""360"" style=""border:16px solid Violet"">","null","","","","","","","",""
"null","","html-keyboard-response","504","387277","0.0-504.0","","","null","","","","","","","",""
"698","","image-keyboard-response","505","387975","0.0-505.0","","img/set2/S2.jpg","72","2","structured_incentive","68","random,structured_incentive,structured_load,structured_normal","2,3,2,1,3,4","false","",""
"null","","html-keyboard-response","506","388329","0.0-506.0","","<img src=""img/set2/S2.jpg"" width=""540"" height = ""360"">","null","","","","","","","",""
"null","","html-keyboard-response","507","388539","0.0-507.0","","","null","","","","","","","",""
"541","","image-keyboard-response","508","389082","0.0-508.0","","img/set2/S3.jpg","72","3","structured_incentive","72","random,structured_incentive,structured_load,structured_normal","2,3,2,1,3,4","true","",""
"null","","html-keyboard-response","509","389439","0.0-509.0","","<img src=""img/set2/S3.jpg"" width=""540"" height = ""360"" style=""border:16px solid Violet"">","null","","","","","","","",""
"null","","html-keyboard-response","510","389648","0.0-510.0","","","null","","","","","","","",""
"629","","image-keyboard-response","511","390279","0.0-511.0","","img/set2/S4.jpg","74","4","structured_incentive","74","random,structured_incentive,structured_load,structured_normal","2,3,2,1,3,4","true","",""
"null","","html-keyboard-response","512","390639","0.0-512.0","","<img src=""img/set2/S4.jpg"" width=""540"" height = ""360"" style=""border:16px solid orange"">","null","","","","","","","",""
"null","","html-keyboard-response","513","390840","0.0-513.0","","","null","","","","","","","",""
"613","","image-keyboard-response","514","391455","0.0-514.0","","img/set2/S2.jpg","68","2","structured_incentive","68","random,structured_incentive,structured_load,structured_normal","2,3,2,1,3,4","true","",""
"null","","html-keyboard-response","515","391811","0.0-515.0","","<img src=""img/set2/S2.jpg"" width=""540"" height = ""360"" style=""border:16px solid orange"">","null","","","","","","","",""
"null","","html-keyboard-response","516","392021","0.0-516.0","","","null","","","","","","","",""
"769","","image-keyboard-response","517","392791","0.0-517.0","","img/set2/S3.jpg","72","3","structured_incentive","72","random,structured_incentive,structured_load,structured_normal","2,3,2,1,3,4","true","",""
"null","","html-keyboard-response","518","393156","0.0-518.0","","<img src=""img/set2/S3.jpg"" width=""540"" height = ""360"" style=""border:16px solid Violet"">","null","","","","","","","",""
"null","","html-keyboard-response","519","393363","0.0-519.0","","","null","","","","","","","",""
"660","","image-keyboard-response","520","394023","0.0-520.0","","img/set2/S2.jpg","68","2","structured_incentive","68","random,structured_incentive,structured_load,structured_normal","2,3,2,1,3,4","true","",""
"null","","html-keyboard-response","521","394383","0.0-521.0","","<img src=""img/set2/S2.jpg"" width=""540"" height = ""360"" style=""border:16px solid orange"">","null","","","","","","","",""
"null","","html-keyboard-response","522","394592","0.0-522.0","","","null","","","","","","","",""
"484","","image-keyboard-response","523","395079","0.0-523.0","","img/set2/S3.jpg","72","3","structured_incentive","72","random,structured_incentive,structured_load,structured_normal","2,3,2,1,3,4","true","",""
"null","","html-keyboard-response","524","395433","0.0-524.0","","<img src=""img/set2/S3.jpg"" width=""540"" height = ""360"" style=""border:16px solid Violet"">","null","","","","","","","",""
"null","","html-keyboard-response","525","395643","0.0-525.0","","","null","","","","","","","",""
"547","","image-keyboard-response","526","396191","0.0-526.0","","img/set2/S2.jpg","68","2","structured_incentive","68","random,structured_incentive,structured_load,structured_normal","2,3,2,1,3,4","true","",""
"null","","html-keyboard-response","527","396544","0.0-527.0","","<img src=""img/set2/S2.jpg"" width=""540"" height = ""360"" style=""border:16px solid orange"">","null","","","","","","","",""
"null","","html-keyboard-response","528","396754","0.0-528.0","","","null","","","","","","","",""
"523","","image-keyboard-response","529","397279","0.0-529.0","","img/set2/S3.jpg","72","3","structured_incentive","72","random,structured_incentive,structured_load,structured_normal","2,3,2,1,3,4","true","",""
"null","","html-keyboard-response","530","397635","0.0-530.0","","<img src=""img/set2/S3.jpg"" width=""540"" height = ""360"" style=""border:16px solid Violet"">","null","","","","","","","",""
"null","","html-keyboard-response","531","397845","0.0-531.0","","","null","","","","","","","",""
"609","","image-keyboard-response","532","398455","0.0-532.0","","img/set2/S4.jpg","74","4","structured_incentive","74","random,structured_incentive,structured_load,structured_normal","2,3,2,1,3,4","true","",""
"null","","html-keyboard-response","533","398814","0.0-533.0","","<img src=""img/set2/S4.jpg"" width=""540"" height = ""360"" style=""border:16px solid orange"">","null","","","","","","","",""
"null","","html-keyboard-response","534","399025","0.0-534.0","","","null","","","","","","","",""
"388","","image-keyboard-response","535","399414","0.0-535.0","","img/set2/S2.jpg","74","2","structured_incentive","68","random,structured_incentive,structured_load,structured_normal","2,3,2,1,3,4","false","",""
"null","","html-keyboard-response","536","399776","0.0-536.0","","<img src=""img/set2/S2.jpg"" width=""540"" height = ""360"">","null","","","","","","","",""
"null","","html-keyboard-response","537","399985","0.0-537.0","","","null","","","","","","","",""
"605","","image-keyboard-response","538","400591","0.0-538.0","","img/set2/S3.jpg","72","3","structured_incentive","72","random,structured_incentive,structured_load,structured_normal","2,3,2,1,3,4","true","",""
"null","","html-keyboard-response","539","400945","0.0-539.0","","<img src=""img/set2/S3.jpg"" width=""540"" height = ""360"" style=""border:16px solid Violet"">","null","","","","","","","",""
"null","","html-keyboard-response","540","401154","0.0-540.0","","","null","","","","","","","",""
"667","","image-keyboard-response","541","401823","0.0-541.0","","img/set2/S1.jpg","83","1","structured_incentive","83","random,structured_incentive,structured_load,structured_normal","2,3,2,1,3,4","true","",""
"null","","html-keyboard-response","542","402175","0.0-542.0","","<img src=""img/set2/S1.jpg"" width=""540"" height = ""360"" style=""border:16px solid orange"">","null","","","","","","","",""
"null","","html-keyboard-response","543","402385","0.0-543.0","","","null","","","","","","","",""
"805","","image-keyboard-response","544","403190","0.0-544.0","","img/set2/S2.jpg","68","2","structured_incentive","68","random,structured_incentive,structured_load,structured_normal","2,3,2,1,3,4","true","",""
"null","","html-keyboard-response","545","403545","0.0-545.0","","<img src=""img/set2/S2.jpg"" width=""540"" height = ""360"" style=""border:16px solid orange"">","null","","","","","","","",""
"null","","html-keyboard-response","546","403755","0.0-546.0","","","null","","","","","","","",""
"883","","image-keyboard-response","547","404639","0.0-547.0","","img/set2/S3.jpg","72","3","structured_incentive","72","random,structured_incentive,structured_load,structured_normal","2,3,2,1,3,4","true","",""
"null","","html-keyboard-response","548","404995","0.0-548.0","","<img src=""img/set2/S3.jpg"" width=""540"" height = ""360"" style=""border:16px solid Violet"">","null","","","","","","","",""
"null","","html-keyboard-response","549","405205","0.0-549.0","","","null","","","","","","","",""
"680","","image-keyboard-response","550","405886","0.0-550.0","","img/set2/S1.jpg","83","1","structured_incentive","83","random,structured_incentive,structured_load,structured_normal","2,3,2,1,3,4","true","",""
"null","","html-keyboard-response","551","406244","0.0-551.0","","<img src=""img/set2/S1.jpg"" width=""540"" height = ""360"" style=""border:16px solid orange"">","null","","","","","","","",""
"null","","html-keyboard-response","552","406455","0.0-552.0","","","null","","","","","","","",""
"439","","image-keyboard-response","553","406895","0.0-553.0","","img/set2/S1.jpg","83","1","structured_incentive","83","random,structured_incentive,structured_load,structured_normal","2,3,2,1,3,4","true","",""
"null","","html-keyboard-response","554","407255","0.0-554.0","","<img src=""img/set2/S1.jpg"" width=""540"" height = ""360"" style=""border:16px solid orange"">","null","","","","","","","",""
"null","","html-keyboard-response","555","407465","0.0-555.0","","","null","","","","","","","",""
"516","","image-keyboard-response","556","407982","0.0-556.0","","img/set2/S4.jpg","74","4","structured_incentive","74","random,structured_incentive,structured_load,structured_normal","2,3,2,1,3,4","true","",""
"null","","html-keyboard-response","557","408334","0.0-557.0","","<img src=""img/set2/S4.jpg"" width=""540"" height = ""360"" style=""border:16px solid orange"">","null","","","","","","","",""
"null","","html-keyboard-response","558","408544","0.0-558.0","","","null","","","","","","","",""
"605","","image-keyboard-response","559","409150","0.0-559.0","","img/set2/S2.jpg","68","2","structured_incentive","68","random,structured_incentive,structured_load,structured_normal","2,3,2,1,3,4","true","",""
"null","","html-keyboard-response","560","409505","0.0-560.0","","<img src=""img/set2/S2.jpg"" width=""540"" height = ""360"" style=""border:16px solid orange"">","null","","","","","","","",""
"null","","html-keyboard-response","561","409715","0.0-561.0","","","null","","","","","","","",""
"587","","image-keyboard-response","562","410303","0.0-562.0","","img/set2/S3.jpg","72","3","structured_incentive","72","random,structured_incentive,structured_load,structured_normal","2,3,2,1,3,4","true","",""
"null","","html-keyboard-response","563","410655","0.0-563.0","","<img src=""img/set2/S3.jpg"" width=""540"" height = ""360"" style=""border:16px solid Violet"">","null","","","","","","","",""
"null","","html-keyboard-response","564","410857","0.0-564.0","","","null","","","","","","","",""
"628","","image-keyboard-response","565","411487","0.0-565.0","","img/set2/S4.jpg","74","4","structured_incentive","74","random,structured_incentive,structured_load,structured_normal","2,3,2,1,3,4","true","",""
"null","","html-keyboard-response","566","411845","0.0-566.0","","<img src=""img/set2/S4.jpg"" width=""540"" height = ""360"" style=""border:16px solid orange"">","null","","","","","","","",""
"null","","html-keyboard-response","567","412055","0.0-567.0","","","null","","","","","","","",""
"511","","image-keyboard-response","568","412567","0.0-568.0","","img/set2/S1.jpg","83","1","structured_incentive","83","random,structured_incentive,structured_load,structured_normal","2,3,2,1,3,4","true","",""
"null","","html-keyboard-response","569","412925","0.0-569.0","","<img src=""img/set2/S1.jpg"" width=""540"" height = ""360"" style=""border:16px solid orange"">","null","","","","","","","",""
"null","","html-keyboard-response","570","413135","0.0-570.0","","","null","","","","","","","",""
"559","","image-keyboard-response","571","413695","0.0-571.0","","img/set2/S1.jpg","83","1","structured_incentive","83","random,structured_incentive,structured_load,structured_normal","2,3,2,1,3,4","true","",""
"null","","html-keyboard-response","572","414054","0.0-572.0","","<img src=""img/set2/S1.jpg"" width=""540"" height = ""360"" style=""border:16px solid orange"">","null","","","","","","","",""
"null","","html-keyboard-response","573","414264","0.0-573.0","","","null","","","","","","","",""
"598","","image-keyboard-response","574","414863","0.0-574.0","","img/set2/S4.jpg","74","4","structured_incentive","74","random,structured_incentive,structured_load,structured_normal","2,3,2,1,3,4","true","",""
"null","","html-keyboard-response","575","415215","0.0-575.0","","<img src=""img/set2/S4.jpg"" width=""540"" height = ""360"" style=""border:16px solid orange"">","null","","","","","","","",""
"null","","html-keyboard-response","576","415424","0.0-576.0","","","null","","","","","","","",""
"549","","image-keyboard-response","577","415975","0.0-577.0","","img/set2/S1.jpg","83","1","structured_incentive","83","random,structured_incentive,structured_load,structured_normal","2,3,2,1,3,4","true","",""
"null","","html-keyboard-response","578","416335","0.0-578.0","","<img src=""img/set2/S1.jpg"" width=""540"" height = ""360"" style=""border:16px solid orange"">","null","","","","","","","",""
"null","","html-keyboard-response","579","416545","0.0-579.0","","","null","","","","","","","",""
"532","","image-keyboard-response","580","417078","0.0-580.0","","img/set2/S4.jpg","74","4","structured_incentive","74","random,structured_incentive,structured_load,structured_normal","2,3,2,1,3,4","true","",""
"null","","html-keyboard-response","581","417435","0.0-581.0","","<img src=""img/set2/S4.jpg"" width=""540"" height = ""360"" style=""border:16px solid orange"">","null","","","","","","","",""
"null","","html-keyboard-response","582","417644","0.0-582.0","","","null","","","","","","","",""
"608","","image-keyboard-response","583","418254","0.0-583.0","","img/set2/S2.jpg","68","2","structured_incentive","68","random,structured_incentive,structured_load,structured_normal","2,3,2,1,3,4","true","",""
"null","","html-keyboard-response","584","418615","0.0-584.0","","<img src=""img/set2/S2.jpg"" width=""540"" height = ""360"" style=""border:16px solid orange"">","null","","","","","","","",""
"null","","html-keyboard-response","585","418824","0.0-585.0","","","null","","","","","","","",""
"365","","image-keyboard-response","586","419191","0.0-586.0","","img/set2/S3.jpg","72","3","structured_incentive","72","random,structured_incentive,structured_load,structured_normal","2,3,2,1,3,4","true","",""
"null","","html-keyboard-response","587","419544","0.0-587.0","","<img src=""img/set2/S3.jpg"" width=""540"" height = ""360"" style=""border:16px solid Violet"">","null","","","","","","","",""
"null","","html-keyboard-response","588","419755","0.0-588.0","","","null","","","","","","","",""
"675","","image-keyboard-response","589","420430","0.0-589.0","","img/set2/S2.jpg","68","2","structured_incentive","68","random,structured_incentive,structured_load,structured_normal","2,3,2,1,3,4","true","",""
"null","","html-keyboard-response","590","420784","0.0-590.0","","<img src=""img/set2/S2.jpg"" width=""540"" height = ""360"" style=""border:16px solid orange"">","null","","","","","","","",""
"null","","html-keyboard-response","591","420995","0.0-591.0","","","null","","","","","","","",""
"426","","image-keyboard-response","592","421422","0.0-592.0","","img/set2/S3.jpg","72","3","structured_incentive","72","random,structured_incentive,structured_load,structured_normal","2,3,2,1,3,4","true","",""
"null","","html-keyboard-response","593","421774","0.0-593.0","","<img src=""img/set2/S3.jpg"" width=""540"" height = ""360"" style=""border:16px solid Violet"">","null","","","","","","","",""
"null","","html-keyboard-response","594","421984","0.0-594.0","","","null","","","","","","","",""
"589","","image-keyboard-response","595","422574","0.0-595.0","","img/set2/S4.jpg","74","4","structured_incentive","74","random,structured_incentive,structured_load,structured_normal","2,3,2,1,3,4","true","",""
"null","","html-keyboard-response","596","422926","0.0-596.0","","<img src=""img/set2/S4.jpg"" width=""540"" height = ""360"" style=""border:16px solid orange"">","null","","","","","","","",""
"null","","html-keyboard-response","597","423136","0.0-597.0","","","null","","","","","","","",""
"581","","image-keyboard-response","598","423719","0.0-598.0","","img/set2/S2.jpg","68","2","structured_incentive","68","random,structured_incentive,structured_load,structured_normal","2,3,2,1,3,4","true","",""
"null","","html-keyboard-response","599","424076","0.0-599.0","","<img src=""img/set2/S2.jpg"" width=""540"" height = ""360"" style=""border:16px solid orange"">","null","","","","","","","",""
"null","","html-keyboard-response","600","424286","0.0-600.0","","","null","","","","","","","",""
"582","","image-keyboard-response","601","424871","0.0-601.0","","img/set2/S3.jpg","72","3","structured_incentive","72","random,structured_incentive,structured_load,structured_normal","2,3,2,1,3,4","true","",""
"null","","html-keyboard-response","602","425227","0.0-602.0","","<img src=""img/set2/S3.jpg"" width=""540"" height = ""360"" style=""border:16px solid Violet"">","null","","","","","","","",""
"null","","html-keyboard-response","603","425436","0.0-603.0","","","null","","","","","","","",""
"704","","image-keyboard-response","604","426142","0.0-604.0","","img/set2/S2.jpg","68","2","structured_incentive","68","random,structured_incentive,structured_load,structured_normal","2,3,2,1,3,4","true","",""
