"rt","url","trial_type","trial_index","time_elapsed","internal_node_id","view_history","stimulus","key_press","state","test_part","correct_response","order_block","order_chunk","order_freq","correct","responses","question_order","bonus"
"10812.5","consent.html","external-html","0","10884","0.0-0.0","","","","","","","","","","","","",""
"346604","","instructions","1","357491","0.0-1.0","[{""page_index"":0,""viewing_time"":15235.299999982119},{""page_index"":1,""viewing_time"":4695.9000000059605},{""page_index"":2,""viewing_time"":7144},{""page_index"":3,""viewing_time"":265928.3000000119},{""page_index"":4,""viewing_time"":5615.799999982119},{""page_index"":5,""viewing_time"":13728.200000017881},{""page_index"":6,""viewing_time"":26800.09999999404},{""page_index"":5,""viewing_time"":1079.800000011921},{""page_index"":4,""viewing_time"":784},{""page_index"":3,""viewing_time"":2320.199999988079},{""page_index"":4,""viewing_time"":1240.800000011921},{""page_index"":5,""viewing_time"":1079},{""page_index"":6,""viewing_time"":952}]","","","","","","","","","","","",""
"10023.199999988079","","instructions","2","367515","0.0-2.0","[{""page_index"":0,""viewing_time"":10022.90000000596}]","","","","","","","","","","","",""
"18303.40000000596","","instructions","3","385819","0.0-3.0","[{""page_index"":0,""viewing_time"":8719},{""page_index"":1,""viewing_time"":9584}]","","","","","","","","","","","",""
"2358.5999999940395","","image-keyboard-response","4","388179","0.0-4.0","","img/set1/S3.jpg","74","3","structured_incentive","72","structured_incentive,random,structured_normal,structured_load","3,4,2,3,2,1","4,2,3,1","false","","",""
"null","","html-keyboard-response","5","388533","0.0-5.0","","<img src=""img/set1/S3.jpg"" width=""540"" height = ""360"">","null","","","","","","","","","",""
"null","","html-keyboard-response","6","388737","0.0-6.0","","","null","","","","","","","","","",""
"848.1999999880791","","image-keyboard-response","7","389588","0.0-7.0","","img/set1/S4.jpg","68","4","structured_incentive","74","structured_incentive,random,structured_normal,structured_load","3,4,2,3,2,1","4,2,3,1","false","","",""
"null","","html-keyboard-response","8","389943","0.0-8.0","","<img src=""img/set1/S4.jpg"" width=""540"" height = ""360"">","null","","","","","","","","","",""
"null","","html-keyboard-response","9","390145","0.0-9.0","","","null","","","","","","","","","",""
"992.6999999880791","","image-keyboard-response","10","391139","0.0-10.0","","img/set1/S3.jpg","83","3","structured_incentive","72","structured_incentive,random,structured_normal,structured_load","3,4,2,3,2,1","4,2,3,1","false","","",""
"null","","html-keyboard-response","11","391493","0.0-11.0","","<img src=""img/set1/S3.jpg"" width=""540"" height = ""360"">","null","","","","","","","","","",""
"null","","html-keyboard-response","12","391709","0.0-12.0","","","null","","","","","","","","","",""
"788.2000000178814","","image-keyboard-response","13","392499","0.0-13.0","","img/set1/S4.jpg","83","4","structured_incentive","74","structured_incentive,random,structured_normal,structured_load","3,4,2,3,2,1","4,2,3,1","false","","",""
"null","","html-keyboard-response","14","392850","0.0-14.0","","<img src=""img/set1/S4.jpg"" width=""540"" height = ""360"">","null","","","","","","","","","",""
"null","","html-keyboard-response","15","393066","0.0-15.0","","","null","","","","","","","","","",""
"967.9000000059605","","image-keyboard-response","16","394035","0.0-16.0","","img/set1/S2.jpg","72","2","structured_incentive","68","structured_incentive,random,structured_normal,structured_load","3,4,2,3,2,1","4,2,3,1","false","","",""
"null","","html-keyboard-response","17","394406","0.0-17.0","","<img src=""img/set1/S2.jpg"" width=""540"" height = ""360"">","null","","","","","","","","","",""
"null","","html-keyboard-response","18","394622","0.0-18.0","","","null","","","","","","","","","",""
"691.9000000059605","","image-keyboard-response","19","395316","0.0-19.0","","img/set1/S1.jpg","74","1","structured_incentive","83","structured_incentive,random,structured_normal,structured_load","3,4,2,3,2,1","4,2,3,1","false","","",""
"null","","html-keyboard-response","20","395672","0.0-20.0","","<img src=""img/set1/S1.jpg"" width=""540"" height = ""360"">","null","","","","","","","","","",""
"null","","html-keyboard-response","21","395888","0.0-21.0","","","null","","","","","","","","","",""
"898.5","","image-keyboard-response","22","396788","0.0-22.0","","img/set1/S1.jpg","72","1","structured_incentive","83","structured_incentive,random,structured_normal,structured_load","3,4,2,3,2,1","4,2,3,1","false","","",""
"null","","html-keyboard-response","23","397140","0.0-23.0","","<img src=""img/set1/S1.jpg"" width=""540"" height = ""360"">","null","","","","","","","","","",""
"null","","html-keyboard-response","24","397345","0.0-24.0","","","null","","","","","","","","","",""
"497","","image-keyboard-response","25","397843","0.0-25.0","","img/set1/S1.jpg","68","1","structured_incentive","83","structured_incentive,random,structured_normal,structured_load","3,4,2,3,2,1","4,2,3,1","false","","",""
"null","","html-keyboard-response","26","398200","0.0-26.0","","<img src=""img/set1/S1.jpg"" width=""540"" height = ""360"">","null","","","","","","","","","",""
"null","","html-keyboard-response","27","398414","0.0-27.0","","","null","","","","","","","","","",""
"499.60000002384186","","image-keyboard-response","28","398915","0.0-28.0","","img/set1/S3.jpg","83","3","structured_incentive","72","structured_incentive,random,structured_normal,structured_load","3,4,2,3,2,1","4,2,3,1","false","","",""
"null","","html-keyboard-response","29","399271","0.0-29.0","","<img src=""img/set1/S3.jpg"" width=""540"" height = ""360"">","null","","","","","","","","","",""
"null","","html-keyboard-response","30","399487","0.0-30.0","","","null","","","","","","","","","",""
"722.9000000059605","","image-keyboard-response","31","400211","0.0-31.0","","img/set1/S4.jpg","74","4","structured_incentive","74","structured_incentive,random,structured_normal,structured_load","3,4,2,3,2,1","4,2,3,1","true","","",""
"null","","html-keyboard-response","32","400577","0.0-32.0","","<img src=""img/set1/S4.jpg"" width=""540"" height = ""360"" style=""border:16px solid Violet"">","null","","","","","","","","","",""
"null","","html-keyboard-response","33","400793","0.0-33.0","","","null","","","","","","","","","",""
"1400","","image-keyboard-response","34","402195","0.0-34.0","","img/set1/S1.jpg","83","1","structured_incentive","83","structured_incentive,random,structured_normal,structured_load","3,4,2,3,2,1","4,2,3,1","true","","",""
"null","","html-keyboard-response","35","402563","0.0-35.0","","<img src=""img/set1/S1.jpg"" width=""540"" height = ""360"" style=""border:16px solid orange"">","null","","","","","","","","","",""
"null","","html-keyboard-response","36","402778","0.0-36.0","","","null","","","","","","","","","",""
"1303.699999988079","","image-keyboard-response","37","404084","0.0-37.0","","img/set1/S2.jpg","68","2","structured_incentive","68","structured_incentive,random,structured_normal,structured_load","3,4,2,3,2,1","4,2,3,1","true","","",""
"null","","html-keyboard-response","38","404444","0.0-38.0","","<img src=""img/set1/S2.jpg"" width=""540"" height = ""360"" style=""border:16px solid orange"">","null","","","","","","","","","",""
"null","","html-keyboard-response","39","404646","0.0-39.0","","","null","","","","","","","","","",""
"732.5","","image-keyboard-response","40","405379","0.0-40.0","","img/set1/S3.jpg","74","3","structured_incentive","72","structured_incentive,random,structured_normal,structured_load","3,4,2,3,2,1","4,2,3,1","false","","",""
"null","","html-keyboard-response","41","405747","0.0-41.0","","<img src=""img/set1/S3.jpg"" width=""540"" height = ""360"">","null","","","","","","","","","",""
"null","","html-keyboard-response","42","405969","0.0-42.0","","","null","","","","","","","","","",""
"769.2000000178814","","image-keyboard-response","43","406739","0.0-43.0","","img/set1/S4.jpg","74","4","structured_incentive","74","structured_incentive,random,structured_normal,structured_load","3,4,2,3,2,1","4,2,3,1","true","","",""
"null","","html-keyboard-response","44","407101","0.0-44.0","","<img src=""img/set1/S4.jpg"" width=""540"" height = ""360"" style=""border:16px solid Violet"">","null","","","","","","","","","",""
"null","","html-keyboard-response","45","407318","0.0-45.0","","","null","","","","","","","","","",""
"940.5","","image-keyboard-response","46","408259","0.0-46.0","","img/set1/S1.jpg","72","1","structured_incentive","83","structured_incentive,random,structured_normal,structured_load","3,4,2,3,2,1","4,2,3,1","false","","",""
"null","","html-keyboard-response","47","408624","0.0-47.0","","<img src=""img/set1/S1.jpg"" width=""540"" height = ""360"">","null","","","","","","","","","",""
"null","","html-keyboard-response","48","408826","0.0-48.0","","","null","","","","","","","","","",""
"1031.9000000059605","","image-keyboard-response","49","409859","0.0-49.0","","img/set1/S2.jpg","68","2","structured_incentive","68","structured_incentive,random,structured_normal,structured_load","3,4,2,3,2,1","4,2,3,1","true","","",""
"null","","html-keyboard-response","50","410220","0.0-50.0","","<img src=""img/set1/S2.jpg"" width=""540"" height = ""360"" style=""border:16px solid orange"">","null","","","","","","","","","",""
"null","","html-keyboard-response","51","410427","0.0-51.0","","","null","","","","","","","","","",""
"1270.6000000238419","","image-keyboard-response","52","411699","0.0-52.0","","img/set1/S1.jpg","83","1","structured_incentive","83","structured_incentive,random,structured_normal,structured_load","3,4,2,3,2,1","4,2,3,1","true","","",""
"null","","html-keyboard-response","53","412061","0.0-53.0","","<img src=""img/set1/S1.jpg"" width=""540"" height = ""360"" style=""border:16px solid orange"">","null","","","","","","","","","",""
"null","","html-keyboard-response","54","412284","0.0-54.0","","","null","","","","","","","","","",""
"1029.800000011921","","image-keyboard-response","55","413315","0.0-55.0","","img/set1/S1.jpg","72","1","structured_incentive","83","structured_incentive,random,structured_normal,structured_load","3,4,2,3,2,1","4,2,3,1","false","","",""
"null","","html-keyboard-response","56","413680","0.0-56.0","","<img src=""img/set1/S1.jpg"" width=""540"" height = ""360"">","null","","","","","","","","","",""
"null","","html-keyboard-response","57","413885","0.0-57.0","","","null","","","","","","","","","",""
"756.5999999940395","","image-keyboard-response","58","414643","0.0-58.0","","img/set1/S1.jpg","68","1","structured_incentive","83","structured_incentive,random,structured_normal,structured_load","3,4,2,3,2,1","4,2,3,1","false","","",""
"null","","html-keyboard-response","59","415004","0.0-59.0","","<img src=""img/set1/S1.jpg"" width=""540"" height = ""360"">","null","","","","","","","","","",""
"null","","html-keyboard-response","60","415220","0.0-60.0","","","null","","","","","","","","","",""
"1102","","image-keyboard-response","61","416323","0.0-61.0","","img/set1/S2.jpg","83","2","structured_incentive","68","structured_incentive,random,structured_normal,structured_load","3,4,2,3,2,1","4,2,3,1","false","","",""
"null","","html-keyboard-response","62","416687","0.0-62.0","","<img src=""img/set1/S2.jpg"" width=""540"" height = ""360"">","null","","","","","","","","","",""
"null","","html-keyboard-response","63","416889","0.0-63.0","","","null","","","","","","","","","",""
"1384.5999999940395","","image-keyboard-response","64","418275","0.0-64.0","","img/set1/S1.jpg","74","1","structured_incentive","83","structured_incentive,random,structured_normal,structured_load","3,4,2,3,2,1","4,2,3,1","false","","",""
"null","","html-keyboard-response","65","418626","0.0-65.0","","<img src=""img/set1/S1.jpg"" width=""540"" height = ""360"">","null","","","","","","","","","",""
"null","","html-keyboard-response","66","418843","0.0-66.0","","","null","","","","","","","","","",""
"662.9000000059605","","image-keyboard-response","67","419507","0.0-67.0","","img/set1/S1.jpg","72","1","structured_incentive","83","structured_incentive,random,structured_normal,structured_load","3,4,2,3,2,1","4,2,3,1","false","","",""
"null","","html-keyboard-response","68","419859","0.0-68.0","","<img src=""img/set1/S1.jpg"" width=""540"" height = ""360"">","null","","","","","","","","","",""
"null","","html-keyboard-response","69","420075","0.0-69.0","","","null","","","","","","","","","",""
"1893.5999999940395","","image-keyboard-response","70","421971","0.0-70.0","","img/set1/S3.jpg","68","3","structured_incentive","72","structured_incentive,random,structured_normal,structured_load","3,4,2,3,2,1","4,2,3,1","false","","",""
"null","","html-keyboard-response","71","422338","0.0-71.0","","<img src=""img/set1/S3.jpg"" width=""540"" height = ""360"">","null","","","","","","","","","",""
"null","","html-keyboard-response","72","422548","0.0-72.0","","","null","","","","","","","","","",""
"894.5999999940395","","image-keyboard-response","73","423443","0.0-73.0","","img/set1/S4.jpg","74","4","structured_incentive","74","structured_incentive,random,structured_normal,structured_load","3,4,2,3,2,1","4,2,3,1","true","","",""
"null","","html-keyboard-response","74","423804","0.0-74.0","","<img src=""img/set1/S4.jpg"" width=""540"" height = ""360"" style=""border:16px solid Violet"">","null","","","","","","","","","",""
"null","","html-keyboard-response","75","424020","0.0-75.0","","","null","","","","","","","","","",""
"1294.2000000178814","","image-keyboard-response","76","425316","0.0-76.0","","img/set1/S3.jpg","72","3","structured_incentive","72","structured_incentive,random,structured_normal,structured_load","3,4,2,3,2,1","4,2,3,1","true","","",""
"null","","html-keyboard-response","77","425670","0.0-77.0","","<img src=""img/set1/S3.jpg"" width=""540"" height = ""360"" style=""border:16px solid orange"">","null","","","","","","","","","",""
"null","","html-keyboard-response","78","425884","0.0-78.0","","","null","","","","","","","","","",""
"935","","image-keyboard-response","79","426819","0.0-79.0","","img/set1/S4.jpg","74","4","structured_incentive","74","structured_incentive,random,structured_normal,structured_load","3,4,2,3,2,1","4,2,3,1","true","","",""
"null","","html-keyboard-response","80","427174","0.0-80.0","","<img src=""img/set1/S4.jpg"" width=""540"" height = ""360"" style=""border:16px solid Violet"">","null","","","","","","","","","",""
"null","","html-keyboard-response","81","427389","0.0-81.0","","","null","","","","","","","","","",""
"756.9000000059605","","image-keyboard-response","82","428147","0.0-82.0","","img/set1/S2.jpg","68","2","structured_incentive","68","structured_incentive,random,structured_normal,structured_load","3,4,2,3,2,1","4,2,3,1","true","","",""
"null","","html-keyboard-response","83","428501","0.0-83.0","","<img src=""img/set1/S2.jpg"" width=""540"" height = ""360"" style=""border:16px solid orange"">","null","","","","","","","","","",""
"null","","html-keyboard-response","84","428703","0.0-84.0","","","null","","","","","","","","","",""
"1155.300000011921","","image-keyboard-response","85","429859","0.0-85.0","","img/set1/S3.jpg","72","3","structured_incentive","72","structured_incentive,random,structured_normal,structured_load","3,4,2,3,2,1","4,2,3,1","true","","",""
"null","","html-keyboard-response","86","430217","0.0-86.0","","<img src=""img/set1/S3.jpg"" width=""540"" height = ""360"" style=""border:16px solid orange"">","null","","","","","","","","","",""
"null","","html-keyboard-response","87","430432","0.0-87.0","","","null","","","","","","","","","",""
"737.9000000059605","","image-keyboard-response","88","431171","0.0-88.0","","img/set1/S4.jpg","74","4","structured_incentive","74","structured_incentive,random,structured_normal,structured_load","3,4,2,3,2,1","4,2,3,1","true","","",""
"null","","html-keyboard-response","89","431536","0.0-89.0","","<img src=""img/set1/S4.jpg"" width=""540"" height = ""360"" style=""border:16px solid Violet"">","null","","","","","","","","","",""
"null","","html-keyboard-response","90","431746","0.0-90.0","","","null","","","","","","","","","",""
"912","","image-keyboard-response","91","432659","0.0-91.0","","img/set1/S3.jpg","72","3","structured_incentive","72","structured_incentive,random,structured_normal,structured_load","3,4,2,3,2,1","4,2,3,1","true","","",""
"null","","html-keyboard-response","92","433016","0.0-92.0","","<img src=""img/set1/S3.jpg"" width=""540"" height = ""360"" style=""border:16px solid orange"">","null","","","","","","","","","",""
"null","","html-keyboard-response","93","433219","0.0-93.0","","","null","","","","","","","","","",""
"943.2000000178814","","image-keyboard-response","94","434163","0.0-94.0","","img/set1/S4.jpg","74","4","structured_incentive","74","structured_incentive,random,structured_normal,structured_load","3,4,2,3,2,1","4,2,3,1","true","","",""
"null","","html-keyboard-response","95","434527","0.0-95.0","","<img src=""img/set1/S4.jpg"" width=""540"" height = ""360"" style=""border:16px solid Violet"">","null","","","","","","","","","",""
"null","","html-keyboard-response","96","434746","0.0-96.0","","","null","","","","","","","","","",""
"951.6999999880791","","image-keyboard-response","97","435699","0.0-97.0","","img/set1/S1.jpg","83","1","structured_incentive","83","structured_incentive,random,structured_normal,structured_load","3,4,2,3,2,1","4,2,3,1","true","","",""
"null","","html-keyboard-response","98","436062","0.0-98.0","","<img src=""img/set1/S1.jpg"" width=""540"" height = ""360"" style=""border:16px solid orange"">","null","","","","","","","","","",""
"null","","html-keyboard-response","99","436277","0.0-99.0","","","null","","","","","","","","","",""
"621.5999999940395","","image-keyboard-response","100","436900","0.0-100.0","","img/set1/S1.jpg","83","1","structured_incentive","83","structured_incentive,random,structured_normal,structured_load","3,4,2,3,2,1","4,2,3,1","true","","",""
"null","","html-keyboard-response","101","437264","0.0-101.0","","<img src=""img/set1/S1.jpg"" width=""540"" height = ""360"" style=""border:16px solid orange"">","null","","","","","","","","","",""
"null","","html-keyboard-response","102","437478","0.0-102.0","","","null","","","","","","","","","",""
"445.39999997615814","","image-keyboard-response","103","437924","0.0-103.0","","img/set1/S1.jpg","83","1","structured_incentive","83","structured_incentive,random,structured_normal,structured_load","3,4,2,3,2,1","4,2,3,1","true","","",""
"null","","html-keyboard-response","104","438283","0.0-104.0","","<img src=""img/set1/S1.jpg"" width=""540"" height = ""360"" style=""border:16px solid orange"">","null","","","","","","","","","",""
"null","","html-keyboard-response","105","438498","0.0-105.0","","","null","","","","","","","","","",""
"768.3000000119209","","image-keyboard-response","106","439267","0.0-106.0","","img/set1/S2.jpg","72","2","structured_incentive","68","structured_incentive,random,structured_normal,structured_load","3,4,2,3,2,1","4,2,3,1","false","","",""
"null","","html-keyboard-response","107","439634","0.0-107.0","","<img src=""img/set1/S2.jpg"" width=""540"" height = ""360"">","null","","","","","","","","","",""
"null","","html-keyboard-response","108","439857","0.0-108.0","","","null","","","","","","","","","",""
"514.5","","image-keyboard-response","109","440372","0.0-109.0","","img/set1/S2.jpg","68","2","structured_incentive","68","structured_incentive,random,structured_normal,structured_load","3,4,2,3,2,1","4,2,3,1","true","","",""
"null","","html-keyboard-response","110","440731","0.0-110.0","","<img src=""img/set1/S2.jpg"" width=""540"" height = ""360"" style=""border:16px solid orange"">","null","","","","","","","","","",""
"null","","html-keyboard-response","111","440937","0.0-111.0","","","null","","","","","","","","","",""
"712.8000000119209","","image-keyboard-response","112","441651","0.0-112.0","","img/set1/S1.jpg","72","1","structured_incentive","83","structured_incentive,random,structured_normal,structured_load","3,4,2,3,2,1","4,2,3,1","false","","",""
"null","","html-keyboard-response","113","442008","0.0-113.0","","<img src=""img/set1/S1.jpg"" width=""540"" height = ""360"">","null","","","","","","","","","",""
"null","","html-keyboard-response","114","442224","0.0-114.0","","","null","","","","","","","","","",""
"786.5","","image-keyboard-response","115","443012","0.0-115.0","","img/set1/S2.jpg","68","2","structured_incentive","68","structured_incentive,random,structured_normal,structured_load","3,4,2,3,2,1","4,2,3,1","true","","",""
"null","","html-keyboard-response","116","443372","0.0-116.0","","<img src=""img/set1/S2.jpg"" width=""540"" height = ""360"" style=""border:16px solid orange"">","null","","","","","","","","","",""
"null","","html-keyboard-response","117","443595","0.0-117.0","","","null","","","","","","","","","",""
"455","","image-keyboard-response","118","444051","0.0-118.0","","img/set1/S1.jpg","83","1","structured_incentive","83","structured_incentive,random,structured_normal,structured_load","3,4,2,3,2,1","4,2,3,1","true","","",""
"null","","html-keyboard-response","119","444412","0.0-119.0","","<img src=""img/set1/S1.jpg"" width=""540"" height = ""360"" style=""border:16px solid orange"">","null","","","","","","","","","",""
"null","","html-keyboard-response","120","444619","0.0-120.0","","","null","","","","","","","","","",""
"519","","image-keyboard-response","121","445139","0.0-121.0","","img/set1/S1.jpg","83","1","structured_incentive","83","structured_incentive,random,structured_normal,structured_load","3,4,2,3,2,1","4,2,3,1","true","","",""
"null","","html-keyboard-response","122","445493","0.0-122.0","","<img src=""img/set1/S1.jpg"" width=""540"" height = ""360"" style=""border:16px solid orange"">","null","","","","","","","","","",""
"null","","html-keyboard-response","123","445696","0.0-123.0","","","null","","","","","","","","","",""
"497.5","","image-keyboard-response","124","446195","0.0-124.0","","img/set1/S1.jpg","83","1","structured_incentive","83","structured_incentive,random,structured_normal,structured_load","3,4,2,3,2,1","4,2,3,1","true","","",""
"null","","html-keyboard-response","125","446561","0.0-125.0","","<img src=""img/set1/S1.jpg"" width=""540"" height = ""360"" style=""border:16px solid orange"">","null","","","","","","","","","",""
"null","","html-keyboard-response","126","446778","0.0-126.0","","","null","","","","","","","","","",""
"744.5999999940395","","image-keyboard-response","127","447524","0.0-127.0","","img/set1/S3.jpg","72","3","structured_incentive","72","structured_incentive,random,structured_normal,structured_load","3,4,2,3,2,1","4,2,3,1","true","","",""
"null","","html-keyboard-response","128","447884","0.0-128.0","","<img src=""img/set1/S3.jpg"" width=""540"" height = ""360"" style=""border:16px solid orange"">","null","","","","","","","","","",""
"null","","html-keyboard-response","129","448107","0.0-129.0","","","null","","","","","","","","","",""
"551.4000000059605","","image-keyboard-response","130","448660","0.0-130.0","","img/set1/S4.jpg","74","4","structured_incentive","74","structured_incentive,random,structured_normal,structured_load","3,4,2,3,2,1","4,2,3,1","true","","",""
"null","","html-keyboard-response","131","449015","0.0-131.0","","<img src=""img/set1/S4.jpg"" width=""540"" height = ""360"" style=""border:16px solid Violet"">","null","","","","","","","","","",""
"null","","html-keyboard-response","132","449218","0.0-132.0","","","null","","","","","","","","","",""
"721.1999999880791","","image-keyboard-response","133","449940","0.0-133.0","","img/set1/S3.jpg","72","3","structured_incentive","72","structured_incentive,random,structured_normal,structured_load","3,4,2,3,2,1","4,2,3,1","true","","",""
"null","","html-keyboard-response","134","450311","0.0-134.0","","<img src=""img/set1/S3.jpg"" width=""540"" height = ""360"" style=""border:16px solid orange"">","null","","","","","","","","","",""
"null","","html-keyboard-response","135","450530","0.0-135.0","","","null","","","","","","","","","",""
"465","","image-keyboard-response","136","450996","0.0-136.0","","img/set1/S4.jpg","74","4","structured_incentive","74","structured_incentive,random,structured_normal,structured_load","3,4,2,3,2,1","4,2,3,1","true","","",""
"null","","html-keyboard-response","137","451371","0.0-137.0","","<img src=""img/set1/S4.jpg"" width=""540"" height = ""360"" style=""border:16px solid Violet"">","null","","","","","","","","","",""
"null","","html-keyboard-response","138","451575","0.0-138.0","","","null","","","","","","","","","",""
"492.19999998807907","","image-keyboard-response","139","452067","0.0-139.0","","img/set1/S1.jpg","72","1","structured_incentive","83","structured_incentive,random,structured_normal,structured_load","3,4,2,3,2,1","4,2,3,1","false","","",""
"null","","html-keyboard-response","140","452429","0.0-140.0","","<img src=""img/set1/S1.jpg"" width=""540"" height = ""360"">","null","","","","","","","","","",""
"null","","html-keyboard-response","141","452645","0.0-141.0","","","null","","","","","","","","","",""
"620.6999999880791","","image-keyboard-response","142","453267","0.0-142.0","","img/set1/S3.jpg","74","3","structured_incentive","72","structured_incentive,random,structured_normal,structured_load","3,4,2,3,2,1","4,2,3,1","false","","",""
"null","","html-keyboard-response","143","453631","0.0-143.0","","<img src=""img/set1/S3.jpg"" width=""540"" height = ""360"">","null","","","","","","","","","",""
"null","","html-keyboard-response","144","453847","0.0-144.0","","","null","","","","","","","","","",""
"730.6999999880791","","image-keyboard-response","145","454579","0.0-145.0","","img/set1/S4.jpg","74","4","structured_incentive","74","structured_incentive,random,structured_normal,structured_load","3,4,2,3,2,1","4,2,3,1","true","","",""
"null","","html-keyboard-response","146","454935","0.0-146.0","","<img src=""img/set1/S4.jpg"" width=""540"" height = ""360"" style=""border:16px solid Violet"">","null","","","","","","","","","",""
"null","","html-keyboard-response","147","455145","0.0-147.0","","","null","","","","","","","","","",""
"937.4000000059605","","image-keyboard-response","148","456084","0.0-148.0","","img/set1/S2.jpg","68","2","structured_incentive","68","structured_incentive,random,structured_normal,structured_load","3,4,2,3,2,1","4,2,3,1","true","","",""
"null","","html-keyboard-response","149","456453","0.0-149.0","","<img src=""img/set1/S2.jpg"" width=""540"" height = ""360"" style=""border:16px solid orange"">","null","","","","","","","","","",""
"null","","html-keyboard-response","150","456670","0.0-150.0","","","null","","","","","","","","","",""
"435.80000001192093","","image-keyboard-response","151","457107","0.0-151.0","","img/set1/S2.jpg","68","2","structured_incentive","68","structured_incentive,random,structured_normal,structured_load","3,4,2,3,2,1","4,2,3,1","true","","",""
"null","","html-keyboard-response","152","457472","0.0-152.0","","<img src=""img/set1/S2.jpg"" width=""540"" height = ""360"" style=""border:16px solid orange"">","null","","","","","","","","","",""
"null","","html-keyboard-response","153","457688","0.0-153.0","","","null","","","","","","","","","",""
"810.1999999880791","","image-keyboard-response","154","458500","0.0-154.0","","img/set1/S3.jpg","72","3","structured_incentive","72","structured_incentive,random,structured_normal,structured_load","3,4,2,3,2,1","4,2,3,1","true","","",""
"null","","html-keyboard-response","155","458860","0.0-155.0","","<img src=""img/set1/S3.jpg"" width=""540"" height = ""360"" style=""border:16px solid orange"">","null","","","","","","","","","",""
"null","","html-keyboard-response","156","459075","0.0-156.0","","","null","","","","","","","","","",""
"799.9000000059605","","image-keyboard-response","157","459876","0.0-157.0","","img/set1/S4.jpg","74","4","structured_incentive","74","structured_incentive,random,structured_normal,structured_load","3,4,2,3,2,1","4,2,3,1","true","","",""
"null","","html-keyboard-response","158","460231","0.0-158.0","","<img src=""img/set1/S4.jpg"" width=""540"" height = ""360"" style=""border:16px solid Violet"">","null","","","","","","","","","",""
"null","","html-keyboard-response","159","460446","0.0-159.0","","","null","","","","","","","","","",""
"868.8999999761581","","image-keyboard-response","160","461316","0.0-160.0","","img/set1/S3.jpg","72","3","structured_incentive","72","structured_incentive,random,structured_normal,structured_load","3,4,2,3,2,1","4,2,3,1","true","","",""
"null","","html-keyboard-response","161","461681","0.0-161.0","","<img src=""img/set1/S3.jpg"" width=""540"" height = ""360"" style=""border:16px solid orange"">","null","","","","","","","","","",""
"null","","html-keyboard-response","162","461898","0.0-162.0","","","null","","","","","","","","","",""
"632.5","","image-keyboard-response","163","462532","0.0-163.0","","img/set1/S4.jpg","74","4","structured_incentive","74","structured_incentive,random,structured_normal,structured_load","3,4,2,3,2,1","4,2,3,1","true","","",""
"null","","html-keyboard-response","164","462893","0.0-164.0","","<img src=""img/set1/S4.jpg"" width=""540"" height = ""360"" style=""border:16px solid Violet"">","null","","","","","","","","","",""
"null","","html-keyboard-response","165","463100","0.0-165.0","","","null","","","","","","","","","",""
"806.5","","image-keyboard-response","166","463908","0.0-166.0","","img/set1/S1.jpg","83","1","structured_incentive","83","structured_incentive,random,structured_normal,structured_load","3,4,2,3,2,1","4,2,3,1","true","","",""
"null","","html-keyboard-response","167","464264","0.0-167.0","","<img src=""img/set1/S1.jpg"" width=""540"" height = ""360"" style=""border:16px solid orange"">","null","","","","","","","","","",""
"null","","html-keyboard-response","168","464469","0.0-168.0","","","null","","","","","","","","","",""
"669.2000000178814","","image-keyboard-response","169","465139","0.0-169.0","","img/set1/S3.jpg","72","3","structured_incentive","72","structured_incentive,random,structured_normal,structured_load","3,4,2,3,2,1","4,2,3,1","true","","",""
"null","","html-keyboard-response","170","465505","0.0-170.0","","<img src=""img/set1/S3.jpg"" width=""540"" height = ""360"" style=""border:16px solid orange"">","null","","","","","","","","","",""
"null","","html-keyboard-response","171","465721","0.0-171.0","","","null","","","","","","","","","",""
"729","","image-keyboard-response","172","466451","0.0-172.0","","img/set1/S4.jpg","74","4","structured_incentive","74","structured_incentive,random,structured_normal,structured_load","3,4,2,3,2,1","4,2,3,1","true","","",""
"null","","html-keyboard-response","173","466808","0.0-173.0","","<img src=""img/set1/S4.jpg"" width=""540"" height = ""360"" style=""border:16px solid Violet"">","null","","","","","","","","","",""
"null","","html-keyboard-response","174","467030","0.0-174.0","","","null","","","","","","","","","",""
"829.5999999940395","","image-keyboard-response","175","467860","0.0-175.0","","img/set1/S1.jpg","83","1","structured_incentive","83","structured_incentive,random,structured_normal,structured_load","3,4,2,3,2,1","4,2,3,1","true","","",""
"null","","html-keyboard-response","176","468212","0.0-176.0","","<img src=""img/set1/S1.jpg"" width=""540"" height = ""360"" style=""border:16px solid orange"">","null","","","","","","","","","",""
"null","","html-keyboard-response","177","468424","0.0-177.0","","","null","","","","","","","","","",""
"457.90000000596046","","image-keyboard-response","178","468883","0.0-178.0","","img/set1/S1.jpg","83","1","structured_incentive","83","structured_incentive,random,structured_normal,structured_load","3,4,2,3,2,1","4,2,3,1","true","","",""
"null","","html-keyboard-response","179","469251","0.0-179.0","","<img src=""img/set1/S1.jpg"" width=""540"" height = ""360"" style=""border:16px solid orange"">","null","","","","","","","","","",""
"null","","html-keyboard-response","180","469467","0.0-180.0","","","null","","","","","","","","","",""
"695.5999999940395","","image-keyboard-response","181","470163","0.0-181.0","","img/set1/S3.jpg","72","3","structured_incentive","72","structured_incentive,random,structured_normal,structured_load","3,4,2,3,2,1","4,2,3,1","true","","",""
"null","","html-keyboard-response","182","470516","0.0-182.0","","<img src=""img/set1/S3.jpg"" width=""540"" height = ""360"" style=""border:16px solid orange"">","null","","","","","","","","","",""
"null","","html-keyboard-response","183","470730","0.0-183.0","","","null","","","","","","","","","",""
"744.7000000178814","","image-keyboard-response","184","471476","0.0-184.0","","img/set1/S4.jpg","74","4","structured_incentive","74","structured_incentive,random,structured_normal,structured_load","3,4,2,3,2,1","4,2,3,1","true","","",""
"null","","html-keyboard-response","185","471835","0.0-185.0","","<img src=""img/set1/S4.jpg"" width=""540"" height = ""360"" style=""border:16px solid Violet"">","null","","","","","","","","","",""
"null","","html-keyboard-response","186","472057","0.0-186.0","","","null","","","","","","","","","",""
"617.2999999821186","","image-keyboard-response","187","472676","0.0-187.0","","img/set1/S3.jpg","72","3","structured_incentive","72","structured_incentive,random,structured_normal,structured_load","3,4,2,3,2,1","4,2,3,1","true","","",""
"null","","html-keyboard-response","188","473029","0.0-188.0","","<img src=""img/set1/S3.jpg"" width=""540"" height = ""360"" style=""border:16px solid orange"">","null","","","","","","","","","",""
"null","","html-keyboard-response","189","473243","0.0-189.0","","","null","","","","","","","","","",""
"503.80000001192093","","image-keyboard-response","190","473747","0.0-190.0","","img/set1/S4.jpg","74","4","structured_incentive","74","structured_incentive,random,structured_normal,structured_load","3,4,2,3,2,1","4,2,3,1","true","","",""
"null","","html-keyboard-response","191","474109","0.0-191.0","","<img src=""img/set1/S4.jpg"" width=""540"" height = ""360"" style=""border:16px solid Violet"">","null","","","","","","","","","",""
"null","","html-keyboard-response","192","474325","0.0-192.0","","","null","","","","","","","","","",""
"734","","image-keyboard-response","193","475060","0.0-193.0","","img/set1/S1.jpg","83","1","structured_incentive","83","structured_incentive,random,structured_normal,structured_load","3,4,2,3,2,1","4,2,3,1","true","","",""
"null","","html-keyboard-response","194","475426","0.0-194.0","","<img src=""img/set1/S1.jpg"" width=""540"" height = ""360"" style=""border:16px solid orange"">","null","","","","","","","","","",""
"null","","html-keyboard-response","195","475643","0.0-195.0","","","null","","","","","","","","","",""
"712","","image-keyboard-response","196","476356","0.0-196.0","","img/set1/S3.jpg","72","3","structured_incentive","72","structured_incentive,random,structured_normal,structured_load","3,4,2,3,2,1","4,2,3,1","true","","",""
"null","","html-keyboard-response","197","476714","0.0-197.0","","<img src=""img/set1/S3.jpg"" width=""540"" height = ""360"" style=""border:16px solid orange"">","null","","","","","","","","","",""
"null","","html-keyboard-response","198","476930","0.0-198.0","","","null","","","","","","","","","",""
"641.0999999940395","","image-keyboard-response","199","477572","0.0-199.0","","img/set1/S4.jpg","74","4","structured_incentive","74","structured_incentive,random,structured_normal,structured_load","3,4,2,3,2,1","4,2,3,1","true","","",""
"null","","html-keyboard-response","200","477933","0.0-200.0","","<img src=""img/set1/S4.jpg"" width=""540"" height = ""360"" style=""border:16px solid Violet"">","null","","","","","","","","","",""
"null","","html-keyboard-response","201","478149","0.0-201.0","","","null","","","","","","","","","",""
"606.1999999880791","","image-keyboard-response","202","478756","0.0-202.0","","img/set1/S3.jpg","72","3","structured_incentive","72","structured_incentive,random,structured_normal,structured_load","3,4,2,3,2,1","4,2,3,1","true","","",""
"null","","html-keyboard-response","203","479113","0.0-203.0","","<img src=""img/set1/S3.jpg"" width=""540"" height = ""360"" style=""border:16px solid orange"">","null","","","","","","","","","",""
"null","","html-keyboard-response","204","479318","0.0-204.0","","","null","","","","","","","","","",""
"444.5","","image-keyboard-response","205","479763","0.0-205.0","","img/set1/S4.jpg","74","4","structured_incentive","74","structured_incentive,random,structured_normal,structured_load","3,4,2,3,2,1","4,2,3,1","true","","",""
"null","","html-keyboard-response","206","480115","0.0-206.0","","<img src=""img/set1/S4.jpg"" width=""540"" height = ""360"" style=""border:16px solid Violet"">","null","","","","","","","","","",""
"null","","html-keyboard-response","207","480319","0.0-207.0","","","null","","","","","","","","","",""
"564.0999999940395","","image-keyboard-response","208","480884","0.0-208.0","","img/set1/S1.jpg","83","1","structured_incentive","83","structured_incentive,random,structured_normal,structured_load","3,4,2,3,2,1","4,2,3,1","true","","",""
"null","","html-keyboard-response","209","481240","0.0-209.0","","<img src=""img/set1/S1.jpg"" width=""540"" height = ""360"" style=""border:16px solid orange"">","null","","","","","","","","","",""
"null","","html-keyboard-response","210","481456","0.0-210.0","","","null","","","","","","","","","",""
"627","","image-keyboard-response","211","482084","0.0-211.0","","img/set1/S3.jpg","74","3","structured_incentive","72","structured_incentive,random,structured_normal,structured_load","3,4,2,3,2,1","4,2,3,1","false","","",""
"null","","html-keyboard-response","212","482441","0.0-212.0","","<img src=""img/set1/S3.jpg"" width=""540"" height = ""360"">","null","","","","","","","","","",""
"null","","html-keyboard-response","213","482643","0.0-213.0","","","null","","","","","","","","","",""
"734.7999999821186","","image-keyboard-response","214","483379","0.0-214.0","","img/set1/S4.jpg","74","4","structured_incentive","74","structured_incentive,random,structured_normal,structured_load","3,4,2,3,2,1","4,2,3,1","true","","",""
"null","","html-keyboard-response","215","483734","0.0-215.0","","<img src=""img/set1/S4.jpg"" width=""540"" height = ""360"" style=""border:16px solid Violet"">","null","","","","","","","","","",""
"null","","html-keyboard-response","216","483937","0.0-216.0","","","null","","","","","","","","","",""
"577.5999999940395","","image-keyboard-response","217","484515","0.0-217.0","","img/set1/S3.jpg","72","3","structured_incentive","72","structured_incentive,random,structured_normal,structured_load","3,4,2,3,2,1","4,2,3,1","true","","",""
"null","","html-keyboard-response","218","484885","0.0-218.0","","<img src=""img/set1/S3.jpg"" width=""540"" height = ""360"" style=""border:16px solid orange"">","null","","","","","","","","","",""
"null","","html-keyboard-response","219","485101","0.0-219.0","","","null","","","","","","","","","",""
"676.5999999940395","","image-keyboard-response","220","485779","0.0-220.0","","img/set1/S4.jpg","74","4","structured_incentive","74","structured_incentive,random,structured_normal,structured_load","3,4,2,3,2,1","4,2,3,1","true","","",""
"null","","html-keyboard-response","221","486135","0.0-221.0","","<img src=""img/set1/S4.jpg"" width=""540"" height = ""360"" style=""border:16px solid Violet"">","null","","","","","","","","","",""
"null","","html-keyboard-response","222","486350","0.0-222.0","","","null","","","","","","","","","",""
"420.39999997615814","","image-keyboard-response","223","486772","0.0-223.0","","img/set1/S3.jpg","72","3","structured_incentive","72","structured_incentive,random,structured_normal,structured_load","3,4,2,3,2,1","4,2,3,1","true","","",""
"null","","html-keyboard-response","224","487137","0.0-224.0","","<img src=""img/set1/S3.jpg"" width=""540"" height = ""360"" style=""border:16px solid orange"">","null","","","","","","","","","",""
"null","","html-keyboard-response","225","487352","0.0-225.0","","","null","","","","","","","","","",""
"346.89999997615814","","image-keyboard-response","226","487699","0.0-226.0","","img/set1/S4.jpg","74","4","structured_incentive","74","structured_incentive,random,structured_normal,structured_load","3,4,2,3,2,1","4,2,3,1","true","","",""
"null","","html-keyboard-response","227","488051","0.0-227.0","","<img src=""img/set1/S4.jpg"" width=""540"" height = ""360"" style=""border:16px solid Violet"">","null","","","","","","","","","",""
"null","","html-keyboard-response","228","488254","0.0-228.0","","","null","","","","","","","","","",""
"660.5999999940395","","image-keyboard-response","229","488916","0.0-229.0","","img/set1/S1.jpg","83","1","structured_incentive","83","structured_incentive,random,structured_normal,structured_load","3,4,2,3,2,1","4,2,3,1","true","","",""
"null","","html-keyboard-response","230","489272","0.0-230.0","","<img src=""img/set1/S1.jpg"" width=""540"" height = ""360"" style=""border:16px solid orange"">","null","","","","","","","","","",""
"null","","html-keyboard-response","231","489480","0.0-231.0","","","null","","","","","","","","","",""
"426.39999997615814","","image-keyboard-response","232","489908","0.0-232.0","","img/set1/S2.jpg","68","2","structured_incentive","68","structured_incentive,random,structured_normal,structured_load","3,4,2,3,2,1","4,2,3,1","true","","",""
"null","","html-keyboard-response","233","490259","0.0-233.0","","<img src=""img/set1/S2.jpg"" width=""540"" height = ""360"" style=""border:16px solid orange"">","null","","","","","","","","","",""
"null","","html-keyboard-response","234","490475","0.0-234.0","","","null","","","","","","","","","",""
"567.1999999880791","","image-keyboard-response","235","491043","0.0-235.0","","img/set1/S1.jpg","83","1","structured_incentive","83","structured_incentive,random,structured_normal,structured_load","3,4,2,3,2,1","4,2,3,1","true","","",""
"null","","html-keyboard-response","236","491407","0.0-236.0","","<img src=""img/set1/S1.jpg"" width=""540"" height = ""360"" style=""border:16px solid orange"">","null","","","","","","","","","",""
"null","","html-keyboard-response","237","491610","0.0-237.0","","","null","","","","","","","","","",""
"440.19999998807907","","image-keyboard-response","238","492051","0.0-238.0","","img/set1/S1.jpg","83","1","structured_incentive","83","structured_incentive,random,structured_normal,structured_load","3,4,2,3,2,1","4,2,3,1","true","","",""
"null","","html-keyboard-response","239","492405","0.0-239.0","","<img src=""img/set1/S1.jpg"" width=""540"" height = ""360"" style=""border:16px solid orange"">","null","","","","","","","","","",""
"null","","html-keyboard-response","240","492607","0.0-240.0","","","null","","","","","","","","","",""
"534.5","","image-keyboard-response","241","493143","0.0-241.0","","img/set1/S3.jpg","72","3","structured_incentive","72","structured_incentive,random,structured_normal,structured_load","3,4,2,3,2,1","4,2,3,1","true","","",""
"null","","html-keyboard-response","242","493496","0.0-242.0","","<img src=""img/set1/S3.jpg"" width=""540"" height = ""360"" style=""border:16px solid orange"">","null","","","","","","","","","",""
"null","","html-keyboard-response","243","493711","0.0-243.0","","","null","","","","","","","","","",""
"499.09999999403954","","image-keyboard-response","244","494211","0.0-244.0","","img/set1/S4.jpg","83","4","structured_incentive","74","structured_incentive,random,structured_normal,structured_load","3,4,2,3,2,1","4,2,3,1","false","","",""
"null","","html-keyboard-response","245","494567","0.0-245.0","","<img src=""img/set1/S4.jpg"" width=""540"" height = ""360"">","null","","","","","","","","","",""
"null","","html-keyboard-response","246","494784","0.0-246.0","","","null","","","","","","","","","",""
"1074.8999999761581","","image-keyboard-response","247","495860","0.0-247.0","","img/set1/S2.jpg","68","2","structured_incentive","68","structured_incentive,random,structured_normal,structured_load","3,4,2,3,2,1","4,2,3,1","true","","",""
"null","","html-keyboard-response","248","496224","0.0-248.0","","<img src=""img/set1/S2.jpg"" width=""540"" height = ""360"" style=""border:16px solid orange"">","null","","","","","","","","","",""
"null","","html-keyboard-response","249","496427","0.0-249.0","","","null","","","","","","","","","",""
"423.19999998807907","","image-keyboard-response","250","496852","0.0-250.0","","img/set1/S2.jpg","68","2","structured_incentive","68","structured_incentive,random,structured_normal,structured_load","3,4,2,3,2,1","4,2,3,1","true","","",""
"null","","html-keyboard-response","251","497210","0.0-251.0","","<img src=""img/set1/S2.jpg"" width=""540"" height = ""360"" style=""border:16px solid orange"">","null","","","","","","","","","",""
"null","","html-keyboard-response","252","497422","0.0-252.0","","","null","","","","","","","","","",""
"643.6999999880791","","image-keyboard-response","253","498067","0.0-253.0","","img/set1/S1.jpg","83","1","structured_incentive","83","structured_incentive,random,structured_normal,structured_load","3,4,2,3,2,1","4,2,3,1","true","","",""
"null","","html-keyboard-response","254","498421","0.0-254.0","","<img src=""img/set1/S1.jpg"" width=""540"" height = ""360"" style=""border:16px solid orange"">","null","","","","","","","","","",""
"null","","html-keyboard-response","255","498624","0.0-255.0","","","null","","","","","","","","","",""
"513.9000000059605","","image-keyboard-response","256","499139","0.0-256.0","","img/set1/S1.jpg","83","1","structured_incentive","83","structured_incentive,random,structured_normal,structured_load","3,4,2,3,2,1","4,2,3,1","true","","",""
"null","","html-keyboard-response","257","499495","0.0-257.0","","<img src=""img/set1/S1.jpg"" width=""540"" height = ""360"" style=""border:16px solid orange"">","null","","","","","","","","","",""
"null","","html-keyboard-response","258","499711","0.0-258.0","","","null","","","","","","","","","",""
"642.9000000059605","","image-keyboard-response","259","500355","0.0-259.0","","img/set1/S2.jpg","72","2","structured_incentive","68","structured_incentive,random,structured_normal,structured_load","3,4,2,3,2,1","4,2,3,1","false","","",""
"null","","html-keyboard-response","260","500711","0.0-260.0","","<img src=""img/set1/S2.jpg"" width=""540"" height = ""360"">","null","","","","","","","","","",""
"null","","html-keyboard-response","261","500923","0.0-261.0","","","null","","","","","","","","","",""
"839.2999999821186","","image-keyboard-response","262","501764","0.0-262.0","","img/set1/S1.jpg","83","1","structured_incentive","83","structured_incentive,random,structured_normal,structured_load","3,4,2,3,2,1","4,2,3,1","true","","",""
"null","","html-keyboard-response","263","502124","0.0-263.0","","<img src=""img/set1/S1.jpg"" width=""540"" height = ""360"" style=""border:16px solid orange"">","null","","","","","","","","","",""
"null","","html-keyboard-response","264","502327","0.0-264.0","","","null","","","","","","","","","",""
"523.8999999761581","","image-keyboard-response","265","502852","0.0-265.0","","img/set1/S1.jpg","83","1","structured_incentive","83","structured_incentive,random,structured_normal,structured_load","3,4,2,3,2,1","4,2,3,1","true","","",""
"null","","html-keyboard-response","266","503211","0.0-266.0","","<img src=""img/set1/S1.jpg"" width=""540"" height = ""360"" style=""border:16px solid orange"">","null","","","","","","","","","",""
"null","","html-keyboard-response","267","503428","0.0-267.0","","","null","","","","","","","","","",""
"606.5","","image-keyboard-response","268","504035","0.0-268.0","","img/set1/S3.jpg","72","3","structured_incentive","72","structured_incentive,random,structured_normal,structured_load","3,4,2,3,2,1","4,2,3,1","true","","",""
"null","","html-keyboard-response","269","504399","0.0-269.0","","<img src=""img/set1/S3.jpg"" width=""540"" height = ""360"" style=""border:16px solid orange"">","null","","","","","","","","","",""
"null","","html-keyboard-response","270","504615","0.0-270.0","","","null","","","","","","","","","",""
"507","","image-keyboard-response","271","505123","0.0-271.0","","img/set1/S4.jpg","74","4","structured_incentive","74","structured_incentive,random,structured_normal,structured_load","3,4,2,3,2,1","4,2,3,1","true","","",""
"null","","html-keyboard-response","272","505478","0.0-272.0","","<img src=""img/set1/S4.jpg"" width=""540"" height = ""360"" style=""border:16px solid Violet"">","null","","","","","","","","","",""
"null","","html-keyboard-response","273","505680","0.0-273.0","","","null","","","","","","","","","",""
"658.5","","image-keyboard-response","274","506339","0.0-274.0","","img/set1/S2.jpg","83","2","structured_incentive","68","structured_incentive,random,structured_normal,structured_load","3,4,2,3,2,1","4,2,3,1","false","","",""
"null","","html-keyboard-response","275","506698","0.0-275.0","","<img src=""img/set1/S2.jpg"" width=""540"" height = ""360"">","null","","","","","","","","","",""
"null","","html-keyboard-response","276","506905","0.0-276.0","","","null","","","","","","","","","",""
"793.3999999761581","","image-keyboard-response","277","507700","0.0-277.0","","img/set1/S1.jpg","83","1","structured_incentive","83","structured_incentive,random,structured_normal,structured_load","3,4,2,3,2,1","4,2,3,1","true","","",""
"null","","html-keyboard-response","278","508058","0.0-278.0","","<img src=""img/set1/S1.jpg"" width=""540"" height = ""360"" style=""border:16px solid orange"">","null","","","","","","","","","",""
"null","","html-keyboard-response","279","508262","0.0-279.0","","","null","","","","","","","","","",""
"524.8000000119209","","image-keyboard-response","280","508788","0.0-280.0","","img/set1/S1.jpg","83","1","structured_incentive","83","structured_incentive,random,structured_normal,structured_load","3,4,2,3,2,1","4,2,3,1","true","","",""
"null","","html-keyboard-response","281","509142","0.0-281.0","","<img src=""img/set1/S1.jpg"" width=""540"" height = ""360"" style=""border:16px solid orange"">","null","","","","","","","","","",""
"null","","html-keyboard-response","282","509357","0.0-282.0","","","null","","","","","","","","","",""
"453.69999998807907","","image-keyboard-response","283","509812","0.0-283.0","","img/set1/S2.jpg","68","2","structured_incentive","68","structured_incentive,random,structured_normal,structured_load","3,4,2,3,2,1","4,2,3,1","true","","",""
"null","","html-keyboard-response","284","510164","0.0-284.0","","<img src=""img/set1/S2.jpg"" width=""540"" height = ""360"" style=""border:16px solid orange"">","null","","","","","","","","","",""
"null","","html-keyboard-response","285","510375","0.0-285.0","","","null","","","","","","","","","",""
"539.7000000178814","","image-keyboard-response","286","510916","0.0-286.0","","img/set1/S3.jpg","72","3","structured_incentive","72","structured_incentive,random,structured_normal,structured_load","3,4,2,3,2,1","4,2,3,1","true","","",""
"null","","html-keyboard-response","287","511277","0.0-287.0","","<img src=""img/set1/S3.jpg"" width=""540"" height = ""360"" style=""border:16px solid orange"">","null","","","","","","","","","",""
"null","","html-keyboard-response","288","511493","0.0-288.0","","","null","","","","","","","","","",""
"765.5999999940395","","image-keyboard-response","289","512259","0.0-289.0","","img/set1/S4.jpg","74","4","structured_incentive","74","structured_incentive,random,structured_normal,structured_load","3,4,2,3,2,1","4,2,3,1","true","","",""
"null","","html-keyboard-response","290","512618","0.0-290.0","","<img src=""img/set1/S4.jpg"" width=""540"" height = ""360"" style=""border:16px solid Violet"">","null","","","","","","","","","",""
"null","","html-keyboard-response","291","512833","0.0-291.0","","","null","","","","","","","","","",""
"1041.2000000178814","","image-keyboard-response","292","513875","0.0-292.0","","img/set1/S2.jpg","83","2","structured_incentive","68","structured_incentive,random,structured_normal,structured_load","3,4,2,3,2,1","4,2,3,1","false","","",""
"null","","html-keyboard-response","293","514233","0.0-293.0","","<img src=""img/set1/S2.jpg"" width=""540"" height = ""360"">","null","","","","","","","","","",""
"null","","html-keyboard-response","294","514440","0.0-294.0","","","null","","","","","","","","","",""
"507.30000001192093","","image-keyboard-response","295","514948","0.0-295.0","","img/set1/S2.jpg","68","2","structured_incentive","68","structured_incentive,random,structured_normal,structured_load","3,4,2,3,2,1","4,2,3,1","true","","",""
"null","","html-keyboard-response","296","515303","0.0-296.0","","<img src=""img/set1/S2.jpg"" width=""540"" height = ""360"" style=""border:16px solid orange"">","null","","","","","","","","","",""
"null","","html-keyboard-response","297","515525","0.0-297.0","","","null","","","","","","","","","",""
"684.7000000178814","","image-keyboard-response","298","516211","0.0-298.0","","img/set1/S1.jpg","83","1","structured_incentive","83","structured_incentive,random,structured_normal,structured_load","3,4,2,3,2,1","4,2,3,1","true","","",""
"null","","html-keyboard-response","299","516575","0.0-299.0","","<img src=""img/set1/S1.jpg"" width=""540"" height = ""360"" style=""border:16px solid orange"">","null","","","","","","","","","",""
"null","","html-keyboard-response","300","516791","0.0-300.0","","","null","","","","","","","","","",""
"698.6999999880791","","image-keyboard-response","301","517491","0.0-301.0","","img/set1/S1.jpg","83","1","structured_incentive","83","structured_incentive,random,structured_normal,structured_load","3,4,2,3,2,1","4,2,3,1","true","","",""
"null","","html-keyboard-response","302","517848","0.0-302.0","","<img src=""img/set1/S1.jpg"" width=""540"" height = ""360"" style=""border:16px solid orange"">","null","","","","","","","","","",""
"null","","html-keyboard-response","303","518064","0.0-303.0","","","null","","","","","","","","","",""
"626.2000000178814","","image-keyboard-response","304","518691","0.0-304.0","","img/set1/S3.jpg","72","3","structured_incentive","72","structured_incentive,random,structured_normal,structured_load","3,4,2,3,2,1","4,2,3,1","true","","",""
"null","","html-keyboard-response","305","519051","0.0-305.0","","<img src=""img/set1/S3.jpg"" width=""540"" height = ""360"" style=""border:16px solid orange"">","null","","","","","","","","","",""
"null","","html-keyboard-response","306","519267","0.0-306.0","","","null","","","","","","","","","",""
"656.5","","image-keyboard-response","307","519924","0.0-307.0","","img/set1/S4.jpg","74","4","structured_incentive","74","structured_incentive,random,structured_normal,structured_load","3,4,2,3,2,1","4,2,3,1","true","","",""
"null","","html-keyboard-response","308","520277","0.0-308.0","","<img src=""img/set1/S4.jpg"" width=""540"" height = ""360"" style=""border:16px solid Violet"">","null","","","","","","","","","",""
"null","","html-keyboard-response","309","520484","0.0-309.0","","","null","","","","","","","","","",""
"749.9000000059605","","image-keyboard-response","310","521235","0.0-310.0","","img/set1/S3.jpg","68","3","structured_incentive","72","structured_incentive,random,structured_normal,structured_load","3,4,2,3,2,1","4,2,3,1","false","","",""
"null","","html-keyboard-response","311","521586","0.0-311.0","","<img src=""img/set1/S3.jpg"" width=""540"" height = ""360"">","null","","","","","","","","","",""
"null","","html-keyboard-response","312","521802","0.0-312.0","","","null","","","","","","","","","",""
"776.8000000119209","","image-keyboard-response","313","522580","0.0-313.0","","img/set1/S4.jpg","74","4","structured_incentive","74","structured_incentive,random,structured_normal,structured_load","3,4,2,3,2,1","4,2,3,1","true","","",""
"null","","html-keyboard-response","314","522941","0.0-314.0","","<img src=""img/set1/S4.jpg"" width=""540"" height = ""360"" style=""border:16px solid Violet"">","null","","","","","","","","","",""
"null","","html-keyboard-response","315","523157","0.0-315.0","","","null","","","","","","","","","",""
"734","","image-keyboard-response","316","523892","0.0-316.0","","img/set1/S1.jpg","83","1","structured_incentive","83","structured_incentive,random,structured_normal,structured_load","3,4,2,3,2,1","4,2,3,1","true","","",""
"null","","html-keyboard-response","317","524254","0.0-317.0","","<img src=""img/set1/S1.jpg"" width=""540"" height = ""360"" style=""border:16px solid orange"">","null","","","","","","","","","",""
"null","","html-keyboard-response","318","524468","0.0-318.0","","","null","","","","","","","","","",""
"702.2999999821186","","image-keyboard-response","319","525171","0.0-319.0","","img/set1/S2.jpg","68","2","structured_incentive","68","structured_incentive,random,structured_normal,structured_load","3,4,2,3,2,1","4,2,3,1","true","","",""
"null","","html-keyboard-response","320","525528","0.0-320.0","","<img src=""img/set1/S2.jpg"" width=""540"" height = ""360"" style=""border:16px solid orange"">","null","","","","","","","","","",""
"null","","html-keyboard-response","321","525743","0.0-321.0","","","null","","","","","","","","","",""
"787","","image-keyboard-response","322","526531","0.0-322.0","","img/set1/S3.jpg","72","3","structured_incentive","72","structured_incentive,random,structured_normal,structured_load","3,4,2,3,2,1","4,2,3,1","true","","",""
"null","","html-keyboard-response","323","526901","0.0-323.0","","<img src=""img/set1/S3.jpg"" width=""540"" height = ""360"" style=""border:16px solid orange"">","null","","","","","","","","","",""
"null","","html-keyboard-response","324","527117","0.0-324.0","","","null","","","","","","","","","",""
"565.5","","image-keyboard-response","325","527684","0.0-325.0","","img/set1/S4.jpg","74","4","structured_incentive","74","structured_incentive,random,structured_normal,structured_load","3,4,2,3,2,1","4,2,3,1","true","","",""
"null","","html-keyboard-response","326","528050","0.0-326.0","","<img src=""img/set1/S4.jpg"" width=""540"" height = ""360"" style=""border:16px solid Violet"">","null","","","","","","","","","",""
"null","","html-keyboard-response","327","528266","0.0-327.0","","","null","","","","","","","","","",""
"633","","image-keyboard-response","328","528900","0.0-328.0","","img/set1/S2.jpg","68","2","structured_incentive","68","structured_incentive,random,structured_normal,structured_load","3,4,2,3,2,1","4,2,3,1","true","","",""
"null","","html-keyboard-response","329","529255","0.0-329.0","","<img src=""img/set1/S2.jpg"" width=""540"" height = ""360"" style=""border:16px solid orange"">","null","","","","","","","","","",""
"null","","html-keyboard-response","330","529468","0.0-330.0","","","null","","","","","","","","","",""
"533.5999999940395","","image-keyboard-response","331","530003","0.0-331.0","","img/set1/S2.jpg","68","2","structured_incentive","68","structured_incentive,random,structured_normal,structured_load","3,4,2,3,2,1","4,2,3,1","true","","",""
"null","","html-keyboard-response","332","530355","0.0-332.0","","<img src=""img/set1/S2.jpg"" width=""540"" height = ""360"" style=""border:16px solid orange"">","null","","","","","","","","","",""
"null","","html-keyboard-response","333","530556","0.0-333.0","","","null","","","","","","","","","",""
"630.9000000059605","","image-keyboard-response","334","531187","0.0-334.0","","img/set1/S3.jpg","72","3","structured_incentive","72","structured_incentive,random,structured_normal,structured_load","3,4,2,3,2,1","4,2,3,1","true","","",""
"null","","html-keyboard-response","335","531544","0.0-335.0","","<img src=""img/set1/S3.jpg"" width=""540"" height = ""360"" style=""border:16px solid orange"">","null","","","","","","","","","",""
"null","","html-keyboard-response","336","531745","0.0-336.0","","","null","","","","","","","","","",""
"658.2000000178814","","image-keyboard-response","337","532404","0.0-337.0","","img/set1/S4.jpg","74","4","structured_incentive","74","structured_incentive,random,structured_normal,structured_load","3,4,2,3,2,1","4,2,3,1","true","","",""
"null","","html-keyboard-response","338","532760","0.0-338.0","","<img src=""img/set1/S4.jpg"" width=""540"" height = ""360"" style=""border:16px solid Violet"">","null","","","","","","","","","",""
"null","","html-keyboard-response","339","532976","0.0-339.0","","","null","","","","","","","","","",""
"674.7999999821186","","image-keyboard-response","340","533652","0.0-340.0","","img/set1/S1.jpg","83","1","structured_incentive","83","structured_incentive,random,structured_normal,structured_load","3,4,2,3,2,1","4,2,3,1","true","","",""
"null","","html-keyboard-response","341","534018","0.0-341.0","","<img src=""img/set1/S1.jpg"" width=""540"" height = ""360"" style=""border:16px solid orange"">","null","","","","","","","","","",""
"null","","html-keyboard-response","342","534233","0.0-342.0","","","null","","","","","","","","","",""
"553.8000000119209","","image-keyboard-response","343","534788","0.0-343.0","","img/set1/S1.jpg","83","1","structured_incentive","83","structured_incentive,random,structured_normal,structured_load","3,4,2,3,2,1","4,2,3,1","true","","",""
"null","","html-keyboard-response","344","535142","0.0-344.0","","<img src=""img/set1/S1.jpg"" width=""540"" height = ""360"" style=""border:16px solid orange"">","null","","","","","","","","","",""
"null","","html-keyboard-response","345","535352","0.0-345.0","","","null","","","","","","","","","",""
"619.5","","image-keyboard-response","346","535972","0.0-346.0","","img/set1/S3.jpg","72","3","structured_incentive","72","structured_incentive,random,structured_normal,structured_load","3,4,2,3,2,1","4,2,3,1","true","","",""
"null","","html-keyboard-response","347","536335","0.0-347.0","","<img src=""img/set1/S3.jpg"" width=""540"" height = ""360"" style=""border:16px solid orange"">","null","","","","","","","","","",""
"null","","html-keyboard-response","348","536538","0.0-348.0","","","null","","","","","","","","","",""
"679.8999999761581","","image-keyboard-response","349","537219","0.0-349.0","","img/set1/S4.jpg","74","4","structured_incentive","74","structured_incentive,random,structured_normal,structured_load","3,4,2,3,2,1","4,2,3,1","true","","",""
"null","","html-keyboard-response","350","537575","0.0-350.0","","<img src=""img/set1/S4.jpg"" width=""540"" height = ""360"" style=""border:16px solid Violet"">","null","","","","","","","","","",""
"null","","html-keyboard-response","351","537790","0.0-351.0","","","null","","","","","","","","","",""
"692.7999999821186","","image-keyboard-response","352","538484","0.0-352.0","","img/set1/S2.jpg","68","2","structured_incentive","68","structured_incentive,random,structured_normal,structured_load","3,4,2,3,2,1","4,2,3,1","true","","",""
"null","","html-keyboard-response","353","538848","0.0-353.0","","<img src=""img/set1/S2.jpg"" width=""540"" height = ""360"" style=""border:16px solid orange"">","null","","","","","","","","","",""
"null","","html-keyboard-response","354","539059","0.0-354.0","","","null","","","","","","","","","",""
"511.5","","image-keyboard-response","355","539571","0.0-355.0","","img/set1/S3.jpg","72","3","structured_incentive","72","structured_incentive,random,structured_normal,structured_load","3,4,2,3,2,1","4,2,3,1","true","","",""
"null","","html-keyboard-response","356","539930","0.0-356.0","","<img src=""img/set1/S3.jpg"" width=""540"" height = ""360"" style=""border:16px solid orange"">","null","","","","","","","","","",""
"null","","html-keyboard-response","357","540143","0.0-357.0","","","null","","","","","","","","","",""
"659.5999999940395","","image-keyboard-response","358","540804","0.0-358.0","","img/set1/S4.jpg","74","4","structured_incentive","74","structured_incentive,random,structured_normal,structured_load","3,4,2,3,2,1","4,2,3,1","true","","",""
"null","","html-keyboard-response","359","541158","0.0-359.0","","<img src=""img/set1/S4.jpg"" width=""540"" height = ""360"" style=""border:16px solid Violet"">","null","","","","","","","","","",""
"null","","html-keyboard-response","360","541364","0.0-360.0","","","null","","","","","","","","","",""
"510.40000000596046","","image-keyboard-response","361","541876","0.0-361.0","","img/set1/S1.jpg","68","1","structured_incentive","83","structured_incentive,random,structured_normal,structured_load","3,4,2,3,2,1","4,2,3,1","false","","",""
"null","","html-keyboard-response","362","542230","0.0-362.0","","<img src=""img/set1/S1.jpg"" width=""540"" height = ""360"">","null","","","","","","","","","",""
"null","","html-keyboard-response","363","542435","0.0-363.0","","","null","","","","","","","","","",""
"12592.90000000596","","html-keyboard-response","364","555029","0.0-364.0","","<p class=""center-content"">You have completed a block! </p><p class=""center-content"">Press any key on the keyboard to continue, </p><p class=""center-content"">or wait for the automatic progression to the next block after one minute.</p>","32","","","","","","","","","",""
"6438.100000023842","","instructions","365","561468","0.0-365.0","[{""page_index"":0,""viewing_time"":6437.800000011921}]","","","","","","","","","","","",""
"7903.800000011921","","instructions","366","569372","0.0-366.0","[{""page_index"":0,""viewing_time"":7903.600000023842}]","","","","","","","","","","","",""
"2183.2000000178814","","image-keyboard-response","367","571556","0.0-367.0","","img/set2/S3.jpg","72","3","random","72","structured_incentive,random,structured_normal,structured_load","3,4,2,3,2,1","4,2,3,1","true","","",""
"null","","html-keyboard-response","368","571921","0.0-368.0","","<img src=""img/set2/S3.jpg"" width=""540"" height = ""360"" style=""border:16px solid orange"">","null","","","","","","","","","",""
"null","","html-keyboard-response","369","572137","0.0-369.0","","","null","","","","","","","","","",""
"521.8999999761581","","image-keyboard-response","370","572660","0.0-370.0","","img/set2/S3.jpg","72","3","random","72","structured_incentive,random,structured_normal,structured_load","3,4,2,3,2,1","4,2,3,1","true","","",""
"null","","html-keyboard-response","371","573015","0.0-371.0","","<img src=""img/set2/S3.jpg"" width=""540"" height = ""360"" style=""border:16px solid orange"">","null","","","","","","","","","",""
"null","","html-keyboard-response","372","573219","0.0-372.0","","","null","","","","","","","","","",""
"672.5","","image-keyboard-response","373","573892","0.0-373.0","","img/set2/S1.jpg","74","1","random","83","structured_incentive,random,structured_normal,structured_load","3,4,2,3,2,1","4,2,3,1","false","","",""
"null","","html-keyboard-response","374","574258","0.0-374.0","","<img src=""img/set2/S1.jpg"" width=""540"" height = ""360"">","null","","","","","","","","","",""
"null","","html-keyboard-response","375","574474","0.0-375.0","","","null","","","","","","","","","",""
"760.5999999940395","","image-keyboard-response","376","575236","0.0-376.0","","img/set2/S1.jpg","68","1","random","83","structured_incentive,random,structured_normal,structured_load","3,4,2,3,2,1","4,2,3,1","false","","",""
"null","","html-keyboard-response","377","575594","0.0-377.0","","<img src=""img/set2/S1.jpg"" width=""540"" height = ""360"">","null","","","","","","","","","",""
"null","","html-keyboard-response","378","575817","0.0-378.0","","","null","","","","","","","","","",""
"1310","","image-keyboard-response","379","577128","0.0-379.0","","img/set2/S4.jpg","68","4","random","74","structured_incentive,random,structured_normal,structured_load","3,4,2,3,2,1","4,2,3,1","false","","",""
"null","","html-keyboard-response","380","577482","0.0-380.0","","<img src=""img/set2/S4.jpg"" width=""540"" height = ""360"">","null","","","","","","","","","",""
"null","","html-keyboard-response","381","577698","0.0-381.0","","","null","","","","","","","","","",""
"1024.300000011921","","image-keyboard-response","382","578724","0.0-382.0","","img/set2/S2.jpg","83","2","random","68","structured_incentive,random,structured_normal,structured_load","3,4,2,3,2,1","4,2,3,1","false","","",""
"null","","html-keyboard-response","383","579076","0.0-383.0","","<img src=""img/set2/S2.jpg"" width=""540"" height = ""360"">","null","","","","","","","","","",""
"null","","html-keyboard-response","384","579281","0.0-384.0","","","null","","","","","","","","","",""
"1058.3999999761581","","image-keyboard-response","385","580340","0.0-385.0","","img/set2/S2.jpg","72","2","random","68","structured_incentive,random,structured_normal,structured_load","3,4,2,3,2,1","4,2,3,1","false","","",""
"null","","html-keyboard-response","386","580704","0.0-386.0","","<img src=""img/set2/S2.jpg"" width=""540"" height = ""360"">","null","","","","","","","","","",""
"null","","html-keyboard-response","387","580926","0.0-387.0","","","null","","","","","","","","","",""
"949","","image-keyboard-response","388","581876","0.0-388.0","","img/set2/S1.jpg","68","1","random","83","structured_incentive,random,structured_normal,structured_load","3,4,2,3,2,1","4,2,3,1","false","","",""
"null","","html-keyboard-response","389","582231","0.0-389.0","","<img src=""img/set2/S1.jpg"" width=""540"" height = ""360"">","null","","","","","","","","","",""
"null","","html-keyboard-response","390","582447","0.0-390.0","","","null","","","","","","","","","",""
"964.5","","image-keyboard-response","391","583412","0.0-391.0","","img/set2/S4.jpg","74","4","random","74","structured_incentive,random,structured_normal,structured_load","3,4,2,3,2,1","4,2,3,1","true","","",""
"null","","html-keyboard-response","392","583774","0.0-392.0","","<img src=""img/set2/S4.jpg"" width=""540"" height = ""360"" style=""border:16px solid orange"">","null","","","","","","","","","",""
"null","","html-keyboard-response","393","583980","0.0-393.0","","","null","","","","","","","","","",""
"1831.4000000059605","","image-keyboard-response","394","585812","0.0-394.0","","img/set2/S1.jpg","83","1","random","83","structured_incentive,random,structured_normal,structured_load","3,4,2,3,2,1","4,2,3,1","true","","",""
"null","","html-keyboard-response","395","586174","0.0-395.0","","<img src=""img/set2/S1.jpg"" width=""540"" height = ""360"" style=""border:16px solid orange"">","null","","","","","","","","","",""
"null","","html-keyboard-response","396","586390","0.0-396.0","","","null","","","","","","","","","",""
"541.2999999821186","","image-keyboard-response","397","586932","0.0-397.0","","img/set2/S1.jpg","83","1","random","83","structured_incentive,random,structured_normal,structured_load","3,4,2,3,2,1","4,2,3,1","true","","",""
"null","","html-keyboard-response","398","587291","0.0-398.0","","<img src=""img/set2/S1.jpg"" width=""540"" height = ""360"" style=""border:16px solid orange"">","null","","","","","","","","","",""
"null","","html-keyboard-response","399","587507","0.0-399.0","","","null","","","","","","","","","",""
"527.7999999821186","","image-keyboard-response","400","588035","0.0-400.0","","img/set2/S4.jpg","74","4","random","74","structured_incentive,random,structured_normal,structured_load","3,4,2,3,2,1","4,2,3,1","true","","",""
"null","","html-keyboard-response","401","588396","0.0-401.0","","<img src=""img/set2/S4.jpg"" width=""540"" height = ""360"" style=""border:16px solid orange"">","null","","","","","","","","","",""
"null","","html-keyboard-response","402","588610","0.0-402.0","","","null","","","","","","","","","",""
"576.8999999761581","","image-keyboard-response","403","589188","0.0-403.0","","img/set2/S4.jpg","74","4","random","74","structured_incentive,random,structured_normal,structured_load","3,4,2,3,2,1","4,2,3,1","true","","",""
"null","","html-keyboard-response","404","589550","0.0-404.0","","<img src=""img/set2/S4.jpg"" width=""540"" height = ""360"" style=""border:16px solid orange"">","null","","","","","","","","","",""
"null","","html-keyboard-response","405","589751","0.0-405.0","","","null","","","","","","","","","",""
"908.4000000059605","","image-keyboard-response","406","590661","0.0-406.0","","img/set2/S2.jpg","68","2","random","68","structured_incentive,random,structured_normal,structured_load","3,4,2,3,2,1","4,2,3,1","true","","",""
"null","","html-keyboard-response","407","591016","0.0-407.0","","<img src=""img/set2/S2.jpg"" width=""540"" height = ""360"" style=""border:16px solid orange"">","null","","","","","","","","","",""
"null","","html-keyboard-response","408","591232","0.0-408.0","","","null","","","","","","","","","",""
"451","","image-keyboard-response","409","591684","0.0-409.0","","img/set2/S2.jpg","68","2","random","68","structured_incentive,random,structured_normal,structured_load","3,4,2,3,2,1","4,2,3,1","true","","",""
"null","","html-keyboard-response","410","592056","0.0-410.0","","<img src=""img/set2/S2.jpg"" width=""540"" height = ""360"" style=""border:16px solid orange"">","null","","","","","","","","","",""
"null","","html-keyboard-response","411","592272","0.0-411.0","","","null","","","","","","","","","",""
"403.69999998807907","","image-keyboard-response","412","592677","0.0-412.0","","img/set2/S2.jpg","68","2","random","68","structured_incentive,random,structured_normal,structured_load","3,4,2,3,2,1","4,2,3,1","true","","",""
"null","","html-keyboard-response","413","593037","0.0-413.0","","<img src=""img/set2/S2.jpg"" width=""540"" height = ""360"" style=""border:16px solid orange"">","null","","","","","","","","","",""
"null","","html-keyboard-response","414","593259","0.0-414.0","","","null","","","","","","","","","",""
"616.5999999940395","","image-keyboard-response","415","593877","0.0-415.0","","img/set2/S4.jpg","74","4","random","74","structured_incentive,random,structured_normal,structured_load","3,4,2,3,2,1","4,2,3,1","true","","",""
"null","","html-keyboard-response","416","594237","0.0-416.0","","<img src=""img/set2/S4.jpg"" width=""540"" height = ""360"" style=""border:16px solid orange"">","null","","","","","","","","","",""
"null","","html-keyboard-response","417","594460","0.0-417.0","","","null","","","","","","","","","",""
"726.5999999940395","","image-keyboard-response","418","595188","0.0-418.0","","img/set2/S3.jpg","72","3","random","72","structured_incentive,random,structured_normal,structured_load","3,4,2,3,2,1","4,2,3,1","true","","",""
"null","","html-keyboard-response","419","595547","0.0-419.0","","<img src=""img/set2/S3.jpg"" width=""540"" height = ""360"" style=""border:16px solid orange"">","null","","","","","","","","","",""
"null","","html-keyboard-response","420","595763","0.0-420.0","","","null","","","","","","","","","",""
"1151.800000011921","","image-keyboard-response","421","596916","0.0-421.0","","img/set2/S1.jpg","83","1","random","83","structured_incentive,random,structured_normal,structured_load","3,4,2,3,2,1","4,2,3,1","true","","",""
"null","","html-keyboard-response","422","597281","0.0-422.0","","<img src=""img/set2/S1.jpg"" width=""540"" height = ""360"" style=""border:16px solid orange"">","null","","","","","","","","","",""
"null","","html-keyboard-response","423","597497","0.0-423.0","","","null","","","","","","","","","",""
"633.0999999940395","","image-keyboard-response","424","598132","0.0-424.0","","img/set2/S4.jpg","74","4","random","74","structured_incentive,random,structured_normal,structured_load","3,4,2,3,2,1","4,2,3,1","true","","",""
"null","","html-keyboard-response","425","598494","0.0-425.0","","<img src=""img/set2/S4.jpg"" width=""540"" height = ""360"" style=""border:16px solid orange"">","null","","","","","","","","","",""
"null","","html-keyboard-response","426","598700","0.0-426.0","","","null","","","","","","","","","",""
"726.5999999940395","","image-keyboard-response","427","599428","0.0-427.0","","img/set2/S3.jpg","72","3","random","72","structured_incentive,random,structured_normal,structured_load","3,4,2,3,2,1","4,2,3,1","true","","",""
"null","","html-keyboard-response","428","599788","0.0-428.0","","<img src=""img/set2/S3.jpg"" width=""540"" height = ""360"" style=""border:16px solid orange"">","null","","","","","","","","","",""
"null","","html-keyboard-response","429","600003","0.0-429.0","","","null","","","","","","","","","",""
"431.10000002384186","","image-keyboard-response","430","600436","0.0-430.0","","img/set2/S3.jpg","74","3","random","72","structured_incentive,random,structured_normal,structured_load","3,4,2,3,2,1","4,2,3,1","false","","",""
"null","","html-keyboard-response","431","600788","0.0-431.0","","<img src=""img/set2/S3.jpg"" width=""540"" height = ""360"">","null","","","","","","","","","",""
"null","","html-keyboard-response","432","600990","0.0-432.0","","","null","","","","","","","","","",""
"773.4000000059605","","image-keyboard-response","433","601765","0.0-433.0","","img/set2/S4.jpg","74","4","random","74","structured_incentive,random,structured_normal,structured_load","3,4,2,3,2,1","4,2,3,1","true","","",""
"null","","html-keyboard-response","434","602125","0.0-434.0","","<img src=""img/set2/S4.jpg"" width=""540"" height = ""360"" style=""border:16px solid orange"">","null","","","","","","","","","",""
"null","","html-keyboard-response","435","602327","0.0-435.0","","","null","","","","","","","","","",""
"795.0999999940395","","image-keyboard-response","436","603124","0.0-436.0","","img/set2/S1.jpg","68","1","random","83","structured_incentive,random,structured_normal,structured_load","3,4,2,3,2,1","4,2,3,1","false","","",""
"null","","html-keyboard-response","437","603489","0.0-437.0","","<img src=""img/set2/S1.jpg"" width=""540"" height = ""360"">","null","","","","","","","","","",""
"null","","html-keyboard-response","438","603705","0.0-438.0","","","null","","","","","","","","","",""
"1001.8000000119209","","image-keyboard-response","439","604708","0.0-439.0","","img/set2/S2.jpg","68","2","random","68","structured_incentive,random,structured_normal,structured_load","3,4,2,3,2,1","4,2,3,1","true","","",""
"null","","html-keyboard-response","440","605063","0.0-440.0","","<img src=""img/set2/S2.jpg"" width=""540"" height = ""360"" style=""border:16px solid orange"">","null","","","","","","","","","",""
"null","","html-keyboard-response","441","605266","0.0-441.0","","","null","","","","","","","","","",""
"801.3000000119209","","image-keyboard-response","442","606068","0.0-442.0","","img/set2/S3.jpg","72","3","random","72","structured_incentive,random,structured_normal,structured_load","3,4,2,3,2,1","4,2,3,1","true","","",""
"null","","html-keyboard-response","443","606426","0.0-443.0","","<img src=""img/set2/S3.jpg"" width=""540"" height = ""360"" style=""border:16px solid orange"">","null","","","","","","","","","",""
"null","","html-keyboard-response","444","606642","0.0-444.0","","","null","","","","","","","","","",""
"752.2000000178814","","image-keyboard-response","445","607396","0.0-445.0","","img/set2/S1.jpg","83","1","random","83","structured_incentive,random,structured_normal,structured_load","3,4,2,3,2,1","4,2,3,1","true","","",""
"null","","html-keyboard-response","446","607759","0.0-446.0","","<img src=""img/set2/S1.jpg"" width=""540"" height = ""360"" style=""border:16px solid orange"">","null","","","","","","","","","",""
"null","","html-keyboard-response","447","607961","0.0-447.0","","","null","","","","","","","","","",""
"569.3000000119209","","image-keyboard-response","448","608532","0.0-448.0","","img/set2/S4.jpg","74","4","random","74","structured_incentive,random,structured_normal,structured_load","3,4,2,3,2,1","4,2,3,1","true","","",""
"null","","html-keyboard-response","449","608884","0.0-449.0","","<img src=""img/set2/S4.jpg"" width=""540"" height = ""360"" style=""border:16px solid orange"">","null","","","","","","","","","",""
"null","","html-keyboard-response","450","609089","0.0-450.0","","","null","","","","","","","","","",""
"802.5999999940395","","image-keyboard-response","451","609892","0.0-451.0","","img/set2/S3.jpg","72","3","random","72","structured_incentive,random,structured_normal,structured_load","3,4,2,3,2,1","4,2,3,1","true","","",""
"null","","html-keyboard-response","452","610250","0.0-452.0","","<img src=""img/set2/S3.jpg"" width=""540"" height = ""360"" style=""border:16px solid orange"">","null","","","","","","","","","",""
"null","","html-keyboard-response","453","610455","0.0-453.0","","","null","","","","","","","","","",""
"412.90000000596046","","image-keyboard-response","454","610868","0.0-454.0","","img/set2/S3.jpg","72","3","random","72","structured_incentive,random,structured_normal,structured_load","3,4,2,3,2,1","4,2,3,1","true","","",""
"null","","html-keyboard-response","455","611223","0.0-455.0","","<img src=""img/set2/S3.jpg"" width=""540"" height = ""360"" style=""border:16px solid orange"">","null","","","","","","","","","",""
"null","","html-keyboard-response","456","611427","0.0-456.0","","","null","","","","","","","","","",""
"751.7000000178814","","image-keyboard-response","457","612180","0.0-457.0","","img/set2/S4.jpg","83","4","random","74","structured_incentive,random,structured_normal,structured_load","3,4,2,3,2,1","4,2,3,1","false","","",""
"null","","html-keyboard-response","458","612542","0.0-458.0","","<img src=""img/set2/S4.jpg"" width=""540"" height = ""360"">","null","","","","","","","","","",""
"null","","html-keyboard-response","459","612743","0.0-459.0","","","null","","","","","","","","","",""
"763.5","","image-keyboard-response","460","613508","0.0-460.0","","img/set2/S1.jpg","83","1","random","83","structured_incentive,random,structured_normal,structured_load","3,4,2,3,2,1","4,2,3,1","true","","",""
"null","","html-keyboard-response","461","613872","0.0-461.0","","<img src=""img/set2/S1.jpg"" width=""540"" height = ""360"" style=""border:16px solid orange"">","null","","","","","","","","","",""
"null","","html-keyboard-response","462","614095","0.0-462.0","","","null","","","","","","","","","",""
"851.5","","image-keyboard-response","463","614948","0.0-463.0","","img/set2/S2.jpg","68","2","random","68","structured_incentive,random,structured_normal,structured_load","3,4,2,3,2,1","4,2,3,1","true","","",""
"null","","html-keyboard-response","464","615313","0.0-464.0","","<img src=""img/set2/S2.jpg"" width=""540"" height = ""360"" style=""border:16px solid orange"">","null","","","","","","","","","",""
"null","","html-keyboard-response","465","615521","0.0-465.0","","","null","","","","","","","","","",""
"402","","image-keyboard-response","466","615924","0.0-466.0","","img/set2/S2.jpg","68","2","random","68","structured_incentive,random,structured_normal,structured_load","3,4,2,3,2,1","4,2,3,1","true","","",""
"null","","html-keyboard-response","467","616285","0.0-467.0","","<img src=""img/set2/S2.jpg"" width=""540"" height = ""360"" style=""border:16px solid orange"">","null","","","","","","","","","",""
"null","","html-keyboard-response","468","616500","0.0-468.0","","","null","","","","","","","","","",""
"495.2000000178814","","image-keyboard-response","469","616997","0.0-469.0","","img/set2/S2.jpg","68","2","random","68","structured_incentive,random,structured_normal,structured_load","3,4,2,3,2,1","4,2,3,1","true","","",""
"null","","html-keyboard-response","470","617350","0.0-470.0","","<img src=""img/set2/S2.jpg"" width=""540"" height = ""360"" style=""border:16px solid orange"">","null","","","","","","","","","",""
"null","","html-keyboard-response","471","617566","0.0-471.0","","","null","","","","","","","","","",""
"389","","image-keyboard-response","472","617957","0.0-472.0","","img/set2/S2.jpg","68","2","random","68","structured_incentive,random,structured_normal,structured_load","3,4,2,3,2,1","4,2,3,1","true","","",""
"null","","html-keyboard-response","473","618316","0.0-473.0","","<img src=""img/set2/S2.jpg"" width=""540"" height = ""360"" style=""border:16px solid orange"">","null","","","","","","","","","",""
"null","","html-keyboard-response","474","618526","0.0-474.0","","","null","","","","","","","","","",""
"436.90000000596046","","image-keyboard-response","475","618963","0.0-475.0","","img/set2/S2.jpg","68","2","random","68","structured_incentive,random,structured_normal,structured_load","3,4,2,3,2,1","4,2,3,1","true","","",""
"null","","html-keyboard-response","476","619315","0.0-476.0","","<img src=""img/set2/S2.jpg"" width=""540"" height = ""360"" style=""border:16px solid orange"">","null","","","","","","","","","",""
"null","","html-keyboard-response","477","619522","0.0-477.0","","","null","","","","","","","","","",""
"785.7000000178814","","image-keyboard-response","478","620308","0.0-478.0","","img/set2/S4.jpg","74","4","random","74","structured_incentive,random,structured_normal,structured_load","3,4,2,3,2,1","4,2,3,1","true","","",""
"null","","html-keyboard-response","479","620673","0.0-479.0","","<img src=""img/set2/S4.jpg"" width=""540"" height = ""360"" style=""border:16px solid orange"">","null","","","","","","","","","",""
"null","","html-keyboard-response","480","620889","0.0-480.0","","","null","","","","","","","","","",""
"377.80000001192093","","image-keyboard-response","481","621268","0.0-481.0","","img/set2/S4.jpg","74","4","random","74","structured_incentive,random,structured_normal,structured_load","3,4,2,3,2,1","4,2,3,1","true","","",""
"null","","html-keyboard-response","482","621627","0.0-482.0","","<img src=""img/set2/S4.jpg"" width=""540"" height = ""360"" style=""border:16px solid orange"">","null","","","","","","","","","",""
"null","","html-keyboard-response","483","621843","0.0-483.0","","","null","","","","","","","","","",""
"719.8000000119209","","image-keyboard-response","484","622564","0.0-484.0","","img/set2/S1.jpg","83","1","random","83","structured_incentive,random,structured_normal,structured_load","3,4,2,3,2,1","4,2,3,1","true","","",""
"null","","html-keyboard-response","485","622931","0.0-485.0","","<img src=""img/set2/S1.jpg"" width=""540"" height = ""360"" style=""border:16px solid orange"">","null","","","","","","","","","",""
"null","","html-keyboard-response","486","623141","0.0-486.0","","","null","","","","","","","","","",""
"638","","image-keyboard-response","487","623780","0.0-487.0","","img/set2/S4.jpg","74","4","random","74","structured_incentive,random,structured_normal,structured_load","3,4,2,3,2,1","4,2,3,1","true","","",""
"null","","html-keyboard-response","488","624142","0.0-488.0","","<img src=""img/set2/S4.jpg"" width=""540"" height = ""360"" style=""border:16px solid orange"">","null","","","","","","","","","",""
"null","","html-keyboard-response","489","624349","0.0-489.0","","","null","","","","","","","","","",""
"694.5999999940395","","image-keyboard-response","490","625044","0.0-490.0","","img/set2/S2.jpg","68","2","random","68","structured_incentive,random,structured_normal,structured_load","3,4,2,3,2,1","4,2,3,1","true","","",""
"null","","html-keyboard-response","491","625398","0.0-491.0","","<img src=""img/set2/S2.jpg"" width=""540"" height = ""360"" style=""border:16px solid orange"">","null","","","","","","","","","",""
"null","","html-keyboard-response","492","625620","0.0-492.0","","","null","","","","","","","","","",""
"398.69999998807907","","image-keyboard-response","493","626020","0.0-493.0","","img/set2/S2.jpg","68","2","random","68","structured_incentive,random,structured_normal,structured_load","3,4,2,3,2,1","4,2,3,1","true","","",""
"null","","html-keyboard-response","494","626385","0.0-494.0","","<img src=""img/set2/S2.jpg"" width=""540"" height = ""360"" style=""border:16px solid orange"">","null","","","","","","","","","",""
"null","","html-keyboard-response","495","626600","0.0-495.0","","","null","","","","","","","","","",""
"523.2000000178814","","image-keyboard-response","496","627124","0.0-496.0","","img/set2/S1.jpg","72","1","random","83","structured_incentive,random,structured_normal,structured_load","3,4,2,3,2,1","4,2,3,1","false","","",""
"null","","html-keyboard-response","497","627485","0.0-497.0","","<img src=""img/set2/S1.jpg"" width=""540"" height = ""360"">","null","","","","","","","","","",""
"null","","html-keyboard-response","498","627688","0.0-498.0","","","null","","","","","","","","","",""
"603.0999999940395","","image-keyboard-response","499","628292","0.0-499.0","","img/set2/S1.jpg","83","1","random","83","structured_incentive,random,structured_normal,structured_load","3,4,2,3,2,1","4,2,3,1","true","","",""
"null","","html-keyboard-response","500","628660","0.0-500.0","","<img src=""img/set2/S1.jpg"" width=""540"" height = ""360"" style=""border:16px solid orange"">","null","","","","","","","","","",""
"null","","html-keyboard-response","501","628876","0.0-501.0","","","null","","","","","","","","","",""
"679.5","","image-keyboard-response","502","629557","0.0-502.0","","img/set2/S2.jpg","68","2","random","68","structured_incentive,random,structured_normal,structured_load","3,4,2,3,2,1","4,2,3,1","true","","",""
"null","","html-keyboard-response","503","629909","0.0-503.0","","<img src=""img/set2/S2.jpg"" width=""540"" height = ""360"" style=""border:16px solid orange"">","null","","","","","","","","","",""
"null","","html-keyboard-response","504","630125","0.0-504.0","","","null","","","","","","","","","",""
"358.30000001192093","","image-keyboard-response","505","630484","0.0-505.0","","img/set2/S2.jpg","68","2","random","68","structured_incentive,random,structured_normal,structured_load","3,4,2,3,2,1","4,2,3,1","true","","",""
"null","","html-keyboard-response","506","630848","0.0-506.0","","<img src=""img/set2/S2.jpg"" width=""540"" height = ""360"" style=""border:16px solid orange"">","null","","","","","","","","","",""
"null","","html-keyboard-response","507","631065","0.0-507.0","","","null","","","","","","","","","",""
"777.4000000059605","","image-keyboard-response","508","631844","0.0-508.0","","img/set2/S3.jpg","72","3","random","72","structured_incentive,random,structured_normal,structured_load","3,4,2,3,2,1","4,2,3,1","true","","",""
"null","","html-keyboard-response","509","632196","0.0-509.0","","<img src=""img/set2/S3.jpg"" width=""540"" height = ""360"" style=""border:16px solid orange"">","null","","","","","","","","","",""
"null","","html-keyboard-response","510","632397","0.0-510.0","","","null","","","","","","","","","",""
"358.59999999403954","","image-keyboard-response","511","632757","0.0-511.0","","img/set2/S3.jpg","72","3","random","72","structured_incentive,random,structured_normal,structured_load","3,4,2,3,2,1","4,2,3,1","true","","",""
"null","","html-keyboard-response","512","633114","0.0-512.0","","<img src=""img/set2/S3.jpg"" width=""540"" height = ""360"" style=""border:16px solid orange"">","null","","","","","","","","","",""
"null","","html-keyboard-response","513","633338","0.0-513.0","","","null","","","","","","","","","",""
"377","","image-keyboard-response","514","633716","0.0-514.0","","img/set2/S3.jpg","72","3","random","72","structured_incentive,random,structured_normal,structured_load","3,4,2,3,2,1","4,2,3,1","true","","",""
"null","","html-keyboard-response","515","634073","0.0-515.0","","<img src=""img/set2/S3.jpg"" width=""540"" height = ""360"" style=""border:16px solid orange"">","null","","","","","","","","","",""
"null","","html-keyboard-response","516","634277","0.0-516.0","","","null","","","","","","","","","",""
"366.19999998807907","","image-keyboard-response","517","634644","0.0-517.0","","img/set2/S3.jpg","72","3","random","72","structured_incentive,random,structured_normal,structured_load","3,4,2,3,2,1","4,2,3,1","true","","",""
"null","","html-keyboard-response","518","635002","0.0-518.0","","<img src=""img/set2/S3.jpg"" width=""540"" height = ""360"" style=""border:16px solid orange"">","null","","","","","","","","","",""
"null","","html-keyboard-response","519","635218","0.0-519.0","","","null","","","","","","","","","",""
"864.8000000119209","","image-keyboard-response","520","636084","0.0-520.0","","img/set2/S2.jpg","68","2","random","68","structured_incentive,random,structured_normal,structured_load","3,4,2,3,2,1","4,2,3,1","true","","",""
"null","","html-keyboard-response","521","636444","0.0-521.0","","<img src=""img/set2/S2.jpg"" width=""540"" height = ""360"" style=""border:16px solid orange"">","null","","","","","","","","","",""
"null","","html-keyboard-response","522","636660","0.0-522.0","","","null","","","","","","","","","",""
"335.09999999403954","","image-keyboard-response","523","636996","0.0-523.0","","img/set2/S2.jpg","68","2","random","68","structured_incentive,random,structured_normal,structured_load","3,4,2,3,2,1","4,2,3,1","true","","",""
"null","","html-keyboard-response","524","637362","0.0-524.0","","<img src=""img/set2/S2.jpg"" width=""540"" height = ""360"" style=""border:16px solid orange"">","null","","","","","","","","","",""
"null","","html-keyboard-response","525","637578","0.0-525.0","","","null","","","","","","","","","",""
"649.0999999940395","","image-keyboard-response","526","638228","0.0-526.0","","img/set2/S4.jpg","74","4","random","74","structured_incentive,random,structured_normal,structured_load","3,4,2,3,2,1","4,2,3,1","true","","",""
"null","","html-keyboard-response","527","638581","0.0-527.0","","<img src=""img/set2/S4.jpg"" width=""540"" height = ""360"" style=""border:16px solid orange"">","null","","","","","","","","","",""
"null","","html-keyboard-response","528","638797","0.0-528.0","","","null","","","","","","","","","",""
"565.7000000178814","","image-keyboard-response","529","639364","0.0-529.0","","img/set2/S1.jpg","83","1","random","83","structured_incentive,random,structured_normal,structured_load","3,4,2,3,2,1","4,2,3,1","true","","",""
"null","","html-keyboard-response","530","639727","0.0-530.0","","<img src=""img/set2/S1.jpg"" width=""540"" height = ""360"" style=""border:16px solid orange"">","null","","","","","","","","","",""
"null","","html-keyboard-response","531","639931","0.0-531.0","","","null","","","","","","","","","",""
"760.1999999880791","","image-keyboard-response","532","640692","0.0-532.0","","img/set2/S3.jpg","72","3","random","72","structured_incentive,random,structured_normal,structured_load","3,4,2,3,2,1","4,2,3,1","true","","",""
"null","","html-keyboard-response","533","641056","0.0-533.0","","<img src=""img/set2/S3.jpg"" width=""540"" height = ""360"" style=""border:16px solid orange"">","null","","","","","","","","","",""
"null","","html-keyboard-response","534","641272","0.0-534.0","","","null","","","","","","","","","",""
"699.8000000119209","","image-keyboard-response","535","641973","0.0-535.0","","img/set2/S4.jpg","74","4","random","74","structured_incentive,random,structured_normal,structured_load","3,4,2,3,2,1","4,2,3,1","true","","",""
"null","","html-keyboard-response","536","642328","0.0-536.0","","<img src=""img/set2/S4.jpg"" width=""540"" height = ""360"" style=""border:16px solid orange"">","null","","","","","","","","","",""
"null","","html-keyboard-response","537","642536","0.0-537.0","","","null","","","","","","","","","",""
"667.3000000119209","","image-keyboard-response","538","643204","0.0-538.0","","img/set2/S3.jpg","72","3","random","72","structured_incentive,random,structured_normal,structured_load","3,4,2,3,2,1","4,2,3,1","true","","",""
"null","","html-keyboard-response","539","643563","0.0-539.0","","<img src=""img/set2/S3.jpg"" width=""540"" height = ""360"" style=""border:16px solid orange"">","null","","","","","","","","","",""
"null","","html-keyboard-response","540","643765","0.0-540.0","","","null","","","","","","","","","",""
"718.2000000178814","","image-keyboard-response","541","644485","0.0-541.0","","img/set2/S1.jpg","83","1","random","83","structured_incentive,random,structured_normal,structured_load","3,4,2,3,2,1","4,2,3,1","true","","",""
"null","","html-keyboard-response","542","644841","0.0-542.0","","<img src=""img/set2/S1.jpg"" width=""540"" height = ""360"" style=""border:16px solid orange"">","null","","","","","","","","","",""
"null","","html-keyboard-response","543","645047","0.0-543.0","","","null","","","","","","","","","",""
"653.3000000119209","","image-keyboard-response","544","645701","0.0-544.0","","img/set2/S4.jpg","74","4","random","74","structured_incentive,random,structured_normal,structured_load","3,4,2,3,2,1","4,2,3,1","true","","",""
"null","","html-keyboard-response","545","646066","0.0-545.0","","<img src=""img/set2/S4.jpg"" width=""540"" height = ""360"" style=""border:16px solid orange"">","null","","","","","","","","","",""
"null","","html-keyboard-response","546","646274","0.0-546.0","","","null","","","","","","","","","",""
"417.09999999403954","","image-keyboard-response","547","646693","0.0-547.0","","img/set2/S4.jpg","74","4","random","74","structured_incentive,random,structured_normal,structured_load","3,4,2,3,2,1","4,2,3,1","true","","",""
"null","","html-keyboard-response","548","647068","0.0-548.0","","<img src=""img/set2/S4.jpg"" width=""540"" height = ""360"" style=""border:16px solid orange"">","null","","","","","","","","","",""
"null","","html-keyboard-response","549","647283","0.0-549.0","","","null","","","","","","","","","",""
"399.80000001192093","","image-keyboard-response","550","647684","0.0-550.0","","img/set2/S4.jpg","74","4","random","74","structured_incentive,random,structured_normal,structured_load","3,4,2,3,2,1","4,2,3,1","true","","",""
"null","","html-keyboard-response","551","648048","0.0-551.0","","<img src=""img/set2/S4.jpg"" width=""540"" height = ""360"" style=""border:16px solid orange"">","null","","","","","","","","","",""
"null","","html-keyboard-response","552","648270","0.0-552.0","","","null","","","","","","","","","",""
"1940.5999999940395","","image-keyboard-response","553","650212","0.0-553.0","","img/set2/S2.jpg","68","2","random","68","structured_incentive,random,structured_normal,structured_load","3,4,2,3,2,1","4,2,3,1","true","","",""
"null","","html-keyboard-response","554","650576","0.0-554.0","","<img src=""img/set2/S2.jpg"" width=""540"" height = ""360"" style=""border:16px solid orange"">","null","","","","","","","","","",""
"null","","html-keyboard-response","555","650805","0.0-555.0","","","null","","","","","","","","","",""
"494","","image-keyboard-response","556","651300","0.0-556.0","","img/set2/S2.jpg","68","2","random","68","structured_incentive,random,structured_normal,structured_load","3,4,2,3,2,1","4,2,3,1","true","","",""
"null","","html-keyboard-response","557","651658","0.0-557.0","","<img src=""img/set2/S2.jpg"" width=""540"" height = ""360"" style=""border:16px solid orange"">","null","","","","","","","","","",""
"null","","html-keyboard-response","558","651874","0.0-558.0","","","null","","","","","","","","","",""
"593.2000000178814","","image-keyboard-response","559","652468","0.0-559.0","","img/set2/S4.jpg","74","4","random","74","structured_incentive,random,structured_normal,structured_load","3,4,2,3,2,1","4,2,3,1","true","","",""
