"rt","url","trial_type","trial_index","time_elapsed","internal_node_id","assignmentID","mturkID","hitID","view_history","stimulus","key_press","state","test_part","correct_response","order_block","order_chunk","order_freq","correct","responses","question_order","bonus"
"84997.30000001192","consent.html","external-html","0","85093","0.0-0.0","3IOEN3P9S856ZRO8WNOZCYIAA98615","A5WWHKD82I8UE","3WUVMVA7OBP2V5NP3991VE8MBDEZA7","","","","","","","","","","","","",""
"98490.80000001192","","instructions","1","183586","0.0-1.0","3IOEN3P9S856ZRO8WNOZCYIAA98615","A5WWHKD82I8UE","3WUVMVA7OBP2V5NP3991VE8MBDEZA7","[{""page_index"":0,""viewing_time"":9665.90000000596},{""page_index"":1,""viewing_time"":9678.5},{""page_index"":2,""viewing_time"":11809.199999988079},{""page_index"":3,""viewing_time"":29774},{""page_index"":4,""viewing_time"":10601.800000011921},{""page_index"":5,""viewing_time"":14175.699999988079},{""page_index"":6,""viewing_time"":12784.600000023842}]","","","","","","","","","","","",""
"12641.699999988079","","instructions","2","196228","0.0-2.0","3IOEN3P9S856ZRO8WNOZCYIAA98615","A5WWHKD82I8UE","3WUVMVA7OBP2V5NP3991VE8MBDEZA7","[{""page_index"":0,""viewing_time"":12641.299999982119}]","","","","","","","","","","","",""
"10747.800000011921","","instructions","3","206977","0.0-3.0","3IOEN3P9S856ZRO8WNOZCYIAA98615","A5WWHKD82I8UE","3WUVMVA7OBP2V5NP3991VE8MBDEZA7","[{""page_index"":0,""viewing_time"":10747.40000000596}]","","","","","","","","","","","",""
"1266.5999999940395","","image-keyboard-response","4","208246","0.0-4.0","3IOEN3P9S856ZRO8WNOZCYIAA98615","A5WWHKD82I8UE","3WUVMVA7OBP2V5NP3991VE8MBDEZA7","","img/set1/S4.jpg","83","4","random","74","random,structured_load,structured_normal,structured_incentive","4,2,1,2,2,3","2,3,1,4","false","","",""
"null","","html-keyboard-response","5","208609","0.0-5.0","3IOEN3P9S856ZRO8WNOZCYIAA98615","A5WWHKD82I8UE","3WUVMVA7OBP2V5NP3991VE8MBDEZA7","","<img src=""img/set1/S4.jpg"" width=""540"" height = ""360"">","null","","","","","","","","","",""
"null","","html-keyboard-response","6","208824","0.0-6.0","3IOEN3P9S856ZRO8WNOZCYIAA98615","A5WWHKD82I8UE","3WUVMVA7OBP2V5NP3991VE8MBDEZA7","","","null","","","","","","","","","",""
"797","","image-keyboard-response","7","209622","0.0-7.0","3IOEN3P9S856ZRO8WNOZCYIAA98615","A5WWHKD82I8UE","3WUVMVA7OBP2V5NP3991VE8MBDEZA7","","img/set1/S2.jpg","68","2","random","68","random,structured_load,structured_normal,structured_incentive","4,2,1,2,2,3","2,3,1,4","true","","",""
"null","","html-keyboard-response","8","209975","0.0-8.0","3IOEN3P9S856ZRO8WNOZCYIAA98615","A5WWHKD82I8UE","3WUVMVA7OBP2V5NP3991VE8MBDEZA7","","<img src=""img/set1/S2.jpg"" width=""540"" height = ""360"" style=""border:16px solid orange"">","null","","","","","","","","","",""
"null","","html-keyboard-response","9","210189","0.0-9.0","3IOEN3P9S856ZRO8WNOZCYIAA98615","A5WWHKD82I8UE","3WUVMVA7OBP2V5NP3991VE8MBDEZA7","","","null","","","","","","","","","",""
"1248.5","","image-keyboard-response","10","211438","0.0-10.0","3IOEN3P9S856ZRO8WNOZCYIAA98615","A5WWHKD82I8UE","3WUVMVA7OBP2V5NP3991VE8MBDEZA7","","img/set1/S1.jpg","74","1","random","83","random,structured_load,structured_normal,structured_incentive","4,2,1,2,2,3","2,3,1,4","false","","",""
"null","","html-keyboard-response","11","211793","0.0-11.0","3IOEN3P9S856ZRO8WNOZCYIAA98615","A5WWHKD82I8UE","3WUVMVA7OBP2V5NP3991VE8MBDEZA7","","<img src=""img/set1/S1.jpg"" width=""540"" height = ""360"">","null","","","","","","","","","",""
"null","","html-keyboard-response","12","211995","0.0-12.0","3IOEN3P9S856ZRO8WNOZCYIAA98615","A5WWHKD82I8UE","3WUVMVA7OBP2V5NP3991VE8MBDEZA7","","","null","","","","","","","","","",""
"633.5999999940395","","image-keyboard-response","13","212630","0.0-13.0","3IOEN3P9S856ZRO8WNOZCYIAA98615","A5WWHKD82I8UE","3WUVMVA7OBP2V5NP3991VE8MBDEZA7","","img/set1/S2.jpg","68","2","random","68","random,structured_load,structured_normal,structured_incentive","4,2,1,2,2,3","2,3,1,4","true","","",""
"null","","html-keyboard-response","14","212987","0.0-14.0","3IOEN3P9S856ZRO8WNOZCYIAA98615","A5WWHKD82I8UE","3WUVMVA7OBP2V5NP3991VE8MBDEZA7","","<img src=""img/set1/S2.jpg"" width=""540"" height = ""360"" style=""border:16px solid orange"">","null","","","","","","","","","",""
"null","","html-keyboard-response","15","213189","0.0-15.0","3IOEN3P9S856ZRO8WNOZCYIAA98615","A5WWHKD82I8UE","3WUVMVA7OBP2V5NP3991VE8MBDEZA7","","","null","","","","","","","","","",""
"536.1999999880791","","image-keyboard-response","16","213726","0.0-16.0","3IOEN3P9S856ZRO8WNOZCYIAA98615","A5WWHKD82I8UE","3WUVMVA7OBP2V5NP3991VE8MBDEZA7","","img/set1/S2.jpg","68","2","random","68","random,structured_load,structured_normal,structured_incentive","4,2,1,2,2,3","2,3,1,4","true","","",""
"null","","html-keyboard-response","17","214087","0.0-17.0","3IOEN3P9S856ZRO8WNOZCYIAA98615","A5WWHKD82I8UE","3WUVMVA7OBP2V5NP3991VE8MBDEZA7","","<img src=""img/set1/S2.jpg"" width=""540"" height = ""360"" style=""border:16px solid orange"">","null","","","","","","","","","",""
"null","","html-keyboard-response","18","214302","0.0-18.0","3IOEN3P9S856ZRO8WNOZCYIAA98615","A5WWHKD82I8UE","3WUVMVA7OBP2V5NP3991VE8MBDEZA7","","","null","","","","","","","","","",""
"991.0999999940395","","image-keyboard-response","19","215294","0.0-19.0","3IOEN3P9S856ZRO8WNOZCYIAA98615","A5WWHKD82I8UE","3WUVMVA7OBP2V5NP3991VE8MBDEZA7","","img/set1/S4.jpg","74","4","random","74","random,structured_load,structured_normal,structured_incentive","4,2,1,2,2,3","2,3,1,4","true","","",""
"null","","html-keyboard-response","20","215658","0.0-20.0","3IOEN3P9S856ZRO8WNOZCYIAA98615","A5WWHKD82I8UE","3WUVMVA7OBP2V5NP3991VE8MBDEZA7","","<img src=""img/set1/S4.jpg"" width=""540"" height = ""360"" style=""border:16px solid orange"">","null","","","","","","","","","",""
"null","","html-keyboard-response","21","215860","0.0-21.0","3IOEN3P9S856ZRO8WNOZCYIAA98615","A5WWHKD82I8UE","3WUVMVA7OBP2V5NP3991VE8MBDEZA7","","","null","","","","","","","","","",""
"null","","image-keyboard-response","22","218367","0.0-22.0","3IOEN3P9S856ZRO8WNOZCYIAA98615","A5WWHKD82I8UE","3WUVMVA7OBP2V5NP3991VE8MBDEZA7","","img/set1/S3.jpg","null","3","random","72","random,structured_load,structured_normal,structured_incentive","4,2,1,2,2,3","2,3,1,4","false","","",""
"null","","html-keyboard-response","23","218729","0.0-23.0","3IOEN3P9S856ZRO8WNOZCYIAA98615","A5WWHKD82I8UE","3WUVMVA7OBP2V5NP3991VE8MBDEZA7","","<img src=""img/set1/S3.jpg"" width=""540"" height = ""360"">","null","","","","","","","","","",""
"null","","html-keyboard-response","24","218944","0.0-24.0","3IOEN3P9S856ZRO8WNOZCYIAA98615","A5WWHKD82I8UE","3WUVMVA7OBP2V5NP3991VE8MBDEZA7","","","null","","","","","","","","","",""
"53.400000005960464","","image-keyboard-response","25","218998","0.0-25.0","3IOEN3P9S856ZRO8WNOZCYIAA98615","A5WWHKD82I8UE","3WUVMVA7OBP2V5NP3991VE8MBDEZA7","","img/set1/S1.jpg","74","1","random","83","random,structured_load,structured_normal,structured_incentive","4,2,1,2,2,3","2,3,1,4","false","","",""
"null","","html-keyboard-response","26","219361","0.0-26.0","3IOEN3P9S856ZRO8WNOZCYIAA98615","A5WWHKD82I8UE","3WUVMVA7OBP2V5NP3991VE8MBDEZA7","","<img src=""img/set1/S1.jpg"" width=""540"" height = ""360"">","null","","","","","","","","","",""
"null","","html-keyboard-response","27","219565","0.0-27.0","3IOEN3P9S856ZRO8WNOZCYIAA98615","A5WWHKD82I8UE","3WUVMVA7OBP2V5NP3991VE8MBDEZA7","","","null","","","","","","","","","",""
"776","","image-keyboard-response","28","220342","0.0-28.0","3IOEN3P9S856ZRO8WNOZCYIAA98615","A5WWHKD82I8UE","3WUVMVA7OBP2V5NP3991VE8MBDEZA7","","img/set1/S2.jpg","68","2","random","68","random,structured_load,structured_normal,structured_incentive","4,2,1,2,2,3","2,3,1,4","true","","",""
"null","","html-keyboard-response","29","220702","0.0-29.0","3IOEN3P9S856ZRO8WNOZCYIAA98615","A5WWHKD82I8UE","3WUVMVA7OBP2V5NP3991VE8MBDEZA7","","<img src=""img/set1/S2.jpg"" width=""540"" height = ""360"" style=""border:16px solid orange"">","null","","","","","","","","","",""
"null","","html-keyboard-response","30","220905","0.0-30.0","3IOEN3P9S856ZRO8WNOZCYIAA98615","A5WWHKD82I8UE","3WUVMVA7OBP2V5NP3991VE8MBDEZA7","","","null","","","","","","","","","",""
"1268.199999988079","","image-keyboard-response","31","222174","0.0-31.0","3IOEN3P9S856ZRO8WNOZCYIAA98615","A5WWHKD82I8UE","3WUVMVA7OBP2V5NP3991VE8MBDEZA7","","img/set1/S4.jpg","83","4","random","74","random,structured_load,structured_normal,structured_incentive","4,2,1,2,2,3","2,3,1,4","false","","",""
"null","","html-keyboard-response","32","222526","0.0-32.0","3IOEN3P9S856ZRO8WNOZCYIAA98615","A5WWHKD82I8UE","3WUVMVA7OBP2V5NP3991VE8MBDEZA7","","<img src=""img/set1/S4.jpg"" width=""540"" height = ""360"">","null","","","","","","","","","",""
"null","","html-keyboard-response","33","222742","0.0-33.0","3IOEN3P9S856ZRO8WNOZCYIAA98615","A5WWHKD82I8UE","3WUVMVA7OBP2V5NP3991VE8MBDEZA7","","","null","","","","","","","","","",""
"1159.4000000059605","","image-keyboard-response","34","223903","0.0-34.0","3IOEN3P9S856ZRO8WNOZCYIAA98615","A5WWHKD82I8UE","3WUVMVA7OBP2V5NP3991VE8MBDEZA7","","img/set1/S1.jpg","72","1","random","83","random,structured_load,structured_normal,structured_incentive","4,2,1,2,2,3","2,3,1,4","false","","",""
"null","","html-keyboard-response","35","224264","0.0-35.0","3IOEN3P9S856ZRO8WNOZCYIAA98615","A5WWHKD82I8UE","3WUVMVA7OBP2V5NP3991VE8MBDEZA7","","<img src=""img/set1/S1.jpg"" width=""540"" height = ""360"">","null","","","","","","","","","",""
"null","","html-keyboard-response","36","224466","0.0-36.0","3IOEN3P9S856ZRO8WNOZCYIAA98615","A5WWHKD82I8UE","3WUVMVA7OBP2V5NP3991VE8MBDEZA7","","","null","","","","","","","","","",""
"835.2000000178814","","image-keyboard-response","37","225303","0.0-37.0","3IOEN3P9S856ZRO8WNOZCYIAA98615","A5WWHKD82I8UE","3WUVMVA7OBP2V5NP3991VE8MBDEZA7","","img/set1/S4.jpg","74","4","random","74","random,structured_load,structured_normal,structured_incentive","4,2,1,2,2,3","2,3,1,4","true","","",""
"null","","html-keyboard-response","38","225667","0.0-38.0","3IOEN3P9S856ZRO8WNOZCYIAA98615","A5WWHKD82I8UE","3WUVMVA7OBP2V5NP3991VE8MBDEZA7","","<img src=""img/set1/S4.jpg"" width=""540"" height = ""360"" style=""border:16px solid orange"">","null","","","","","","","","","",""
"null","","html-keyboard-response","39","225869","0.0-39.0","3IOEN3P9S856ZRO8WNOZCYIAA98615","A5WWHKD82I8UE","3WUVMVA7OBP2V5NP3991VE8MBDEZA7","","","null","","","","","","","","","",""
"984.3000000119209","","image-keyboard-response","40","226854","0.0-40.0","3IOEN3P9S856ZRO8WNOZCYIAA98615","A5WWHKD82I8UE","3WUVMVA7OBP2V5NP3991VE8MBDEZA7","","img/set1/S3.jpg","72","3","random","72","random,structured_load,structured_normal,structured_incentive","4,2,1,2,2,3","2,3,1,4","true","","",""
"null","","html-keyboard-response","41","227220","0.0-41.0","3IOEN3P9S856ZRO8WNOZCYIAA98615","A5WWHKD82I8UE","3WUVMVA7OBP2V5NP3991VE8MBDEZA7","","<img src=""img/set1/S3.jpg"" width=""540"" height = ""360"" style=""border:16px solid orange"">","null","","","","","","","","","",""
"null","","html-keyboard-response","42","227435","0.0-42.0","3IOEN3P9S856ZRO8WNOZCYIAA98615","A5WWHKD82I8UE","3WUVMVA7OBP2V5NP3991VE8MBDEZA7","","","null","","","","","","","","","",""
"674","","image-keyboard-response","43","228110","0.0-43.0","3IOEN3P9S856ZRO8WNOZCYIAA98615","A5WWHKD82I8UE","3WUVMVA7OBP2V5NP3991VE8MBDEZA7","","img/set1/S2.jpg","68","2","random","68","random,structured_load,structured_normal,structured_incentive","4,2,1,2,2,3","2,3,1,4","true","","",""
"null","","html-keyboard-response","44","228467","0.0-44.0","3IOEN3P9S856ZRO8WNOZCYIAA98615","A5WWHKD82I8UE","3WUVMVA7OBP2V5NP3991VE8MBDEZA7","","<img src=""img/set1/S2.jpg"" width=""540"" height = ""360"" style=""border:16px solid orange"">","null","","","","","","","","","",""
"null","","html-keyboard-response","45","228670","0.0-45.0","3IOEN3P9S856ZRO8WNOZCYIAA98615","A5WWHKD82I8UE","3WUVMVA7OBP2V5NP3991VE8MBDEZA7","","","null","","","","","","","","","",""
"486.90000000596046","","image-keyboard-response","46","229158","0.0-46.0","3IOEN3P9S856ZRO8WNOZCYIAA98615","A5WWHKD82I8UE","3WUVMVA7OBP2V5NP3991VE8MBDEZA7","","img/set1/S2.jpg","68","2","random","68","random,structured_load,structured_normal,structured_incentive","4,2,1,2,2,3","2,3,1,4","true","","",""
"null","","html-keyboard-response","47","229523","0.0-47.0","3IOEN3P9S856ZRO8WNOZCYIAA98615","A5WWHKD82I8UE","3WUVMVA7OBP2V5NP3991VE8MBDEZA7","","<img src=""img/set1/S2.jpg"" width=""540"" height = ""360"" style=""border:16px solid orange"">","null","","","","","","","","","",""
"null","","html-keyboard-response","48","229739","0.0-48.0","3IOEN3P9S856ZRO8WNOZCYIAA98615","A5WWHKD82I8UE","3WUVMVA7OBP2V5NP3991VE8MBDEZA7","","","null","","","","","","","","","",""
"817.5","","image-keyboard-response","49","230558","0.0-49.0","3IOEN3P9S856ZRO8WNOZCYIAA98615","A5WWHKD82I8UE","3WUVMVA7OBP2V5NP3991VE8MBDEZA7","","img/set1/S4.jpg","72","4","random","74","random,structured_load,structured_normal,structured_incentive","4,2,1,2,2,3","2,3,1,4","false","","",""
"null","","html-keyboard-response","50","230914","0.0-50.0","3IOEN3P9S856ZRO8WNOZCYIAA98615","A5WWHKD82I8UE","3WUVMVA7OBP2V5NP3991VE8MBDEZA7","","<img src=""img/set1/S4.jpg"" width=""540"" height = ""360"">","null","","","","","","","","","",""
"null","","html-keyboard-response","51","231117","0.0-51.0","3IOEN3P9S856ZRO8WNOZCYIAA98615","A5WWHKD82I8UE","3WUVMVA7OBP2V5NP3991VE8MBDEZA7","","","null","","","","","","","","","",""
"1040.4000000059605","","image-keyboard-response","52","232159","0.0-52.0","3IOEN3P9S856ZRO8WNOZCYIAA98615","A5WWHKD82I8UE","3WUVMVA7OBP2V5NP3991VE8MBDEZA7","","img/set1/S3.jpg","68","3","random","72","random,structured_load,structured_normal,structured_incentive","4,2,1,2,2,3","2,3,1,4","false","","",""
"null","","html-keyboard-response","53","232520","0.0-53.0","3IOEN3P9S856ZRO8WNOZCYIAA98615","A5WWHKD82I8UE","3WUVMVA7OBP2V5NP3991VE8MBDEZA7","","<img src=""img/set1/S3.jpg"" width=""540"" height = ""360"">","null","","","","","","","","","",""
"null","","html-keyboard-response","54","232734","0.0-54.0","3IOEN3P9S856ZRO8WNOZCYIAA98615","A5WWHKD82I8UE","3WUVMVA7OBP2V5NP3991VE8MBDEZA7","","","null","","","","","","","","","",""
"888.0999999940395","","image-keyboard-response","55","233624","0.0-55.0","3IOEN3P9S856ZRO8WNOZCYIAA98615","A5WWHKD82I8UE","3WUVMVA7OBP2V5NP3991VE8MBDEZA7","","img/set1/S3.jpg","83","3","random","72","random,structured_load,structured_normal,structured_incentive","4,2,1,2,2,3","2,3,1,4","false","","",""
"null","","html-keyboard-response","56","233978","0.0-56.0","3IOEN3P9S856ZRO8WNOZCYIAA98615","A5WWHKD82I8UE","3WUVMVA7OBP2V5NP3991VE8MBDEZA7","","<img src=""img/set1/S3.jpg"" width=""540"" height = ""360"">","null","","","","","","","","","",""
"null","","html-keyboard-response","57","234195","0.0-57.0","3IOEN3P9S856ZRO8WNOZCYIAA98615","A5WWHKD82I8UE","3WUVMVA7OBP2V5NP3991VE8MBDEZA7","","","null","","","","","","","","","",""
"706.3999999761581","","image-keyboard-response","58","234902","0.0-58.0","3IOEN3P9S856ZRO8WNOZCYIAA98615","A5WWHKD82I8UE","3WUVMVA7OBP2V5NP3991VE8MBDEZA7","","img/set1/S3.jpg","74","3","random","72","random,structured_load,structured_normal,structured_incentive","4,2,1,2,2,3","2,3,1,4","false","","",""
"null","","html-keyboard-response","59","235269","0.0-59.0","3IOEN3P9S856ZRO8WNOZCYIAA98615","A5WWHKD82I8UE","3WUVMVA7OBP2V5NP3991VE8MBDEZA7","","<img src=""img/set1/S3.jpg"" width=""540"" height = ""360"">","null","","","","","","","","","",""
"null","","html-keyboard-response","60","235485","0.0-60.0","3IOEN3P9S856ZRO8WNOZCYIAA98615","A5WWHKD82I8UE","3WUVMVA7OBP2V5NP3991VE8MBDEZA7","","","null","","","","","","","","","",""
"1081.199999988079","","image-keyboard-response","61","236567","0.0-61.0","3IOEN3P9S856ZRO8WNOZCYIAA98615","A5WWHKD82I8UE","3WUVMVA7OBP2V5NP3991VE8MBDEZA7","","img/set1/S4.jpg","72","4","random","74","random,structured_load,structured_normal,structured_incentive","4,2,1,2,2,3","2,3,1,4","false","","",""
"null","","html-keyboard-response","62","236926","0.0-62.0","3IOEN3P9S856ZRO8WNOZCYIAA98615","A5WWHKD82I8UE","3WUVMVA7OBP2V5NP3991VE8MBDEZA7","","<img src=""img/set1/S4.jpg"" width=""540"" height = ""360"">","null","","","","","","","","","",""
"null","","html-keyboard-response","63","237143","0.0-63.0","3IOEN3P9S856ZRO8WNOZCYIAA98615","A5WWHKD82I8UE","3WUVMVA7OBP2V5NP3991VE8MBDEZA7","","","null","","","","","","","","","",""
"558.4000000059605","","image-keyboard-response","64","237702","0.0-64.0","3IOEN3P9S856ZRO8WNOZCYIAA98615","A5WWHKD82I8UE","3WUVMVA7OBP2V5NP3991VE8MBDEZA7","","img/set1/S2.jpg","68","2","random","68","random,structured_load,structured_normal,structured_incentive","4,2,1,2,2,3","2,3,1,4","true","","",""
"null","","html-keyboard-response","65","238059","0.0-65.0","3IOEN3P9S856ZRO8WNOZCYIAA98615","A5WWHKD82I8UE","3WUVMVA7OBP2V5NP3991VE8MBDEZA7","","<img src=""img/set1/S2.jpg"" width=""540"" height = ""360"" style=""border:16px solid orange"">","null","","","","","","","","","",""
"null","","html-keyboard-response","66","238261","0.0-66.0","3IOEN3P9S856ZRO8WNOZCYIAA98615","A5WWHKD82I8UE","3WUVMVA7OBP2V5NP3991VE8MBDEZA7","","","null","","","","","","","","","",""
"1191.4000000059605","","image-keyboard-response","67","239455","0.0-67.0","3IOEN3P9S856ZRO8WNOZCYIAA98615","A5WWHKD82I8UE","3WUVMVA7OBP2V5NP3991VE8MBDEZA7","","img/set1/S1.jpg","72","1","random","83","random,structured_load,structured_normal,structured_incentive","4,2,1,2,2,3","2,3,1,4","false","","",""
"null","","html-keyboard-response","68","239812","0.0-68.0","3IOEN3P9S856ZRO8WNOZCYIAA98615","A5WWHKD82I8UE","3WUVMVA7OBP2V5NP3991VE8MBDEZA7","","<img src=""img/set1/S1.jpg"" width=""540"" height = ""360"">","null","","","","","","","","","",""
"null","","html-keyboard-response","69","240028","0.0-69.0","3IOEN3P9S856ZRO8WNOZCYIAA98615","A5WWHKD82I8UE","3WUVMVA7OBP2V5NP3991VE8MBDEZA7","","","null","","","","","","","","","",""
"598.2000000178814","","image-keyboard-response","70","240630","0.0-70.0","3IOEN3P9S856ZRO8WNOZCYIAA98615","A5WWHKD82I8UE","3WUVMVA7OBP2V5NP3991VE8MBDEZA7","","img/set1/S4.jpg","68","4","random","74","random,structured_load,structured_normal,structured_incentive","4,2,1,2,2,3","2,3,1,4","false","","",""
"null","","html-keyboard-response","71","240988","0.0-71.0","3IOEN3P9S856ZRO8WNOZCYIAA98615","A5WWHKD82I8UE","3WUVMVA7OBP2V5NP3991VE8MBDEZA7","","<img src=""img/set1/S4.jpg"" width=""540"" height = ""360"">","null","","","","","","","","","",""
"null","","html-keyboard-response","72","241205","0.0-72.0","3IOEN3P9S856ZRO8WNOZCYIAA98615","A5WWHKD82I8UE","3WUVMVA7OBP2V5NP3991VE8MBDEZA7","","","null","","","","","","","","","",""
"720","","image-keyboard-response","73","241926","0.0-73.0","3IOEN3P9S856ZRO8WNOZCYIAA98615","A5WWHKD82I8UE","3WUVMVA7OBP2V5NP3991VE8MBDEZA7","","img/set1/S3.jpg","83","3","random","72","random,structured_load,structured_normal,structured_incentive","4,2,1,2,2,3","2,3,1,4","false","","",""
"null","","html-keyboard-response","74","242291","0.0-74.0","3IOEN3P9S856ZRO8WNOZCYIAA98615","A5WWHKD82I8UE","3WUVMVA7OBP2V5NP3991VE8MBDEZA7","","<img src=""img/set1/S3.jpg"" width=""540"" height = ""360"">","null","","","","","","","","","",""
"null","","html-keyboard-response","75","242493","0.0-75.0","3IOEN3P9S856ZRO8WNOZCYIAA98615","A5WWHKD82I8UE","3WUVMVA7OBP2V5NP3991VE8MBDEZA7","","","null","","","","","","","","","",""
"1032.300000011921","","image-keyboard-response","76","243526","0.0-76.0","3IOEN3P9S856ZRO8WNOZCYIAA98615","A5WWHKD82I8UE","3WUVMVA7OBP2V5NP3991VE8MBDEZA7","","img/set1/S3.jpg","72","3","random","72","random,structured_load,structured_normal,structured_incentive","4,2,1,2,2,3","2,3,1,4","true","","",""
"null","","html-keyboard-response","77","243892","0.0-77.0","3IOEN3P9S856ZRO8WNOZCYIAA98615","A5WWHKD82I8UE","3WUVMVA7OBP2V5NP3991VE8MBDEZA7","","<img src=""img/set1/S3.jpg"" width=""540"" height = ""360"" style=""border:16px solid orange"">","null","","","","","","","","","",""
"null","","html-keyboard-response","78","244094","0.0-78.0","3IOEN3P9S856ZRO8WNOZCYIAA98615","A5WWHKD82I8UE","3WUVMVA7OBP2V5NP3991VE8MBDEZA7","","","null","","","","","","","","","",""
"1606.7000000178814","","image-keyboard-response","79","245702","0.0-79.0","3IOEN3P9S856ZRO8WNOZCYIAA98615","A5WWHKD82I8UE","3WUVMVA7OBP2V5NP3991VE8MBDEZA7","","img/set1/S4.jpg","74","4","random","74","random,structured_load,structured_normal,structured_incentive","4,2,1,2,2,3","2,3,1,4","true","","",""
"null","","html-keyboard-response","80","246065","0.0-80.0","3IOEN3P9S856ZRO8WNOZCYIAA98615","A5WWHKD82I8UE","3WUVMVA7OBP2V5NP3991VE8MBDEZA7","","<img src=""img/set1/S4.jpg"" width=""540"" height = ""360"" style=""border:16px solid orange"">","null","","","","","","","","","",""
"null","","html-keyboard-response","81","246280","0.0-81.0","3IOEN3P9S856ZRO8WNOZCYIAA98615","A5WWHKD82I8UE","3WUVMVA7OBP2V5NP3991VE8MBDEZA7","","","null","","","","","","","","","",""
"877.2000000178814","","image-keyboard-response","82","247159","0.0-82.0","3IOEN3P9S856ZRO8WNOZCYIAA98615","A5WWHKD82I8UE","3WUVMVA7OBP2V5NP3991VE8MBDEZA7","","img/set1/S1.jpg","83","1","random","83","random,structured_load,structured_normal,structured_incentive","4,2,1,2,2,3","2,3,1,4","true","","",""
"null","","html-keyboard-response","83","247524","0.0-83.0","3IOEN3P9S856ZRO8WNOZCYIAA98615","A5WWHKD82I8UE","3WUVMVA7OBP2V5NP3991VE8MBDEZA7","","<img src=""img/set1/S1.jpg"" width=""540"" height = ""360"" style=""border:16px solid orange"">","null","","","","","","","","","",""
"null","","html-keyboard-response","84","247739","0.0-84.0","3IOEN3P9S856ZRO8WNOZCYIAA98615","A5WWHKD82I8UE","3WUVMVA7OBP2V5NP3991VE8MBDEZA7","","","null","","","","","","","","","",""
"571.9000000059605","","image-keyboard-response","85","248312","0.0-85.0","3IOEN3P9S856ZRO8WNOZCYIAA98615","A5WWHKD82I8UE","3WUVMVA7OBP2V5NP3991VE8MBDEZA7","","img/set1/S2.jpg","68","2","random","68","random,structured_load,structured_normal,structured_incentive","4,2,1,2,2,3","2,3,1,4","true","","",""
"null","","html-keyboard-response","86","248668","0.0-86.0","3IOEN3P9S856ZRO8WNOZCYIAA98615","A5WWHKD82I8UE","3WUVMVA7OBP2V5NP3991VE8MBDEZA7","","<img src=""img/set1/S2.jpg"" width=""540"" height = ""360"" style=""border:16px solid orange"">","null","","","","","","","","","",""
"null","","html-keyboard-response","87","248870","0.0-87.0","3IOEN3P9S856ZRO8WNOZCYIAA98615","A5WWHKD82I8UE","3WUVMVA7OBP2V5NP3991VE8MBDEZA7","","","null","","","","","","","","","",""
"535.5","","image-keyboard-response","88","249407","0.0-88.0","3IOEN3P9S856ZRO8WNOZCYIAA98615","A5WWHKD82I8UE","3WUVMVA7OBP2V5NP3991VE8MBDEZA7","","img/set1/S2.jpg","68","2","random","68","random,structured_load,structured_normal,structured_incentive","4,2,1,2,2,3","2,3,1,4","true","","",""
"null","","html-keyboard-response","89","249772","0.0-89.0","3IOEN3P9S856ZRO8WNOZCYIAA98615","A5WWHKD82I8UE","3WUVMVA7OBP2V5NP3991VE8MBDEZA7","","<img src=""img/set1/S2.jpg"" width=""540"" height = ""360"" style=""border:16px solid orange"">","null","","","","","","","","","",""
"null","","html-keyboard-response","90","249976","0.0-90.0","3IOEN3P9S856ZRO8WNOZCYIAA98615","A5WWHKD82I8UE","3WUVMVA7OBP2V5NP3991VE8MBDEZA7","","","null","","","","","","","","","",""
"501","","image-keyboard-response","91","250478","0.0-91.0","3IOEN3P9S856ZRO8WNOZCYIAA98615","A5WWHKD82I8UE","3WUVMVA7OBP2V5NP3991VE8MBDEZA7","","img/set1/S1.jpg","83","1","random","83","random,structured_load,structured_normal,structured_incentive","4,2,1,2,2,3","2,3,1,4","true","","",""
"null","","html-keyboard-response","92","250831","0.0-92.0","3IOEN3P9S856ZRO8WNOZCYIAA98615","A5WWHKD82I8UE","3WUVMVA7OBP2V5NP3991VE8MBDEZA7","","<img src=""img/set1/S1.jpg"" width=""540"" height = ""360"" style=""border:16px solid orange"">","null","","","","","","","","","",""
"null","","html-keyboard-response","93","251046","0.0-93.0","3IOEN3P9S856ZRO8WNOZCYIAA98615","A5WWHKD82I8UE","3WUVMVA7OBP2V5NP3991VE8MBDEZA7","","","null","","","","","","","","","",""
"478.19999998807907","","image-keyboard-response","94","251526","0.0-94.0","3IOEN3P9S856ZRO8WNOZCYIAA98615","A5WWHKD82I8UE","3WUVMVA7OBP2V5NP3991VE8MBDEZA7","","img/set1/S1.jpg","83","1","random","83","random,structured_load,structured_normal,structured_incentive","4,2,1,2,2,3","2,3,1,4","true","","",""
"null","","html-keyboard-response","95","251888","0.0-95.0","3IOEN3P9S856ZRO8WNOZCYIAA98615","A5WWHKD82I8UE","3WUVMVA7OBP2V5NP3991VE8MBDEZA7","","<img src=""img/set1/S1.jpg"" width=""540"" height = ""360"" style=""border:16px solid orange"">","null","","","","","","","","","",""
"null","","html-keyboard-response","96","252103","0.0-96.0","3IOEN3P9S856ZRO8WNOZCYIAA98615","A5WWHKD82I8UE","3WUVMVA7OBP2V5NP3991VE8MBDEZA7","","","null","","","","","","","","","",""
"501.60000002384186","","image-keyboard-response","97","252606","0.0-97.0","3IOEN3P9S856ZRO8WNOZCYIAA98615","A5WWHKD82I8UE","3WUVMVA7OBP2V5NP3991VE8MBDEZA7","","img/set1/S4.jpg","68","4","random","74","random,structured_load,structured_normal,structured_incentive","4,2,1,2,2,3","2,3,1,4","false","","",""
"null","","html-keyboard-response","98","252959","0.0-98.0","3IOEN3P9S856ZRO8WNOZCYIAA98615","A5WWHKD82I8UE","3WUVMVA7OBP2V5NP3991VE8MBDEZA7","","<img src=""img/set1/S4.jpg"" width=""540"" height = ""360"">","null","","","","","","","","","",""
"null","","html-keyboard-response","99","253161","0.0-99.0","3IOEN3P9S856ZRO8WNOZCYIAA98615","A5WWHKD82I8UE","3WUVMVA7OBP2V5NP3991VE8MBDEZA7","","","null","","","","","","","","","",""
"605.4000000059605","","image-keyboard-response","100","253767","0.0-100.0","3IOEN3P9S856ZRO8WNOZCYIAA98615","A5WWHKD82I8UE","3WUVMVA7OBP2V5NP3991VE8MBDEZA7","","img/set1/S2.jpg","68","2","random","68","random,structured_load,structured_normal,structured_incentive","4,2,1,2,2,3","2,3,1,4","true","","",""
"null","","html-keyboard-response","101","254133","0.0-101.0","3IOEN3P9S856ZRO8WNOZCYIAA98615","A5WWHKD82I8UE","3WUVMVA7OBP2V5NP3991VE8MBDEZA7","","<img src=""img/set1/S2.jpg"" width=""540"" height = ""360"" style=""border:16px solid orange"">","null","","","","","","","","","",""
"null","","html-keyboard-response","102","254336","0.0-102.0","3IOEN3P9S856ZRO8WNOZCYIAA98615","A5WWHKD82I8UE","3WUVMVA7OBP2V5NP3991VE8MBDEZA7","","","null","","","","","","","","","",""
"462.5","","image-keyboard-response","103","254799","0.0-103.0","3IOEN3P9S856ZRO8WNOZCYIAA98615","A5WWHKD82I8UE","3WUVMVA7OBP2V5NP3991VE8MBDEZA7","","img/set1/S2.jpg","68","2","random","68","random,structured_load,structured_normal,structured_incentive","4,2,1,2,2,3","2,3,1,4","true","","",""
"null","","html-keyboard-response","104","255162","0.0-104.0","3IOEN3P9S856ZRO8WNOZCYIAA98615","A5WWHKD82I8UE","3WUVMVA7OBP2V5NP3991VE8MBDEZA7","","<img src=""img/set1/S2.jpg"" width=""540"" height = ""360"" style=""border:16px solid orange"">","null","","","","","","","","","",""
"null","","html-keyboard-response","105","255363","0.0-105.0","3IOEN3P9S856ZRO8WNOZCYIAA98615","A5WWHKD82I8UE","3WUVMVA7OBP2V5NP3991VE8MBDEZA7","","","null","","","","","","","","","",""
"458.09999999403954","","image-keyboard-response","106","255822","0.0-106.0","3IOEN3P9S856ZRO8WNOZCYIAA98615","A5WWHKD82I8UE","3WUVMVA7OBP2V5NP3991VE8MBDEZA7","","img/set1/S2.jpg","68","2","random","68","random,structured_load,structured_normal,structured_incentive","4,2,1,2,2,3","2,3,1,4","true","","",""
"null","","html-keyboard-response","107","256174","0.0-107.0","3IOEN3P9S856ZRO8WNOZCYIAA98615","A5WWHKD82I8UE","3WUVMVA7OBP2V5NP3991VE8MBDEZA7","","<img src=""img/set1/S2.jpg"" width=""540"" height = ""360"" style=""border:16px solid orange"">","null","","","","","","","","","",""
"null","","html-keyboard-response","108","256390","0.0-108.0","3IOEN3P9S856ZRO8WNOZCYIAA98615","A5WWHKD82I8UE","3WUVMVA7OBP2V5NP3991VE8MBDEZA7","","","null","","","","","","","","","",""
"375.2999999821186","","image-keyboard-response","109","256766","0.0-109.0","3IOEN3P9S856ZRO8WNOZCYIAA98615","A5WWHKD82I8UE","3WUVMVA7OBP2V5NP3991VE8MBDEZA7","","img/set1/S2.jpg","68","2","random","68","random,structured_load,structured_normal,structured_incentive","4,2,1,2,2,3","2,3,1,4","true","","",""
"null","","html-keyboard-response","110","257121","0.0-110.0","3IOEN3P9S856ZRO8WNOZCYIAA98615","A5WWHKD82I8UE","3WUVMVA7OBP2V5NP3991VE8MBDEZA7","","<img src=""img/set1/S2.jpg"" width=""540"" height = ""360"" style=""border:16px solid orange"">","null","","","","","","","","","",""
"null","","html-keyboard-response","111","257325","0.0-111.0","3IOEN3P9S856ZRO8WNOZCYIAA98615","A5WWHKD82I8UE","3WUVMVA7OBP2V5NP3991VE8MBDEZA7","","","null","","","","","","","","","",""
"352.69999998807907","","image-keyboard-response","112","257678","0.0-112.0","3IOEN3P9S856ZRO8WNOZCYIAA98615","A5WWHKD82I8UE","3WUVMVA7OBP2V5NP3991VE8MBDEZA7","","img/set1/S2.jpg","68","2","random","68","random,structured_load,structured_normal,structured_incentive","4,2,1,2,2,3","2,3,1,4","true","","",""
"null","","html-keyboard-response","113","258040","0.0-113.0","3IOEN3P9S856ZRO8WNOZCYIAA98615","A5WWHKD82I8UE","3WUVMVA7OBP2V5NP3991VE8MBDEZA7","","<img src=""img/set1/S2.jpg"" width=""540"" height = ""360"" style=""border:16px solid orange"">","null","","","","","","","","","",""
"null","","html-keyboard-response","114","258241","0.0-114.0","3IOEN3P9S856ZRO8WNOZCYIAA98615","A5WWHKD82I8UE","3WUVMVA7OBP2V5NP3991VE8MBDEZA7","","","null","","","","","","","","","",""
"364.2000000178814","","image-keyboard-response","115","258606","0.0-115.0","3IOEN3P9S856ZRO8WNOZCYIAA98615","A5WWHKD82I8UE","3WUVMVA7OBP2V5NP3991VE8MBDEZA7","","img/set1/S2.jpg","68","2","random","68","random,structured_load,structured_normal,structured_incentive","4,2,1,2,2,3","2,3,1,4","true","","",""
"null","","html-keyboard-response","116","258968","0.0-116.0","3IOEN3P9S856ZRO8WNOZCYIAA98615","A5WWHKD82I8UE","3WUVMVA7OBP2V5NP3991VE8MBDEZA7","","<img src=""img/set1/S2.jpg"" width=""540"" height = ""360"" style=""border:16px solid orange"">","null","","","","","","","","","",""
"null","","html-keyboard-response","117","259183","0.0-117.0","3IOEN3P9S856ZRO8WNOZCYIAA98615","A5WWHKD82I8UE","3WUVMVA7OBP2V5NP3991VE8MBDEZA7","","","null","","","","","","","","","",""
"638.1000000238419","","image-keyboard-response","118","259822","0.0-118.0","3IOEN3P9S856ZRO8WNOZCYIAA98615","A5WWHKD82I8UE","3WUVMVA7OBP2V5NP3991VE8MBDEZA7","","img/set1/S1.jpg","83","1","random","83","random,structured_load,structured_normal,structured_incentive","4,2,1,2,2,3","2,3,1,4","true","","",""
"null","","html-keyboard-response","119","260174","0.0-119.0","3IOEN3P9S856ZRO8WNOZCYIAA98615","A5WWHKD82I8UE","3WUVMVA7OBP2V5NP3991VE8MBDEZA7","","<img src=""img/set1/S1.jpg"" width=""540"" height = ""360"" style=""border:16px solid orange"">","null","","","","","","","","","",""
"null","","html-keyboard-response","120","260377","0.0-120.0","3IOEN3P9S856ZRO8WNOZCYIAA98615","A5WWHKD82I8UE","3WUVMVA7OBP2V5NP3991VE8MBDEZA7","","","null","","","","","","","","","",""
"644.5","","image-keyboard-response","121","261022","0.0-121.0","3IOEN3P9S856ZRO8WNOZCYIAA98615","A5WWHKD82I8UE","3WUVMVA7OBP2V5NP3991VE8MBDEZA7","","img/set1/S2.jpg","68","2","random","68","random,structured_load,structured_normal,structured_incentive","4,2,1,2,2,3","2,3,1,4","true","","",""
"null","","html-keyboard-response","122","261386","0.0-122.0","3IOEN3P9S856ZRO8WNOZCYIAA98615","A5WWHKD82I8UE","3WUVMVA7OBP2V5NP3991VE8MBDEZA7","","<img src=""img/set1/S2.jpg"" width=""540"" height = ""360"" style=""border:16px solid orange"">","null","","","","","","","","","",""
"null","","html-keyboard-response","123","261588","0.0-123.0","3IOEN3P9S856ZRO8WNOZCYIAA98615","A5WWHKD82I8UE","3WUVMVA7OBP2V5NP3991VE8MBDEZA7","","","null","","","","","","","","","",""
"456","","image-keyboard-response","124","262046","0.0-124.0","3IOEN3P9S856ZRO8WNOZCYIAA98615","A5WWHKD82I8UE","3WUVMVA7OBP2V5NP3991VE8MBDEZA7","","img/set1/S2.jpg","68","2","random","68","random,structured_load,structured_normal,structured_incentive","4,2,1,2,2,3","2,3,1,4","true","","",""
"null","","html-keyboard-response","125","262410","0.0-125.0","3IOEN3P9S856ZRO8WNOZCYIAA98615","A5WWHKD82I8UE","3WUVMVA7OBP2V5NP3991VE8MBDEZA7","","<img src=""img/set1/S2.jpg"" width=""540"" height = ""360"" style=""border:16px solid orange"">","null","","","","","","","","","",""
"null","","html-keyboard-response","126","262612","0.0-126.0","3IOEN3P9S856ZRO8WNOZCYIAA98615","A5WWHKD82I8UE","3WUVMVA7OBP2V5NP3991VE8MBDEZA7","","","null","","","","","","","","","",""
"905.4000000059605","","image-keyboard-response","127","263518","0.0-127.0","3IOEN3P9S856ZRO8WNOZCYIAA98615","A5WWHKD82I8UE","3WUVMVA7OBP2V5NP3991VE8MBDEZA7","","img/set1/S3.jpg","74","3","random","72","random,structured_load,structured_normal,structured_incentive","4,2,1,2,2,3","2,3,1,4","false","","",""
"null","","html-keyboard-response","128","263881","0.0-128.0","3IOEN3P9S856ZRO8WNOZCYIAA98615","A5WWHKD82I8UE","3WUVMVA7OBP2V5NP3991VE8MBDEZA7","","<img src=""img/set1/S3.jpg"" width=""540"" height = ""360"">","null","","","","","","","","","",""
"null","","html-keyboard-response","129","264096","0.0-129.0","3IOEN3P9S856ZRO8WNOZCYIAA98615","A5WWHKD82I8UE","3WUVMVA7OBP2V5NP3991VE8MBDEZA7","","","null","","","","","","","","","",""
"788.4000000059605","","image-keyboard-response","130","264885","0.0-130.0","3IOEN3P9S856ZRO8WNOZCYIAA98615","A5WWHKD82I8UE","3WUVMVA7OBP2V5NP3991VE8MBDEZA7","","img/set1/S1.jpg","83","1","random","83","random,structured_load,structured_normal,structured_incentive","4,2,1,2,2,3","2,3,1,4","true","","",""
"null","","html-keyboard-response","131","265243","0.0-131.0","3IOEN3P9S856ZRO8WNOZCYIAA98615","A5WWHKD82I8UE","3WUVMVA7OBP2V5NP3991VE8MBDEZA7","","<img src=""img/set1/S1.jpg"" width=""540"" height = ""360"" style=""border:16px solid orange"">","null","","","","","","","","","",""
"null","","html-keyboard-response","132","265445","0.0-132.0","3IOEN3P9S856ZRO8WNOZCYIAA98615","A5WWHKD82I8UE","3WUVMVA7OBP2V5NP3991VE8MBDEZA7","","","null","","","","","","","","","",""
"767.2999999821186","","image-keyboard-response","133","266213","0.0-133.0","3IOEN3P9S856ZRO8WNOZCYIAA98615","A5WWHKD82I8UE","3WUVMVA7OBP2V5NP3991VE8MBDEZA7","","img/set1/S4.jpg","72","4","random","74","random,structured_load,structured_normal,structured_incentive","4,2,1,2,2,3","2,3,1,4","false","","",""
"null","","html-keyboard-response","134","266578","0.0-134.0","3IOEN3P9S856ZRO8WNOZCYIAA98615","A5WWHKD82I8UE","3WUVMVA7OBP2V5NP3991VE8MBDEZA7","","<img src=""img/set1/S4.jpg"" width=""540"" height = ""360"">","null","","","","","","","","","",""
"null","","html-keyboard-response","135","266779","0.0-135.0","3IOEN3P9S856ZRO8WNOZCYIAA98615","A5WWHKD82I8UE","3WUVMVA7OBP2V5NP3991VE8MBDEZA7","","","null","","","","","","","","","",""
"881.4000000059605","","image-keyboard-response","136","267662","0.0-136.0","3IOEN3P9S856ZRO8WNOZCYIAA98615","A5WWHKD82I8UE","3WUVMVA7OBP2V5NP3991VE8MBDEZA7","","img/set1/S1.jpg","83","1","random","83","random,structured_load,structured_normal,structured_incentive","4,2,1,2,2,3","2,3,1,4","true","","",""
"null","","html-keyboard-response","137","268023","0.0-137.0","3IOEN3P9S856ZRO8WNOZCYIAA98615","A5WWHKD82I8UE","3WUVMVA7OBP2V5NP3991VE8MBDEZA7","","<img src=""img/set1/S1.jpg"" width=""540"" height = ""360"" style=""border:16px solid orange"">","null","","","","","","","","","",""
"null","","html-keyboard-response","138","268238","0.0-138.0","3IOEN3P9S856ZRO8WNOZCYIAA98615","A5WWHKD82I8UE","3WUVMVA7OBP2V5NP3991VE8MBDEZA7","","","null","","","","","","","","","",""
"447.09999999403954","","image-keyboard-response","139","268686","0.0-139.0","3IOEN3P9S856ZRO8WNOZCYIAA98615","A5WWHKD82I8UE","3WUVMVA7OBP2V5NP3991VE8MBDEZA7","","img/set1/S1.jpg","83","1","random","83","random,structured_load,structured_normal,structured_incentive","4,2,1,2,2,3","2,3,1,4","true","","",""
"null","","html-keyboard-response","140","269043","0.0-140.0","3IOEN3P9S856ZRO8WNOZCYIAA98615","A5WWHKD82I8UE","3WUVMVA7OBP2V5NP3991VE8MBDEZA7","","<img src=""img/set1/S1.jpg"" width=""540"" height = ""360"" style=""border:16px solid orange"">","null","","","","","","","","","",""
"null","","html-keyboard-response","141","269244","0.0-141.0","3IOEN3P9S856ZRO8WNOZCYIAA98615","A5WWHKD82I8UE","3WUVMVA7OBP2V5NP3991VE8MBDEZA7","","","null","","","","","","","","","",""
"736.6999999880791","","image-keyboard-response","142","269982","0.0-142.0","3IOEN3P9S856ZRO8WNOZCYIAA98615","A5WWHKD82I8UE","3WUVMVA7OBP2V5NP3991VE8MBDEZA7","","img/set1/S4.jpg","74","4","random","74","random,structured_load,structured_normal,structured_incentive","4,2,1,2,2,3","2,3,1,4","true","","",""
"null","","html-keyboard-response","143","270333","0.0-143.0","3IOEN3P9S856ZRO8WNOZCYIAA98615","A5WWHKD82I8UE","3WUVMVA7OBP2V5NP3991VE8MBDEZA7","","<img src=""img/set1/S4.jpg"" width=""540"" height = ""360"" style=""border:16px solid orange"">","null","","","","","","","","","",""
"null","","html-keyboard-response","144","270549","0.0-144.0","3IOEN3P9S856ZRO8WNOZCYIAA98615","A5WWHKD82I8UE","3WUVMVA7OBP2V5NP3991VE8MBDEZA7","","","null","","","","","","","","","",""
"656.2999999821186","","image-keyboard-response","145","271206","0.0-145.0","3IOEN3P9S856ZRO8WNOZCYIAA98615","A5WWHKD82I8UE","3WUVMVA7OBP2V5NP3991VE8MBDEZA7","","img/set1/S1.jpg","83","1","random","83","random,structured_load,structured_normal,structured_incentive","4,2,1,2,2,3","2,3,1,4","true","","",""
"null","","html-keyboard-response","146","271559","0.0-146.0","3IOEN3P9S856ZRO8WNOZCYIAA98615","A5WWHKD82I8UE","3WUVMVA7OBP2V5NP3991VE8MBDEZA7","","<img src=""img/set1/S1.jpg"" width=""540"" height = ""360"" style=""border:16px solid orange"">","null","","","","","","","","","",""
"null","","html-keyboard-response","147","271762","0.0-147.0","3IOEN3P9S856ZRO8WNOZCYIAA98615","A5WWHKD82I8UE","3WUVMVA7OBP2V5NP3991VE8MBDEZA7","","","null","","","","","","","","","",""
"587.8000000119209","","image-keyboard-response","148","272351","0.0-148.0","3IOEN3P9S856ZRO8WNOZCYIAA98615","A5WWHKD82I8UE","3WUVMVA7OBP2V5NP3991VE8MBDEZA7","","img/set1/S2.jpg","68","2","random","68","random,structured_load,structured_normal,structured_incentive","4,2,1,2,2,3","2,3,1,4","true","","",""
"null","","html-keyboard-response","149","272704","0.0-149.0","3IOEN3P9S856ZRO8WNOZCYIAA98615","A5WWHKD82I8UE","3WUVMVA7OBP2V5NP3991VE8MBDEZA7","","<img src=""img/set1/S2.jpg"" width=""540"" height = ""360"" style=""border:16px solid orange"">","null","","","","","","","","","",""
"null","","html-keyboard-response","150","272908","0.0-150.0","3IOEN3P9S856ZRO8WNOZCYIAA98615","A5WWHKD82I8UE","3WUVMVA7OBP2V5NP3991VE8MBDEZA7","","","null","","","","","","","","","",""
"833.9000000059605","","image-keyboard-response","151","273743","0.0-151.0","3IOEN3P9S856ZRO8WNOZCYIAA98615","A5WWHKD82I8UE","3WUVMVA7OBP2V5NP3991VE8MBDEZA7","","img/set1/S3.jpg","72","3","random","72","random,structured_load,structured_normal,structured_incentive","4,2,1,2,2,3","2,3,1,4","true","","",""
"null","","html-keyboard-response","152","274103","0.0-152.0","3IOEN3P9S856ZRO8WNOZCYIAA98615","A5WWHKD82I8UE","3WUVMVA7OBP2V5NP3991VE8MBDEZA7","","<img src=""img/set1/S3.jpg"" width=""540"" height = ""360"" style=""border:16px solid orange"">","null","","","","","","","","","",""
"null","","html-keyboard-response","153","274305","0.0-153.0","3IOEN3P9S856ZRO8WNOZCYIAA98615","A5WWHKD82I8UE","3WUVMVA7OBP2V5NP3991VE8MBDEZA7","","","null","","","","","","","","","",""
"867.3000000119209","","image-keyboard-response","154","275174","0.0-154.0","3IOEN3P9S856ZRO8WNOZCYIAA98615","A5WWHKD82I8UE","3WUVMVA7OBP2V5NP3991VE8MBDEZA7","","img/set1/S4.jpg","74","4","random","74","random,structured_load,structured_normal,structured_incentive","4,2,1,2,2,3","2,3,1,4","true","","",""
"null","","html-keyboard-response","155","275531","0.0-155.0","3IOEN3P9S856ZRO8WNOZCYIAA98615","A5WWHKD82I8UE","3WUVMVA7OBP2V5NP3991VE8MBDEZA7","","<img src=""img/set1/S4.jpg"" width=""540"" height = ""360"" style=""border:16px solid orange"">","null","","","","","","","","","",""
"null","","html-keyboard-response","156","275732","0.0-156.0","3IOEN3P9S856ZRO8WNOZCYIAA98615","A5WWHKD82I8UE","3WUVMVA7OBP2V5NP3991VE8MBDEZA7","","","null","","","","","","","","","",""
"1080.5999999940395","","image-keyboard-response","157","276814","0.0-157.0","3IOEN3P9S856ZRO8WNOZCYIAA98615","A5WWHKD82I8UE","3WUVMVA7OBP2V5NP3991VE8MBDEZA7","","img/set1/S2.jpg","68","2","random","68","random,structured_load,structured_normal,structured_incentive","4,2,1,2,2,3","2,3,1,4","true","","",""
"null","","html-keyboard-response","158","277175","0.0-158.0","3IOEN3P9S856ZRO8WNOZCYIAA98615","A5WWHKD82I8UE","3WUVMVA7OBP2V5NP3991VE8MBDEZA7","","<img src=""img/set1/S2.jpg"" width=""540"" height = ""360"" style=""border:16px solid orange"">","null","","","","","","","","","",""
"null","","html-keyboard-response","159","277377","0.0-159.0","3IOEN3P9S856ZRO8WNOZCYIAA98615","A5WWHKD82I8UE","3WUVMVA7OBP2V5NP3991VE8MBDEZA7","","","null","","","","","","","","","",""
"636.5","","image-keyboard-response","160","278014","0.0-160.0","3IOEN3P9S856ZRO8WNOZCYIAA98615","A5WWHKD82I8UE","3WUVMVA7OBP2V5NP3991VE8MBDEZA7","","img/set1/S1.jpg","83","1","random","83","random,structured_load,structured_normal,structured_incentive","4,2,1,2,2,3","2,3,1,4","true","","",""
"null","","html-keyboard-response","161","278369","0.0-161.0","3IOEN3P9S856ZRO8WNOZCYIAA98615","A5WWHKD82I8UE","3WUVMVA7OBP2V5NP3991VE8MBDEZA7","","<img src=""img/set1/S1.jpg"" width=""540"" height = ""360"" style=""border:16px solid orange"">","null","","","","","","","","","",""
"null","","html-keyboard-response","162","278584","0.0-162.0","3IOEN3P9S856ZRO8WNOZCYIAA98615","A5WWHKD82I8UE","3WUVMVA7OBP2V5NP3991VE8MBDEZA7","","","null","","","","","","","","","",""
"468.40000000596046","","image-keyboard-response","163","279053","0.0-163.0","3IOEN3P9S856ZRO8WNOZCYIAA98615","A5WWHKD82I8UE","3WUVMVA7OBP2V5NP3991VE8MBDEZA7","","img/set1/S1.jpg","83","1","random","83","random,structured_load,structured_normal,structured_incentive","4,2,1,2,2,3","2,3,1,4","true","","",""
"null","","html-keyboard-response","164","279413","0.0-164.0","3IOEN3P9S856ZRO8WNOZCYIAA98615","A5WWHKD82I8UE","3WUVMVA7OBP2V5NP3991VE8MBDEZA7","","<img src=""img/set1/S1.jpg"" width=""540"" height = ""360"" style=""border:16px solid orange"">","null","","","","","","","","","",""
"null","","html-keyboard-response","165","279616","0.0-165.0","3IOEN3P9S856ZRO8WNOZCYIAA98615","A5WWHKD82I8UE","3WUVMVA7OBP2V5NP3991VE8MBDEZA7","","","null","","","","","","","","","",""
"924.4000000059605","","image-keyboard-response","166","280541","0.0-166.0","3IOEN3P9S856ZRO8WNOZCYIAA98615","A5WWHKD82I8UE","3WUVMVA7OBP2V5NP3991VE8MBDEZA7","","img/set1/S3.jpg","74","3","random","72","random,structured_load,structured_normal,structured_incentive","4,2,1,2,2,3","2,3,1,4","false","","",""
"null","","html-keyboard-response","167","280893","0.0-167.0","3IOEN3P9S856ZRO8WNOZCYIAA98615","A5WWHKD82I8UE","3WUVMVA7OBP2V5NP3991VE8MBDEZA7","","<img src=""img/set1/S3.jpg"" width=""540"" height = ""360"">","null","","","","","","","","","",""
"null","","html-keyboard-response","168","281094","0.0-168.0","3IOEN3P9S856ZRO8WNOZCYIAA98615","A5WWHKD82I8UE","3WUVMVA7OBP2V5NP3991VE8MBDEZA7","","","null","","","","","","","","","",""
"614.6000000238419","","image-keyboard-response","169","281709","0.0-169.0","3IOEN3P9S856ZRO8WNOZCYIAA98615","A5WWHKD82I8UE","3WUVMVA7OBP2V5NP3991VE8MBDEZA7","","img/set1/S3.jpg","72","3","random","72","random,structured_load,structured_normal,structured_incentive","4,2,1,2,2,3","2,3,1,4","true","","",""
"null","","html-keyboard-response","170","282070","0.0-170.0","3IOEN3P9S856ZRO8WNOZCYIAA98615","A5WWHKD82I8UE","3WUVMVA7OBP2V5NP3991VE8MBDEZA7","","<img src=""img/set1/S3.jpg"" width=""540"" height = ""360"" style=""border:16px solid orange"">","null","","","","","","","","","",""
"null","","html-keyboard-response","171","282286","0.0-171.0","3IOEN3P9S856ZRO8WNOZCYIAA98615","A5WWHKD82I8UE","3WUVMVA7OBP2V5NP3991VE8MBDEZA7","","","null","","","","","","","","","",""
"686.8999999761581","","image-keyboard-response","172","282975","0.0-172.0","3IOEN3P9S856ZRO8WNOZCYIAA98615","A5WWHKD82I8UE","3WUVMVA7OBP2V5NP3991VE8MBDEZA7","","img/set1/S1.jpg","83","1","random","83","random,structured_load,structured_normal,structured_incentive","4,2,1,2,2,3","2,3,1,4","true","","",""
"null","","html-keyboard-response","173","283340","0.0-173.0","3IOEN3P9S856ZRO8WNOZCYIAA98615","A5WWHKD82I8UE","3WUVMVA7OBP2V5NP3991VE8MBDEZA7","","<img src=""img/set1/S1.jpg"" width=""540"" height = ""360"" style=""border:16px solid orange"">","null","","","","","","","","","",""
"null","","html-keyboard-response","174","283556","0.0-174.0","3IOEN3P9S856ZRO8WNOZCYIAA98615","A5WWHKD82I8UE","3WUVMVA7OBP2V5NP3991VE8MBDEZA7","","","null","","","","","","","","","",""
"617.1999999880791","","image-keyboard-response","175","284174","0.0-175.0","3IOEN3P9S856ZRO8WNOZCYIAA98615","A5WWHKD82I8UE","3WUVMVA7OBP2V5NP3991VE8MBDEZA7","","img/set1/S4.jpg","74","4","random","74","random,structured_load,structured_normal,structured_incentive","4,2,1,2,2,3","2,3,1,4","true","","",""
"null","","html-keyboard-response","176","284534","0.0-176.0","3IOEN3P9S856ZRO8WNOZCYIAA98615","A5WWHKD82I8UE","3WUVMVA7OBP2V5NP3991VE8MBDEZA7","","<img src=""img/set1/S4.jpg"" width=""540"" height = ""360"" style=""border:16px solid orange"">","null","","","","","","","","","",""
"null","","html-keyboard-response","177","284750","0.0-177.0","3IOEN3P9S856ZRO8WNOZCYIAA98615","A5WWHKD82I8UE","3WUVMVA7OBP2V5NP3991VE8MBDEZA7","","","null","","","","","","","","","",""
"630.3000000119209","","image-keyboard-response","178","285382","0.0-178.0","3IOEN3P9S856ZRO8WNOZCYIAA98615","A5WWHKD82I8UE","3WUVMVA7OBP2V5NP3991VE8MBDEZA7","","img/set1/S3.jpg","72","3","random","72","random,structured_load,structured_normal,structured_incentive","4,2,1,2,2,3","2,3,1,4","true","","",""
"null","","html-keyboard-response","179","285746","0.0-179.0","3IOEN3P9S856ZRO8WNOZCYIAA98615","A5WWHKD82I8UE","3WUVMVA7OBP2V5NP3991VE8MBDEZA7","","<img src=""img/set1/S3.jpg"" width=""540"" height = ""360"" style=""border:16px solid orange"">","null","","","","","","","","","",""
"null","","html-keyboard-response","180","285962","0.0-180.0","3IOEN3P9S856ZRO8WNOZCYIAA98615","A5WWHKD82I8UE","3WUVMVA7OBP2V5NP3991VE8MBDEZA7","","","null","","","","","","","","","",""
"578.3000000119209","","image-keyboard-response","181","286541","0.0-181.0","3IOEN3P9S856ZRO8WNOZCYIAA98615","A5WWHKD82I8UE","3WUVMVA7OBP2V5NP3991VE8MBDEZA7","","img/set1/S4.jpg","74","4","random","74","random,structured_load,structured_normal,structured_incentive","4,2,1,2,2,3","2,3,1,4","true","","",""
"null","","html-keyboard-response","182","286896","0.0-182.0","3IOEN3P9S856ZRO8WNOZCYIAA98615","A5WWHKD82I8UE","3WUVMVA7OBP2V5NP3991VE8MBDEZA7","","<img src=""img/set1/S4.jpg"" width=""540"" height = ""360"" style=""border:16px solid orange"">","null","","","","","","","","","",""
"null","","html-keyboard-response","183","287111","0.0-183.0","3IOEN3P9S856ZRO8WNOZCYIAA98615","A5WWHKD82I8UE","3WUVMVA7OBP2V5NP3991VE8MBDEZA7","","","null","","","","","","","","","",""
"725.3000000119209","","image-keyboard-response","184","287838","0.0-184.0","3IOEN3P9S856ZRO8WNOZCYIAA98615","A5WWHKD82I8UE","3WUVMVA7OBP2V5NP3991VE8MBDEZA7","","img/set1/S1.jpg","83","1","random","83","random,structured_load,structured_normal,structured_incentive","4,2,1,2,2,3","2,3,1,4","true","","",""
"null","","html-keyboard-response","185","288199","0.0-185.0","3IOEN3P9S856ZRO8WNOZCYIAA98615","A5WWHKD82I8UE","3WUVMVA7OBP2V5NP3991VE8MBDEZA7","","<img src=""img/set1/S1.jpg"" width=""540"" height = ""360"" style=""border:16px solid orange"">","null","","","","","","","","","",""
"null","","html-keyboard-response","186","288400","0.0-186.0","3IOEN3P9S856ZRO8WNOZCYIAA98615","A5WWHKD82I8UE","3WUVMVA7OBP2V5NP3991VE8MBDEZA7","","","null","","","","","","","","","",""
"445","","image-keyboard-response","187","288846","0.0-187.0","3IOEN3P9S856ZRO8WNOZCYIAA98615","A5WWHKD82I8UE","3WUVMVA7OBP2V5NP3991VE8MBDEZA7","","img/set1/S1.jpg","83","1","random","83","random,structured_load,structured_normal,structured_incentive","4,2,1,2,2,3","2,3,1,4","true","","",""
"null","","html-keyboard-response","188","289206","0.0-188.0","3IOEN3P9S856ZRO8WNOZCYIAA98615","A5WWHKD82I8UE","3WUVMVA7OBP2V5NP3991VE8MBDEZA7","","<img src=""img/set1/S1.jpg"" width=""540"" height = ""360"" style=""border:16px solid orange"">","null","","","","","","","","","",""
"null","","html-keyboard-response","189","289407","0.0-189.0","3IOEN3P9S856ZRO8WNOZCYIAA98615","A5WWHKD82I8UE","3WUVMVA7OBP2V5NP3991VE8MBDEZA7","","","null","","","","","","","","","",""
"343","","image-keyboard-response","190","289751","0.0-190.0","3IOEN3P9S856ZRO8WNOZCYIAA98615","A5WWHKD82I8UE","3WUVMVA7OBP2V5NP3991VE8MBDEZA7","","img/set1/S1.jpg","83","1","random","83","random,structured_load,structured_normal,structured_incentive","4,2,1,2,2,3","2,3,1,4","true","","",""
"null","","html-keyboard-response","191","290104","0.0-191.0","3IOEN3P9S856ZRO8WNOZCYIAA98615","A5WWHKD82I8UE","3WUVMVA7OBP2V5NP3991VE8MBDEZA7","","<img src=""img/set1/S1.jpg"" width=""540"" height = ""360"" style=""border:16px solid orange"">","null","","","","","","","","","",""
"null","","html-keyboard-response","192","290309","0.0-192.0","3IOEN3P9S856ZRO8WNOZCYIAA98615","A5WWHKD82I8UE","3WUVMVA7OBP2V5NP3991VE8MBDEZA7","","","null","","","","","","","","","",""
"1184.300000011921","","image-keyboard-response","193","291494","0.0-193.0","3IOEN3P9S856ZRO8WNOZCYIAA98615","A5WWHKD82I8UE","3WUVMVA7OBP2V5NP3991VE8MBDEZA7","","img/set1/S4.jpg","72","4","random","74","random,structured_load,structured_normal,structured_incentive","4,2,1,2,2,3","2,3,1,4","false","","",""
"null","","html-keyboard-response","194","291852","0.0-194.0","3IOEN3P9S856ZRO8WNOZCYIAA98615","A5WWHKD82I8UE","3WUVMVA7OBP2V5NP3991VE8MBDEZA7","","<img src=""img/set1/S4.jpg"" width=""540"" height = ""360"">","null","","","","","","","","","",""
"null","","html-keyboard-response","195","292054","0.0-195.0","3IOEN3P9S856ZRO8WNOZCYIAA98615","A5WWHKD82I8UE","3WUVMVA7OBP2V5NP3991VE8MBDEZA7","","","null","","","","","","","","","",""
"711.7000000178814","","image-keyboard-response","196","292767","0.0-196.0","3IOEN3P9S856ZRO8WNOZCYIAA98615","A5WWHKD82I8UE","3WUVMVA7OBP2V5NP3991VE8MBDEZA7","","img/set1/S4.jpg","74","4","random","74","random,structured_load,structured_normal,structured_incentive","4,2,1,2,2,3","2,3,1,4","true","","",""
"null","","html-keyboard-response","197","293122","0.0-197.0","3IOEN3P9S856ZRO8WNOZCYIAA98615","A5WWHKD82I8UE","3WUVMVA7OBP2V5NP3991VE8MBDEZA7","","<img src=""img/set1/S4.jpg"" width=""540"" height = ""360"" style=""border:16px solid orange"">","null","","","","","","","","","",""
"null","","html-keyboard-response","198","293324","0.0-198.0","3IOEN3P9S856ZRO8WNOZCYIAA98615","A5WWHKD82I8UE","3WUVMVA7OBP2V5NP3991VE8MBDEZA7","","","null","","","","","","","","","",""
"369.59999999403954","","image-keyboard-response","199","293695","0.0-199.0","3IOEN3P9S856ZRO8WNOZCYIAA98615","A5WWHKD82I8UE","3WUVMVA7OBP2V5NP3991VE8MBDEZA7","","img/set1/S4.jpg","74","4","random","74","random,structured_load,structured_normal,structured_incentive","4,2,1,2,2,3","2,3,1,4","true","","",""
"null","","html-keyboard-response","200","294050","0.0-200.0","3IOEN3P9S856ZRO8WNOZCYIAA98615","A5WWHKD82I8UE","3WUVMVA7OBP2V5NP3991VE8MBDEZA7","","<img src=""img/set1/S4.jpg"" width=""540"" height = ""360"" style=""border:16px solid orange"">","null","","","","","","","","","",""
"null","","html-keyboard-response","201","294266","0.0-201.0","3IOEN3P9S856ZRO8WNOZCYIAA98615","A5WWHKD82I8UE","3WUVMVA7OBP2V5NP3991VE8MBDEZA7","","","null","","","","","","","","","",""
"346.2000000178814","","image-keyboard-response","202","294614","0.0-202.0","3IOEN3P9S856ZRO8WNOZCYIAA98615","A5WWHKD82I8UE","3WUVMVA7OBP2V5NP3991VE8MBDEZA7","","img/set1/S4.jpg","74","4","random","74","random,structured_load,structured_normal,structured_incentive","4,2,1,2,2,3","2,3,1,4","true","","",""
"null","","html-keyboard-response","203","294979","0.0-203.0","3IOEN3P9S856ZRO8WNOZCYIAA98615","A5WWHKD82I8UE","3WUVMVA7OBP2V5NP3991VE8MBDEZA7","","<img src=""img/set1/S4.jpg"" width=""540"" height = ""360"" style=""border:16px solid orange"">","null","","","","","","","","","",""
"null","","html-keyboard-response","204","295194","0.0-204.0","3IOEN3P9S856ZRO8WNOZCYIAA98615","A5WWHKD82I8UE","3WUVMVA7OBP2V5NP3991VE8MBDEZA7","","","null","","","","","","","","","",""
"339","","image-keyboard-response","205","295534","0.0-205.0","3IOEN3P9S856ZRO8WNOZCYIAA98615","A5WWHKD82I8UE","3WUVMVA7OBP2V5NP3991VE8MBDEZA7","","img/set1/S4.jpg","74","4","random","74","random,structured_load,structured_normal,structured_incentive","4,2,1,2,2,3","2,3,1,4","true","","",""
"null","","html-keyboard-response","206","295890","0.0-206.0","3IOEN3P9S856ZRO8WNOZCYIAA98615","A5WWHKD82I8UE","3WUVMVA7OBP2V5NP3991VE8MBDEZA7","","<img src=""img/set1/S4.jpg"" width=""540"" height = ""360"" style=""border:16px solid orange"">","null","","","","","","","","","",""
"null","","html-keyboard-response","207","296092","0.0-207.0","3IOEN3P9S856ZRO8WNOZCYIAA98615","A5WWHKD82I8UE","3WUVMVA7OBP2V5NP3991VE8MBDEZA7","","","null","","","","","","","","","",""
"344.7999999821186","","image-keyboard-response","208","296438","0.0-208.0","3IOEN3P9S856ZRO8WNOZCYIAA98615","A5WWHKD82I8UE","3WUVMVA7OBP2V5NP3991VE8MBDEZA7","","img/set1/S4.jpg","74","4","random","74","random,structured_load,structured_normal,structured_incentive","4,2,1,2,2,3","2,3,1,4","true","","",""
"null","","html-keyboard-response","209","296790","0.0-209.0","3IOEN3P9S856ZRO8WNOZCYIAA98615","A5WWHKD82I8UE","3WUVMVA7OBP2V5NP3991VE8MBDEZA7","","<img src=""img/set1/S4.jpg"" width=""540"" height = ""360"" style=""border:16px solid orange"">","null","","","","","","","","","",""
"null","","html-keyboard-response","210","297008","0.0-210.0","3IOEN3P9S856ZRO8WNOZCYIAA98615","A5WWHKD82I8UE","3WUVMVA7OBP2V5NP3991VE8MBDEZA7","","","null","","","","","","","","","",""
"861.0999999940395","","image-keyboard-response","211","297870","0.0-211.0","3IOEN3P9S856ZRO8WNOZCYIAA98615","A5WWHKD82I8UE","3WUVMVA7OBP2V5NP3991VE8MBDEZA7","","img/set1/S3.jpg","72","3","random","72","random,structured_load,structured_normal,structured_incentive","4,2,1,2,2,3","2,3,1,4","true","","",""
"null","","html-keyboard-response","212","298223","0.0-212.0","3IOEN3P9S856ZRO8WNOZCYIAA98615","A5WWHKD82I8UE","3WUVMVA7OBP2V5NP3991VE8MBDEZA7","","<img src=""img/set1/S3.jpg"" width=""540"" height = ""360"" style=""border:16px solid orange"">","null","","","","","","","","","",""
"null","","html-keyboard-response","213","298425","0.0-213.0","3IOEN3P9S856ZRO8WNOZCYIAA98615","A5WWHKD82I8UE","3WUVMVA7OBP2V5NP3991VE8MBDEZA7","","","null","","","","","","","","","",""
"531.8000000119209","","image-keyboard-response","214","298957","0.0-214.0","3IOEN3P9S856ZRO8WNOZCYIAA98615","A5WWHKD82I8UE","3WUVMVA7OBP2V5NP3991VE8MBDEZA7","","img/set1/S4.jpg","74","4","random","74","random,structured_load,structured_normal,structured_incentive","4,2,1,2,2,3","2,3,1,4","true","","",""
"null","","html-keyboard-response","215","299310","0.0-215.0","3IOEN3P9S856ZRO8WNOZCYIAA98615","A5WWHKD82I8UE","3WUVMVA7OBP2V5NP3991VE8MBDEZA7","","<img src=""img/set1/S4.jpg"" width=""540"" height = ""360"" style=""border:16px solid orange"">","null","","","","","","","","","",""
"null","","html-keyboard-response","216","299512","0.0-216.0","3IOEN3P9S856ZRO8WNOZCYIAA98615","A5WWHKD82I8UE","3WUVMVA7OBP2V5NP3991VE8MBDEZA7","","","null","","","","","","","","","",""
"652.9000000059605","","image-keyboard-response","217","300166","0.0-217.0","3IOEN3P9S856ZRO8WNOZCYIAA98615","A5WWHKD82I8UE","3WUVMVA7OBP2V5NP3991VE8MBDEZA7","","img/set1/S2.jpg","68","2","random","68","random,structured_load,structured_normal,structured_incentive","4,2,1,2,2,3","2,3,1,4","true","","",""
"null","","html-keyboard-response","218","300521","0.0-218.0","3IOEN3P9S856ZRO8WNOZCYIAA98615","A5WWHKD82I8UE","3WUVMVA7OBP2V5NP3991VE8MBDEZA7","","<img src=""img/set1/S2.jpg"" width=""540"" height = ""360"" style=""border:16px solid orange"">","null","","","","","","","","","",""
"null","","html-keyboard-response","219","300737","0.0-219.0","3IOEN3P9S856ZRO8WNOZCYIAA98615","A5WWHKD82I8UE","3WUVMVA7OBP2V5NP3991VE8MBDEZA7","","","null","","","","","","","","","",""
"324.40000000596046","","image-keyboard-response","220","301062","0.0-220.0","3IOEN3P9S856ZRO8WNOZCYIAA98615","A5WWHKD82I8UE","3WUVMVA7OBP2V5NP3991VE8MBDEZA7","","img/set1/S2.jpg","68","2","random","68","random,structured_load,structured_normal,structured_incentive","4,2,1,2,2,3","2,3,1,4","true","","",""
"null","","html-keyboard-response","221","301419","0.0-221.0","3IOEN3P9S856ZRO8WNOZCYIAA98615","A5WWHKD82I8UE","3WUVMVA7OBP2V5NP3991VE8MBDEZA7","","<img src=""img/set1/S2.jpg"" width=""540"" height = ""360"" style=""border:16px solid orange"">","null","","","","","","","","","",""
"null","","html-keyboard-response","222","301619","0.0-222.0","3IOEN3P9S856ZRO8WNOZCYIAA98615","A5WWHKD82I8UE","3WUVMVA7OBP2V5NP3991VE8MBDEZA7","","","null","","","","","","","","","",""
"929.5","","image-keyboard-response","223","302550","0.0-223.0","3IOEN3P9S856ZRO8WNOZCYIAA98615","A5WWHKD82I8UE","3WUVMVA7OBP2V5NP3991VE8MBDEZA7","","img/set1/S4.jpg","74","4","random","74","random,structured_load,structured_normal,structured_incentive","4,2,1,2,2,3","2,3,1,4","true","","",""
"null","","html-keyboard-response","224","302905","0.0-224.0","3IOEN3P9S856ZRO8WNOZCYIAA98615","A5WWHKD82I8UE","3WUVMVA7OBP2V5NP3991VE8MBDEZA7","","<img src=""img/set1/S4.jpg"" width=""540"" height = ""360"" style=""border:16px solid orange"">","null","","","","","","","","","",""
"null","","html-keyboard-response","225","303120","0.0-225.0","3IOEN3P9S856ZRO8WNOZCYIAA98615","A5WWHKD82I8UE","3WUVMVA7OBP2V5NP3991VE8MBDEZA7","","","null","","","","","","","","","",""
"517.5","","image-keyboard-response","226","303638","0.0-226.0","3IOEN3P9S856ZRO8WNOZCYIAA98615","A5WWHKD82I8UE","3WUVMVA7OBP2V5NP3991VE8MBDEZA7","","img/set1/S3.jpg","72","3","random","72","random,structured_load,structured_normal,structured_incentive","4,2,1,2,2,3","2,3,1,4","true","","",""
"null","","html-keyboard-response","227","303990","0.0-227.0","3IOEN3P9S856ZRO8WNOZCYIAA98615","A5WWHKD82I8UE","3WUVMVA7OBP2V5NP3991VE8MBDEZA7","","<img src=""img/set1/S3.jpg"" width=""540"" height = ""360"" style=""border:16px solid orange"">","null","","","","","","","","","",""
"null","","html-keyboard-response","228","304205","0.0-228.0","3IOEN3P9S856ZRO8WNOZCYIAA98615","A5WWHKD82I8UE","3WUVMVA7OBP2V5NP3991VE8MBDEZA7","","","null","","","","","","","","","",""
"416","","image-keyboard-response","229","304622","0.0-229.0","3IOEN3P9S856ZRO8WNOZCYIAA98615","A5WWHKD82I8UE","3WUVMVA7OBP2V5NP3991VE8MBDEZA7","","img/set1/S3.jpg","72","3","random","72","random,structured_load,structured_normal,structured_incentive","4,2,1,2,2,3","2,3,1,4","true","","",""
"null","","html-keyboard-response","230","304982","0.0-230.0","3IOEN3P9S856ZRO8WNOZCYIAA98615","A5WWHKD82I8UE","3WUVMVA7OBP2V5NP3991VE8MBDEZA7","","<img src=""img/set1/S3.jpg"" width=""540"" height = ""360"" style=""border:16px solid orange"">","null","","","","","","","","","",""
"null","","html-keyboard-response","231","305185","0.0-231.0","3IOEN3P9S856ZRO8WNOZCYIAA98615","A5WWHKD82I8UE","3WUVMVA7OBP2V5NP3991VE8MBDEZA7","","","null","","","","","","","","","",""
"515.4000000059605","","image-keyboard-response","232","305701","0.0-232.0","3IOEN3P9S856ZRO8WNOZCYIAA98615","A5WWHKD82I8UE","3WUVMVA7OBP2V5NP3991VE8MBDEZA7","","img/set1/S4.jpg","74","4","random","74","random,structured_load,structured_normal,structured_incentive","4,2,1,2,2,3","2,3,1,4","true","","",""
"null","","html-keyboard-response","233","306066","0.0-233.0","3IOEN3P9S856ZRO8WNOZCYIAA98615","A5WWHKD82I8UE","3WUVMVA7OBP2V5NP3991VE8MBDEZA7","","<img src=""img/set1/S4.jpg"" width=""540"" height = ""360"" style=""border:16px solid orange"">","null","","","","","","","","","",""
"null","","html-keyboard-response","234","306268","0.0-234.0","3IOEN3P9S856ZRO8WNOZCYIAA98615","A5WWHKD82I8UE","3WUVMVA7OBP2V5NP3991VE8MBDEZA7","","","null","","","","","","","","","",""
"841.6000000238419","","image-keyboard-response","235","307110","0.0-235.0","3IOEN3P9S856ZRO8WNOZCYIAA98615","A5WWHKD82I8UE","3WUVMVA7OBP2V5NP3991VE8MBDEZA7","","img/set1/S1.jpg","83","1","random","83","random,structured_load,structured_normal,structured_incentive","4,2,1,2,2,3","2,3,1,4","true","","",""
"null","","html-keyboard-response","236","307464","0.0-236.0","3IOEN3P9S856ZRO8WNOZCYIAA98615","A5WWHKD82I8UE","3WUVMVA7OBP2V5NP3991VE8MBDEZA7","","<img src=""img/set1/S1.jpg"" width=""540"" height = ""360"" style=""border:16px solid orange"">","null","","","","","","","","","",""
"null","","html-keyboard-response","237","307665","0.0-237.0","3IOEN3P9S856ZRO8WNOZCYIAA98615","A5WWHKD82I8UE","3WUVMVA7OBP2V5NP3991VE8MBDEZA7","","","null","","","","","","","","","",""
"427.7000000178814","","image-keyboard-response","238","308094","0.0-238.0","3IOEN3P9S856ZRO8WNOZCYIAA98615","A5WWHKD82I8UE","3WUVMVA7OBP2V5NP3991VE8MBDEZA7","","img/set1/S1.jpg","83","1","random","83","random,structured_load,structured_normal,structured_incentive","4,2,1,2,2,3","2,3,1,4","true","","",""
"null","","html-keyboard-response","239","308458","0.0-239.0","3IOEN3P9S856ZRO8WNOZCYIAA98615","A5WWHKD82I8UE","3WUVMVA7OBP2V5NP3991VE8MBDEZA7","","<img src=""img/set1/S1.jpg"" width=""540"" height = ""360"" style=""border:16px solid orange"">","null","","","","","","","","","",""
"null","","html-keyboard-response","240","308674","0.0-240.0","3IOEN3P9S856ZRO8WNOZCYIAA98615","A5WWHKD82I8UE","3WUVMVA7OBP2V5NP3991VE8MBDEZA7","","","null","","","","","","","","","",""
"1187.2000000178814","","image-keyboard-response","241","309862","0.0-241.0","3IOEN3P9S856ZRO8WNOZCYIAA98615","A5WWHKD82I8UE","3WUVMVA7OBP2V5NP3991VE8MBDEZA7","","img/set1/S4.jpg","74","4","random","74","random,structured_load,structured_normal,structured_incentive","4,2,1,2,2,3","2,3,1,4","true","","",""
"null","","html-keyboard-response","242","310225","0.0-242.0","3IOEN3P9S856ZRO8WNOZCYIAA98615","A5WWHKD82I8UE","3WUVMVA7OBP2V5NP3991VE8MBDEZA7","","<img src=""img/set1/S4.jpg"" width=""540"" height = ""360"" style=""border:16px solid orange"">","null","","","","","","","","","",""
"null","","html-keyboard-response","243","310427","0.0-243.0","3IOEN3P9S856ZRO8WNOZCYIAA98615","A5WWHKD82I8UE","3WUVMVA7OBP2V5NP3991VE8MBDEZA7","","","null","","","","","","","","","",""
"498.89999997615814","","image-keyboard-response","244","310927","0.0-244.0","3IOEN3P9S856ZRO8WNOZCYIAA98615","A5WWHKD82I8UE","3WUVMVA7OBP2V5NP3991VE8MBDEZA7","","img/set1/S2.jpg","72","2","random","68","random,structured_load,structured_normal,structured_incentive","4,2,1,2,2,3","2,3,1,4","false","","",""
"null","","html-keyboard-response","245","311281","0.0-245.0","3IOEN3P9S856ZRO8WNOZCYIAA98615","A5WWHKD82I8UE","3WUVMVA7OBP2V5NP3991VE8MBDEZA7","","<img src=""img/set1/S2.jpg"" width=""540"" height = ""360"">","null","","","","","","","","","",""
"null","","html-keyboard-response","246","311496","0.0-246.0","3IOEN3P9S856ZRO8WNOZCYIAA98615","A5WWHKD82I8UE","3WUVMVA7OBP2V5NP3991VE8MBDEZA7","","","null","","","","","","","","","",""
"716.8000000119209","","image-keyboard-response","247","312214","0.0-247.0","3IOEN3P9S856ZRO8WNOZCYIAA98615","A5WWHKD82I8UE","3WUVMVA7OBP2V5NP3991VE8MBDEZA7","","img/set1/S2.jpg","68","2","random","68","random,structured_load,structured_normal,structured_incentive","4,2,1,2,2,3","2,3,1,4","true","","",""
"null","","html-keyboard-response","248","312580","0.0-248.0","3IOEN3P9S856ZRO8WNOZCYIAA98615","A5WWHKD82I8UE","3WUVMVA7OBP2V5NP3991VE8MBDEZA7","","<img src=""img/set1/S2.jpg"" width=""540"" height = ""360"" style=""border:16px solid orange"">","null","","","","","","","","","",""
"null","","html-keyboard-response","249","312783","0.0-249.0","3IOEN3P9S856ZRO8WNOZCYIAA98615","A5WWHKD82I8UE","3WUVMVA7OBP2V5NP3991VE8MBDEZA7","","","null","","","","","","","","","",""
"357.90000000596046","","image-keyboard-response","250","313141","0.0-250.0","3IOEN3P9S856ZRO8WNOZCYIAA98615","A5WWHKD82I8UE","3WUVMVA7OBP2V5NP3991VE8MBDEZA7","","img/set1/S2.jpg","68","2","random","68","random,structured_load,structured_normal,structured_incentive","4,2,1,2,2,3","2,3,1,4","true","","",""
"null","","html-keyboard-response","251","313495","0.0-251.0","3IOEN3P9S856ZRO8WNOZCYIAA98615","A5WWHKD82I8UE","3WUVMVA7OBP2V5NP3991VE8MBDEZA7","","<img src=""img/set1/S2.jpg"" width=""540"" height = ""360"" style=""border:16px solid orange"">","null","","","","","","","","","",""
"null","","html-keyboard-response","252","313698","0.0-252.0","3IOEN3P9S856ZRO8WNOZCYIAA98615","A5WWHKD82I8UE","3WUVMVA7OBP2V5NP3991VE8MBDEZA7","","","null","","","","","","","","","",""
"691.0999999940395","","image-keyboard-response","253","314390","0.0-253.0","3IOEN3P9S856ZRO8WNOZCYIAA98615","A5WWHKD82I8UE","3WUVMVA7OBP2V5NP3991VE8MBDEZA7","","img/set1/S1.jpg","83","1","random","83","random,structured_load,structured_normal,structured_incentive","4,2,1,2,2,3","2,3,1,4","true","","",""
"null","","html-keyboard-response","254","314742","0.0-254.0","3IOEN3P9S856ZRO8WNOZCYIAA98615","A5WWHKD82I8UE","3WUVMVA7OBP2V5NP3991VE8MBDEZA7","","<img src=""img/set1/S1.jpg"" width=""540"" height = ""360"" style=""border:16px solid orange"">","null","","","","","","","","","",""
"null","","html-keyboard-response","255","314945","0.0-255.0","3IOEN3P9S856ZRO8WNOZCYIAA98615","A5WWHKD82I8UE","3WUVMVA7OBP2V5NP3991VE8MBDEZA7","","","null","","","","","","","","","",""
"1316.300000011921","","image-keyboard-response","256","316263","0.0-256.0","3IOEN3P9S856ZRO8WNOZCYIAA98615","A5WWHKD82I8UE","3WUVMVA7OBP2V5NP3991VE8MBDEZA7","","img/set1/S3.jpg","72","3","random","72","random,structured_load,structured_normal,structured_incentive","4,2,1,2,2,3","2,3,1,4","true","","",""
"null","","html-keyboard-response","257","316620","0.0-257.0","3IOEN3P9S856ZRO8WNOZCYIAA98615","A5WWHKD82I8UE","3WUVMVA7OBP2V5NP3991VE8MBDEZA7","","<img src=""img/set1/S3.jpg"" width=""540"" height = ""360"" style=""border:16px solid orange"">","null","","","","","","","","","",""
"null","","html-keyboard-response","258","316823","0.0-258.0","3IOEN3P9S856ZRO8WNOZCYIAA98615","A5WWHKD82I8UE","3WUVMVA7OBP2V5NP3991VE8MBDEZA7","","","null","","","","","","","","","",""
"629.5999999940395","","image-keyboard-response","259","317454","0.0-259.0","3IOEN3P9S856ZRO8WNOZCYIAA98615","A5WWHKD82I8UE","3WUVMVA7OBP2V5NP3991VE8MBDEZA7","","img/set1/S4.jpg","74","4","random","74","random,structured_load,structured_normal,structured_incentive","4,2,1,2,2,3","2,3,1,4","true","","",""
"null","","html-keyboard-response","260","317816","0.0-260.0","3IOEN3P9S856ZRO8WNOZCYIAA98615","A5WWHKD82I8UE","3WUVMVA7OBP2V5NP3991VE8MBDEZA7","","<img src=""img/set1/S4.jpg"" width=""540"" height = ""360"" style=""border:16px solid orange"">","null","","","","","","","","","",""
"null","","html-keyboard-response","261","318020","0.0-261.0","3IOEN3P9S856ZRO8WNOZCYIAA98615","A5WWHKD82I8UE","3WUVMVA7OBP2V5NP3991VE8MBDEZA7","","","null","","","","","","","","","",""
"473.5","","image-keyboard-response","262","318494","0.0-262.0","3IOEN3P9S856ZRO8WNOZCYIAA98615","A5WWHKD82I8UE","3WUVMVA7OBP2V5NP3991VE8MBDEZA7","","img/set1/S3.jpg","72","3","random","72","random,structured_load,structured_normal,structured_incentive","4,2,1,2,2,3","2,3,1,4","true","","",""
"null","","html-keyboard-response","263","318858","0.0-263.0","3IOEN3P9S856ZRO8WNOZCYIAA98615","A5WWHKD82I8UE","3WUVMVA7OBP2V5NP3991VE8MBDEZA7","","<img src=""img/set1/S3.jpg"" width=""540"" height = ""360"" style=""border:16px solid orange"">","null","","","","","","","","","",""
"null","","html-keyboard-response","264","319072","0.0-264.0","3IOEN3P9S856ZRO8WNOZCYIAA98615","A5WWHKD82I8UE","3WUVMVA7OBP2V5NP3991VE8MBDEZA7","","","null","","","","","","","","","",""
"613.3000000119209","","image-keyboard-response","265","319686","0.0-265.0","3IOEN3P9S856ZRO8WNOZCYIAA98615","A5WWHKD82I8UE","3WUVMVA7OBP2V5NP3991VE8MBDEZA7","","img/set1/S2.jpg","68","2","random","68","random,structured_load,structured_normal,structured_incentive","4,2,1,2,2,3","2,3,1,4","true","","",""
"null","","html-keyboard-response","266","320047","0.0-266.0","3IOEN3P9S856ZRO8WNOZCYIAA98615","A5WWHKD82I8UE","3WUVMVA7OBP2V5NP3991VE8MBDEZA7","","<img src=""img/set1/S2.jpg"" width=""540"" height = ""360"" style=""border:16px solid orange"">","null","","","","","","","","","",""
"null","","html-keyboard-response","267","320250","0.0-267.0","3IOEN3P9S856ZRO8WNOZCYIAA98615","A5WWHKD82I8UE","3WUVMVA7OBP2V5NP3991VE8MBDEZA7","","","null","","","","","","","","","",""
"819.5","","image-keyboard-response","268","321072","0.0-268.0","3IOEN3P9S856ZRO8WNOZCYIAA98615","A5WWHKD82I8UE","3WUVMVA7OBP2V5NP3991VE8MBDEZA7","","img/set1/S4.jpg","74","4","random","74","random,structured_load,structured_normal,structured_incentive","4,2,1,2,2,3","2,3,1,4","true","","",""
"null","","html-keyboard-response","269","321433","0.0-269.0","3IOEN3P9S856ZRO8WNOZCYIAA98615","A5WWHKD82I8UE","3WUVMVA7OBP2V5NP3991VE8MBDEZA7","","<img src=""img/set1/S4.jpg"" width=""540"" height = ""360"" style=""border:16px solid orange"">","null","","","","","","","","","",""
"null","","html-keyboard-response","270","321634","0.0-270.0","3IOEN3P9S856ZRO8WNOZCYIAA98615","A5WWHKD82I8UE","3WUVMVA7OBP2V5NP3991VE8MBDEZA7","","","null","","","","","","","","","",""
"498.30000001192093","","image-keyboard-response","271","322133","0.0-271.0","3IOEN3P9S856ZRO8WNOZCYIAA98615","A5WWHKD82I8UE","3WUVMVA7OBP2V5NP3991VE8MBDEZA7","","img/set1/S3.jpg","72","3","random","72","random,structured_load,structured_normal,structured_incentive","4,2,1,2,2,3","2,3,1,4","true","","",""
"null","","html-keyboard-response","272","322490","0.0-272.0","3IOEN3P9S856ZRO8WNOZCYIAA98615","A5WWHKD82I8UE","3WUVMVA7OBP2V5NP3991VE8MBDEZA7","","<img src=""img/set1/S3.jpg"" width=""540"" height = ""360"" style=""border:16px solid orange"">","null","","","","","","","","","",""
"null","","html-keyboard-response","273","322692","0.0-273.0","3IOEN3P9S856ZRO8WNOZCYIAA98615","A5WWHKD82I8UE","3WUVMVA7OBP2V5NP3991VE8MBDEZA7","","","null","","","","","","","","","",""
"512.5","","image-keyboard-response","274","323206","0.0-274.0","3IOEN3P9S856ZRO8WNOZCYIAA98615","A5WWHKD82I8UE","3WUVMVA7OBP2V5NP3991VE8MBDEZA7","","img/set1/S4.jpg","74","4","random","74","random,structured_load,structured_normal,structured_incentive","4,2,1,2,2,3","2,3,1,4","true","","",""
"null","","html-keyboard-response","275","323562","0.0-275.0","3IOEN3P9S856ZRO8WNOZCYIAA98615","A5WWHKD82I8UE","3WUVMVA7OBP2V5NP3991VE8MBDEZA7","","<img src=""img/set1/S4.jpg"" width=""540"" height = ""360"" style=""border:16px solid orange"">","null","","","","","","","","","",""
"null","","html-keyboard-response","276","323766","0.0-276.0","3IOEN3P9S856ZRO8WNOZCYIAA98615","A5WWHKD82I8UE","3WUVMVA7OBP2V5NP3991VE8MBDEZA7","","","null","","","","","","","","","",""
"480.09999999403954","","image-keyboard-response","277","324247","0.0-277.0","3IOEN3P9S856ZRO8WNOZCYIAA98615","A5WWHKD82I8UE","3WUVMVA7OBP2V5NP3991VE8MBDEZA7","","img/set1/S3.jpg","72","3","random","72","random,structured_load,structured_normal,structured_incentive","4,2,1,2,2,3","2,3,1,4","true","","",""
"null","","html-keyboard-response","278","324607","0.0-278.0","3IOEN3P9S856ZRO8WNOZCYIAA98615","A5WWHKD82I8UE","3WUVMVA7OBP2V5NP3991VE8MBDEZA7","","<img src=""img/set1/S3.jpg"" width=""540"" height = ""360"" style=""border:16px solid orange"">","null","","","","","","","","","",""
"null","","html-keyboard-response","279","324809","0.0-279.0","3IOEN3P9S856ZRO8WNOZCYIAA98615","A5WWHKD82I8UE","3WUVMVA7OBP2V5NP3991VE8MBDEZA7","","","null","","","","","","","","","",""
"556.5","","image-keyboard-response","280","325366","0.0-280.0","3IOEN3P9S856ZRO8WNOZCYIAA98615","A5WWHKD82I8UE","3WUVMVA7OBP2V5NP3991VE8MBDEZA7","","img/set1/S3.jpg","72","3","random","72","random,structured_load,structured_normal,structured_incentive","4,2,1,2,2,3","2,3,1,4","true","","",""
"null","","html-keyboard-response","281","325721","0.0-281.0","3IOEN3P9S856ZRO8WNOZCYIAA98615","A5WWHKD82I8UE","3WUVMVA7OBP2V5NP3991VE8MBDEZA7","","<img src=""img/set1/S3.jpg"" width=""540"" height = ""360"" style=""border:16px solid orange"">","null","","","","","","","","","",""
"null","","html-keyboard-response","282","325926","0.0-282.0","3IOEN3P9S856ZRO8WNOZCYIAA98615","A5WWHKD82I8UE","3WUVMVA7OBP2V5NP3991VE8MBDEZA7","","","null","","","","","","","","","",""
"557.5","","image-keyboard-response","283","326485","0.0-283.0","3IOEN3P9S856ZRO8WNOZCYIAA98615","A5WWHKD82I8UE","3WUVMVA7OBP2V5NP3991VE8MBDEZA7","","img/set1/S4.jpg","74","4","random","74","random,structured_load,structured_normal,structured_incentive","4,2,1,2,2,3","2,3,1,4","true","","",""
"null","","html-keyboard-response","284","326842","0.0-284.0","3IOEN3P9S856ZRO8WNOZCYIAA98615","A5WWHKD82I8UE","3WUVMVA7OBP2V5NP3991VE8MBDEZA7","","<img src=""img/set1/S4.jpg"" width=""540"" height = ""360"" style=""border:16px solid orange"">","null","","","","","","","","","",""
"null","","html-keyboard-response","285","327057","0.0-285.0","3IOEN3P9S856ZRO8WNOZCYIAA98615","A5WWHKD82I8UE","3WUVMVA7OBP2V5NP3991VE8MBDEZA7","","","null","","","","","","","","","",""
"724.4000000059605","","image-keyboard-response","286","327783","0.0-286.0","3IOEN3P9S856ZRO8WNOZCYIAA98615","A5WWHKD82I8UE","3WUVMVA7OBP2V5NP3991VE8MBDEZA7","","img/set1/S2.jpg","68","2","random","68","random,structured_load,structured_normal,structured_incentive","4,2,1,2,2,3","2,3,1,4","true","","",""
"null","","html-keyboard-response","287","328145","0.0-287.0","3IOEN3P9S856ZRO8WNOZCYIAA98615","A5WWHKD82I8UE","3WUVMVA7OBP2V5NP3991VE8MBDEZA7","","<img src=""img/set1/S2.jpg"" width=""540"" height = ""360"" style=""border:16px solid orange"">","null","","","","","","","","","",""
"null","","html-keyboard-response","288","328347","0.0-288.0","3IOEN3P9S856ZRO8WNOZCYIAA98615","A5WWHKD82I8UE","3WUVMVA7OBP2V5NP3991VE8MBDEZA7","","","null","","","","","","","","","",""
"529.0999999940395","","image-keyboard-response","289","328877","0.0-289.0","3IOEN3P9S856ZRO8WNOZCYIAA98615","A5WWHKD82I8UE","3WUVMVA7OBP2V5NP3991VE8MBDEZA7","","img/set1/S1.jpg","83","1","random","83","random,structured_load,structured_normal,structured_incentive","4,2,1,2,2,3","2,3,1,4","true","","",""
"null","","html-keyboard-response","290","329233","0.0-290.0","3IOEN3P9S856ZRO8WNOZCYIAA98615","A5WWHKD82I8UE","3WUVMVA7OBP2V5NP3991VE8MBDEZA7","","<img src=""img/set1/S1.jpg"" width=""540"" height = ""360"" style=""border:16px solid orange"">","null","","","","","","","","","",""
"null","","html-keyboard-response","291","329449","0.0-291.0","3IOEN3P9S856ZRO8WNOZCYIAA98615","A5WWHKD82I8UE","3WUVMVA7OBP2V5NP3991VE8MBDEZA7","","","null","","","","","","","","","",""
"395.5","","image-keyboard-response","292","329845","0.0-292.0","3IOEN3P9S856ZRO8WNOZCYIAA98615","A5WWHKD82I8UE","3WUVMVA7OBP2V5NP3991VE8MBDEZA7","","img/set1/S1.jpg","83","1","random","83","random,structured_load,structured_normal,structured_incentive","4,2,1,2,2,3","2,3,1,4","true","","",""
"null","","html-keyboard-response","293","330199","0.0-293.0","3IOEN3P9S856ZRO8WNOZCYIAA98615","A5WWHKD82I8UE","3WUVMVA7OBP2V5NP3991VE8MBDEZA7","","<img src=""img/set1/S1.jpg"" width=""540"" height = ""360"" style=""border:16px solid orange"">","null","","","","","","","","","",""
"null","","html-keyboard-response","294","330400","0.0-294.0","3IOEN3P9S856ZRO8WNOZCYIAA98615","A5WWHKD82I8UE","3WUVMVA7OBP2V5NP3991VE8MBDEZA7","","","null","","","","","","","","","",""
"317.69999998807907","","image-keyboard-response","295","330719","0.0-295.0","3IOEN3P9S856ZRO8WNOZCYIAA98615","A5WWHKD82I8UE","3WUVMVA7OBP2V5NP3991VE8MBDEZA7","","img/set1/S1.jpg","83","1","random","83","random,structured_load,structured_normal,structured_incentive","4,2,1,2,2,3","2,3,1,4","true","","",""
"null","","html-keyboard-response","296","331080","0.0-296.0","3IOEN3P9S856ZRO8WNOZCYIAA98615","A5WWHKD82I8UE","3WUVMVA7OBP2V5NP3991VE8MBDEZA7","","<img src=""img/set1/S1.jpg"" width=""540"" height = ""360"" style=""border:16px solid orange"">","null","","","","","","","","","",""
"null","","html-keyboard-response","297","331283","0.0-297.0","3IOEN3P9S856ZRO8WNOZCYIAA98615","A5WWHKD82I8UE","3WUVMVA7OBP2V5NP3991VE8MBDEZA7","","","null","","","","","","","","","",""
"522","","image-keyboard-response","298","331806","0.0-298.0","3IOEN3P9S856ZRO8WNOZCYIAA98615","A5WWHKD82I8UE","3WUVMVA7OBP2V5NP3991VE8MBDEZA7","","img/set1/S4.jpg","68","4","random","74","random,structured_load,structured_normal,structured_incentive","4,2,1,2,2,3","2,3,1,4","false","","",""
"null","","html-keyboard-response","299","332166","0.0-299.0","3IOEN3P9S856ZRO8WNOZCYIAA98615","A5WWHKD82I8UE","3WUVMVA7OBP2V5NP3991VE8MBDEZA7","","<img src=""img/set1/S4.jpg"" width=""540"" height = ""360"">","null","","","","","","","","","",""
"null","","html-keyboard-response","300","332372","0.0-300.0","3IOEN3P9S856ZRO8WNOZCYIAA98615","A5WWHKD82I8UE","3WUVMVA7OBP2V5NP3991VE8MBDEZA7","","","null","","","","","","","","","",""
"1120.699999988079","","image-keyboard-response","301","333494","0.0-301.0","3IOEN3P9S856ZRO8WNOZCYIAA98615","A5WWHKD82I8UE","3WUVMVA7OBP2V5NP3991VE8MBDEZA7","","img/set1/S3.jpg","72","3","random","72","random,structured_load,structured_normal,structured_incentive","4,2,1,2,2,3","2,3,1,4","true","","",""
"null","","html-keyboard-response","302","333856","0.0-302.0","3IOEN3P9S856ZRO8WNOZCYIAA98615","A5WWHKD82I8UE","3WUVMVA7OBP2V5NP3991VE8MBDEZA7","","<img src=""img/set1/S3.jpg"" width=""540"" height = ""360"" style=""border:16px solid orange"">","null","","","","","","","","","",""
"null","","html-keyboard-response","303","334070","0.0-303.0","3IOEN3P9S856ZRO8WNOZCYIAA98615","A5WWHKD82I8UE","3WUVMVA7OBP2V5NP3991VE8MBDEZA7","","","null","","","","","","","","","",""
"743","","image-keyboard-response","304","334814","0.0-304.0","3IOEN3P9S856ZRO8WNOZCYIAA98615","A5WWHKD82I8UE","3WUVMVA7OBP2V5NP3991VE8MBDEZA7","","img/set1/S2.jpg","68","2","random","68","random,structured_load,structured_normal,structured_incentive","4,2,1,2,2,3","2,3,1,4","true","","",""
"null","","html-keyboard-response","305","335175","0.0-305.0","3IOEN3P9S856ZRO8WNOZCYIAA98615","A5WWHKD82I8UE","3WUVMVA7OBP2V5NP3991VE8MBDEZA7","","<img src=""img/set1/S2.jpg"" width=""540"" height = ""360"" style=""border:16px solid orange"">","null","","","","","","","","","",""
"null","","html-keyboard-response","306","335390","0.0-306.0","3IOEN3P9S856ZRO8WNOZCYIAA98615","A5WWHKD82I8UE","3WUVMVA7OBP2V5NP3991VE8MBDEZA7","","","null","","","","","","","","","",""
"639.1999999880791","","image-keyboard-response","307","336030","0.0-307.0","3IOEN3P9S856ZRO8WNOZCYIAA98615","A5WWHKD82I8UE","3WUVMVA7OBP2V5NP3991VE8MBDEZA7","","img/set1/S3.jpg","72","3","random","72","random,structured_load,structured_normal,structured_incentive","4,2,1,2,2,3","2,3,1,4","true","","",""
"null","","html-keyboard-response","308","336398","0.0-308.0","3IOEN3P9S856ZRO8WNOZCYIAA98615","A5WWHKD82I8UE","3WUVMVA7OBP2V5NP3991VE8MBDEZA7","","<img src=""img/set1/S3.jpg"" width=""540"" height = ""360"" style=""border:16px solid orange"">","null","","","","","","","","","",""
"null","","html-keyboard-response","309","336599","0.0-309.0","3IOEN3P9S856ZRO8WNOZCYIAA98615","A5WWHKD82I8UE","3WUVMVA7OBP2V5NP3991VE8MBDEZA7","","","null","","","","","","","","","",""
"493.59999999403954","","image-keyboard-response","310","337094","0.0-310.0","3IOEN3P9S856ZRO8WNOZCYIAA98615","A5WWHKD82I8UE","3WUVMVA7OBP2V5NP3991VE8MBDEZA7","","img/set1/S2.jpg","68","2","random","68","random,structured_load,structured_normal,structured_incentive","4,2,1,2,2,3","2,3,1,4","true","","",""
"null","","html-keyboard-response","311","337452","0.0-311.0","3IOEN3P9S856ZRO8WNOZCYIAA98615","A5WWHKD82I8UE","3WUVMVA7OBP2V5NP3991VE8MBDEZA7","","<img src=""img/set1/S2.jpg"" width=""540"" height = ""360"" style=""border:16px solid orange"">","null","","","","","","","","","",""
"null","","html-keyboard-response","312","337668","0.0-312.0","3IOEN3P9S856ZRO8WNOZCYIAA98615","A5WWHKD82I8UE","3WUVMVA7OBP2V5NP3991VE8MBDEZA7","","","null","","","","","","","","","",""
"1760.699999988079","","image-keyboard-response","313","339430","0.0-313.0","3IOEN3P9S856ZRO8WNOZCYIAA98615","A5WWHKD82I8UE","3WUVMVA7OBP2V5NP3991VE8MBDEZA7","","img/set1/S3.jpg","72","3","random","72","random,structured_load,structured_normal,structured_incentive","4,2,1,2,2,3","2,3,1,4","true","","",""
"null","","html-keyboard-response","314","339793","0.0-314.0","3IOEN3P9S856ZRO8WNOZCYIAA98615","A5WWHKD82I8UE","3WUVMVA7OBP2V5NP3991VE8MBDEZA7","","<img src=""img/set1/S3.jpg"" width=""540"" height = ""360"" style=""border:16px solid orange"">","null","","","","","","","","","",""
"null","","html-keyboard-response","315","339994","0.0-315.0","3IOEN3P9S856ZRO8WNOZCYIAA98615","A5WWHKD82I8UE","3WUVMVA7OBP2V5NP3991VE8MBDEZA7","","","null","","","","","","","","","",""
"698.7999999821186","","image-keyboard-response","316","340693","0.0-316.0","3IOEN3P9S856ZRO8WNOZCYIAA98615","A5WWHKD82I8UE","3WUVMVA7OBP2V5NP3991VE8MBDEZA7","","img/set1/S4.jpg","74","4","random","74","random,structured_load,structured_normal,structured_incentive","4,2,1,2,2,3","2,3,1,4","true","","",""
"null","","html-keyboard-response","317","341051","0.0-317.0","3IOEN3P9S856ZRO8WNOZCYIAA98615","A5WWHKD82I8UE","3WUVMVA7OBP2V5NP3991VE8MBDEZA7","","<img src=""img/set1/S4.jpg"" width=""540"" height = ""360"" style=""border:16px solid orange"">","null","","","","","","","","","",""
"null","","html-keyboard-response","318","341253","0.0-318.0","3IOEN3P9S856ZRO8WNOZCYIAA98615","A5WWHKD82I8UE","3WUVMVA7OBP2V5NP3991VE8MBDEZA7","","","null","","","","","","","","","",""
"375.5","","image-keyboard-response","319","341630","0.0-319.0","3IOEN3P9S856ZRO8WNOZCYIAA98615","A5WWHKD82I8UE","3WUVMVA7OBP2V5NP3991VE8MBDEZA7","","img/set1/S4.jpg","74","4","random","74","random,structured_load,structured_normal,structured_incentive","4,2,1,2,2,3","2,3,1,4","true","","",""
"null","","html-keyboard-response","320","341983","0.0-320.0","3IOEN3P9S856ZRO8WNOZCYIAA98615","A5WWHKD82I8UE","3WUVMVA7OBP2V5NP3991VE8MBDEZA7","","<img src=""img/set1/S4.jpg"" width=""540"" height = ""360"" style=""border:16px solid orange"">","null","","","","","","","","","",""
"null","","html-keyboard-response","321","342199","0.0-321.0","3IOEN3P9S856ZRO8WNOZCYIAA98615","A5WWHKD82I8UE","3WUVMVA7OBP2V5NP3991VE8MBDEZA7","","","null","","","","","","","","","",""
"534.1999999880791","","image-keyboard-response","322","342735","0.0-322.0","3IOEN3P9S856ZRO8WNOZCYIAA98615","A5WWHKD82I8UE","3WUVMVA7OBP2V5NP3991VE8MBDEZA7","","img/set1/S3.jpg","72","3","random","72","random,structured_load,structured_normal,structured_incentive","4,2,1,2,2,3","2,3,1,4","true","","",""
"null","","html-keyboard-response","323","343101","0.0-323.0","3IOEN3P9S856ZRO8WNOZCYIAA98615","A5WWHKD82I8UE","3WUVMVA7OBP2V5NP3991VE8MBDEZA7","","<img src=""img/set1/S3.jpg"" width=""540"" height = ""360"" style=""border:16px solid orange"">","null","","","","","","","","","",""
"null","","html-keyboard-response","324","343303","0.0-324.0","3IOEN3P9S856ZRO8WNOZCYIAA98615","A5WWHKD82I8UE","3WUVMVA7OBP2V5NP3991VE8MBDEZA7","","","null","","","","","","","","","",""
"381.90000000596046","","image-keyboard-response","325","343686","0.0-325.0","3IOEN3P9S856ZRO8WNOZCYIAA98615","A5WWHKD82I8UE","3WUVMVA7OBP2V5NP3991VE8MBDEZA7","","img/set1/S3.jpg","72","3","random","72","random,structured_load,structured_normal,structured_incentive","4,2,1,2,2,3","2,3,1,4","true","","",""
"null","","html-keyboard-response","326","344045","0.0-326.0","3IOEN3P9S856ZRO8WNOZCYIAA98615","A5WWHKD82I8UE","3WUVMVA7OBP2V5NP3991VE8MBDEZA7","","<img src=""img/set1/S3.jpg"" width=""540"" height = ""360"" style=""border:16px solid orange"">","null","","","","","","","","","",""
"null","","html-keyboard-response","327","344248","0.0-327.0","3IOEN3P9S856ZRO8WNOZCYIAA98615","A5WWHKD82I8UE","3WUVMVA7OBP2V5NP3991VE8MBDEZA7","","","null","","","","","","","","","",""
"580.2000000178814","","image-keyboard-response","328","344829","0.0-328.0","3IOEN3P9S856ZRO8WNOZCYIAA98615","A5WWHKD82I8UE","3WUVMVA7OBP2V5NP3991VE8MBDEZA7","","img/set1/S2.jpg","68","2","random","68","random,structured_load,structured_normal,structured_incentive","4,2,1,2,2,3","2,3,1,4","true","","",""
"null","","html-keyboard-response","329","345196","0.0-329.0","3IOEN3P9S856ZRO8WNOZCYIAA98615","A5WWHKD82I8UE","3WUVMVA7OBP2V5NP3991VE8MBDEZA7","","<img src=""img/set1/S2.jpg"" width=""540"" height = ""360"" style=""border:16px solid orange"">","null","","","","","","","","","",""
"null","","html-keyboard-response","330","345411","0.0-330.0","3IOEN3P9S856ZRO8WNOZCYIAA98615","A5WWHKD82I8UE","3WUVMVA7OBP2V5NP3991VE8MBDEZA7","","","null","","","","","","","","","",""
"361.7999999821186","","image-keyboard-response","331","345774","0.0-331.0","3IOEN3P9S856ZRO8WNOZCYIAA98615","A5WWHKD82I8UE","3WUVMVA7OBP2V5NP3991VE8MBDEZA7","","img/set1/S2.jpg","68","2","random","68","random,structured_load,structured_normal,structured_incentive","4,2,1,2,2,3","2,3,1,4","true","","",""
"null","","html-keyboard-response","332","346140","0.0-332.0","3IOEN3P9S856ZRO8WNOZCYIAA98615","A5WWHKD82I8UE","3WUVMVA7OBP2V5NP3991VE8MBDEZA7","","<img src=""img/set1/S2.jpg"" width=""540"" height = ""360"" style=""border:16px solid orange"">","null","","","","","","","","","",""
"null","","html-keyboard-response","333","346342","0.0-333.0","3IOEN3P9S856ZRO8WNOZCYIAA98615","A5WWHKD82I8UE","3WUVMVA7OBP2V5NP3991VE8MBDEZA7","","","null","","","","","","","","","",""
"790.3000000119209","","image-keyboard-response","334","347133","0.0-334.0","3IOEN3P9S856ZRO8WNOZCYIAA98615","A5WWHKD82I8UE","3WUVMVA7OBP2V5NP3991VE8MBDEZA7","","img/set1/S3.jpg","72","3","random","72","random,structured_load,structured_normal,structured_incentive","4,2,1,2,2,3","2,3,1,4","true","","",""
"null","","html-keyboard-response","335","347497","0.0-335.0","3IOEN3P9S856ZRO8WNOZCYIAA98615","A5WWHKD82I8UE","3WUVMVA7OBP2V5NP3991VE8MBDEZA7","","<img src=""img/set1/S3.jpg"" width=""540"" height = ""360"" style=""border:16px solid orange"">","null","","","","","","","","","",""
"null","","html-keyboard-response","336","347701","0.0-336.0","3IOEN3P9S856ZRO8WNOZCYIAA98615","A5WWHKD82I8UE","3WUVMVA7OBP2V5NP3991VE8MBDEZA7","","","null","","","","","","","","","",""
"600.1999999880791","","image-keyboard-response","337","348302","0.0-337.0","3IOEN3P9S856ZRO8WNOZCYIAA98615","A5WWHKD82I8UE","3WUVMVA7OBP2V5NP3991VE8MBDEZA7","","img/set1/S3.jpg","72","3","random","72","random,structured_load,structured_normal,structured_incentive","4,2,1,2,2,3","2,3,1,4","true","","",""
"null","","html-keyboard-response","338","348666","0.0-338.0","3IOEN3P9S856ZRO8WNOZCYIAA98615","A5WWHKD82I8UE","3WUVMVA7OBP2V5NP3991VE8MBDEZA7","","<img src=""img/set1/S3.jpg"" width=""540"" height = ""360"" style=""border:16px solid orange"">","null","","","","","","","","","",""
"null","","html-keyboard-response","339","348869","0.0-339.0","3IOEN3P9S856ZRO8WNOZCYIAA98615","A5WWHKD82I8UE","3WUVMVA7OBP2V5NP3991VE8MBDEZA7","","","null","","","","","","","","","",""
"327.90000000596046","","image-keyboard-response","340","349198","0.0-340.0","3IOEN3P9S856ZRO8WNOZCYIAA98615","A5WWHKD82I8UE","3WUVMVA7OBP2V5NP3991VE8MBDEZA7","","img/set1/S3.jpg","72","3","random","72","random,structured_load,structured_normal,structured_incentive","4,2,1,2,2,3","2,3,1,4","true","","",""
"null","","html-keyboard-response","341","349553","0.0-341.0","3IOEN3P9S856ZRO8WNOZCYIAA98615","A5WWHKD82I8UE","3WUVMVA7OBP2V5NP3991VE8MBDEZA7","","<img src=""img/set1/S3.jpg"" width=""540"" height = ""360"" style=""border:16px solid orange"">","null","","","","","","","","","",""
"null","","html-keyboard-response","342","349770","0.0-342.0","3IOEN3P9S856ZRO8WNOZCYIAA98615","A5WWHKD82I8UE","3WUVMVA7OBP2V5NP3991VE8MBDEZA7","","","null","","","","","","","","","",""
"612.2999999821186","","image-keyboard-response","343","350383","0.0-343.0","3IOEN3P9S856ZRO8WNOZCYIAA98615","A5WWHKD82I8UE","3WUVMVA7OBP2V5NP3991VE8MBDEZA7","","img/set1/S2.jpg","68","2","random","68","random,structured_load,structured_normal,structured_incentive","4,2,1,2,2,3","2,3,1,4","true","","",""
"null","","html-keyboard-response","344","350748","0.0-344.0","3IOEN3P9S856ZRO8WNOZCYIAA98615","A5WWHKD82I8UE","3WUVMVA7OBP2V5NP3991VE8MBDEZA7","","<img src=""img/set1/S2.jpg"" width=""540"" height = ""360"" style=""border:16px solid orange"">","null","","","","","","","","","",""
"null","","html-keyboard-response","345","350951","0.0-345.0","3IOEN3P9S856ZRO8WNOZCYIAA98615","A5WWHKD82I8UE","3WUVMVA7OBP2V5NP3991VE8MBDEZA7","","","null","","","","","","","","","",""
"325.90000000596046","","image-keyboard-response","346","351277","0.0-346.0","3IOEN3P9S856ZRO8WNOZCYIAA98615","A5WWHKD82I8UE","3WUVMVA7OBP2V5NP3991VE8MBDEZA7","","img/set1/S2.jpg","68","2","random","68","random,structured_load,structured_normal,structured_incentive","4,2,1,2,2,3","2,3,1,4","true","","",""
"null","","html-keyboard-response","347","351634","0.0-347.0","3IOEN3P9S856ZRO8WNOZCYIAA98615","A5WWHKD82I8UE","3WUVMVA7OBP2V5NP3991VE8MBDEZA7","","<img src=""img/set1/S2.jpg"" width=""540"" height = ""360"" style=""border:16px solid orange"">","null","","","","","","","","","",""
"null","","html-keyboard-response","348","351835","0.0-348.0","3IOEN3P9S856ZRO8WNOZCYIAA98615","A5WWHKD82I8UE","3WUVMVA7OBP2V5NP3991VE8MBDEZA7","","","null","","","","","","","","","",""
"514.2000000178814","","image-keyboard-response","349","352351","0.0-349.0","3IOEN3P9S856ZRO8WNOZCYIAA98615","A5WWHKD82I8UE","3WUVMVA7OBP2V5NP3991VE8MBDEZA7","","img/set1/S1.jpg","83","1","random","83","random,structured_load,structured_normal,structured_incentive","4,2,1,2,2,3","2,3,1,4","true","","",""
"null","","html-keyboard-response","350","352707","0.0-350.0","3IOEN3P9S856ZRO8WNOZCYIAA98615","A5WWHKD82I8UE","3WUVMVA7OBP2V5NP3991VE8MBDEZA7","","<img src=""img/set1/S1.jpg"" width=""540"" height = ""360"" style=""border:16px solid orange"">","null","","","","","","","","","",""
"null","","html-keyboard-response","351","352909","0.0-351.0","3IOEN3P9S856ZRO8WNOZCYIAA98615","A5WWHKD82I8UE","3WUVMVA7OBP2V5NP3991VE8MBDEZA7","","","null","","","","","","","","","",""
"704.5999999940395","","image-keyboard-response","352","353615","0.0-352.0","3IOEN3P9S856ZRO8WNOZCYIAA98615","A5WWHKD82I8UE","3WUVMVA7OBP2V5NP3991VE8MBDEZA7","","img/set1/S2.jpg","68","2","random","68","random,structured_load,structured_normal,structured_incentive","4,2,1,2,2,3","2,3,1,4","true","","",""
"null","","html-keyboard-response","353","353981","0.0-353.0","3IOEN3P9S856ZRO8WNOZCYIAA98615","A5WWHKD82I8UE","3WUVMVA7OBP2V5NP3991VE8MBDEZA7","","<img src=""img/set1/S2.jpg"" width=""540"" height = ""360"" style=""border:16px solid orange"">","null","","","","","","","","","",""
"null","","html-keyboard-response","354","354185","0.0-354.0","3IOEN3P9S856ZRO8WNOZCYIAA98615","A5WWHKD82I8UE","3WUVMVA7OBP2V5NP3991VE8MBDEZA7","","","null","","","","","","","","","",""
"899","","image-keyboard-response","355","355085","0.0-355.0","3IOEN3P9S856ZRO8WNOZCYIAA98615","A5WWHKD82I8UE","3WUVMVA7OBP2V5NP3991VE8MBDEZA7","","img/set1/S3.jpg","72","3","random","72","random,structured_load,structured_normal,structured_incentive","4,2,1,2,2,3","2,3,1,4","true","","",""
"null","","html-keyboard-response","356","355444","0.0-356.0","3IOEN3P9S856ZRO8WNOZCYIAA98615","A5WWHKD82I8UE","3WUVMVA7OBP2V5NP3991VE8MBDEZA7","","<img src=""img/set1/S3.jpg"" width=""540"" height = ""360"" style=""border:16px solid orange"">","null","","","","","","","","","",""
"null","","html-keyboard-response","357","355648","0.0-357.0","3IOEN3P9S856ZRO8WNOZCYIAA98615","A5WWHKD82I8UE","3WUVMVA7OBP2V5NP3991VE8MBDEZA7","","","null","","","","","","","","","",""
"620.5","","image-keyboard-response","358","356270","0.0-358.0","3IOEN3P9S856ZRO8WNOZCYIAA98615","A5WWHKD82I8UE","3WUVMVA7OBP2V5NP3991VE8MBDEZA7","","img/set1/S1.jpg","83","1","random","83","random,structured_load,structured_normal,structured_incentive","4,2,1,2,2,3","2,3,1,4","true","","",""
"null","","html-keyboard-response","359","356626","0.0-359.0","3IOEN3P9S856ZRO8WNOZCYIAA98615","A5WWHKD82I8UE","3WUVMVA7OBP2V5NP3991VE8MBDEZA7","","<img src=""img/set1/S1.jpg"" width=""540"" height = ""360"" style=""border:16px solid orange"">","null","","","","","","","","","",""
"null","","html-keyboard-response","360","356831","0.0-360.0","3IOEN3P9S856ZRO8WNOZCYIAA98615","A5WWHKD82I8UE","3WUVMVA7OBP2V5NP3991VE8MBDEZA7","","","null","","","","","","","","","",""
"621.9000000059605","","image-keyboard-response","361","357454","0.0-361.0","3IOEN3P9S856ZRO8WNOZCYIAA98615","A5WWHKD82I8UE","3WUVMVA7OBP2V5NP3991VE8MBDEZA7","","img/set1/S2.jpg","68","2","random","68","random,structured_load,structured_normal,structured_incentive","4,2,1,2,2,3","2,3,1,4","true","","",""
"null","","html-keyboard-response","362","357811","0.0-362.0","3IOEN3P9S856ZRO8WNOZCYIAA98615","A5WWHKD82I8UE","3WUVMVA7OBP2V5NP3991VE8MBDEZA7","","<img src=""img/set1/S2.jpg"" width=""540"" height = ""360"" style=""border:16px solid orange"">","null","","","","","","","","","",""
"null","","html-keyboard-response","363","358014","0.0-363.0","3IOEN3P9S856ZRO8WNOZCYIAA98615","A5WWHKD82I8UE","3WUVMVA7OBP2V5NP3991VE8MBDEZA7","","","null","","","","","","","","","",""
"1095.300000011921","","image-keyboard-response","364","359111","0.0-364.0","3IOEN3P9S856ZRO8WNOZCYIAA98615","A5WWHKD82I8UE","3WUVMVA7OBP2V5NP3991VE8MBDEZA7","","img/set1/S3.jpg","72","3","random","72","random,structured_load,structured_normal,structured_incentive","4,2,1,2,2,3","2,3,1,4","true","","",""
"null","","html-keyboard-response","365","359474","0.0-365.0","3IOEN3P9S856ZRO8WNOZCYIAA98615","A5WWHKD82I8UE","3WUVMVA7OBP2V5NP3991VE8MBDEZA7","","<img src=""img/set1/S3.jpg"" width=""540"" height = ""360"" style=""border:16px solid orange"">","null","","","","","","","","","",""
"null","","html-keyboard-response","366","359689","0.0-366.0","3IOEN3P9S856ZRO8WNOZCYIAA98615","A5WWHKD82I8UE","3WUVMVA7OBP2V5NP3991VE8MBDEZA7","","","null","","","","","","","","","",""
"675.1999999880791","","image-keyboard-response","367","360365","0.0-367.0","3IOEN3P9S856ZRO8WNOZCYIAA98615","A5WWHKD82I8UE","3WUVMVA7OBP2V5NP3991VE8MBDEZA7","","img/set1/S4.jpg","74","4","random","74","random,structured_load,structured_normal,structured_incentive","4,2,1,2,2,3","2,3,1,4","true","","",""
"null","","html-keyboard-response","368","360729","0.0-368.0","3IOEN3P9S856ZRO8WNOZCYIAA98615","A5WWHKD82I8UE","3WUVMVA7OBP2V5NP3991VE8MBDEZA7","","<img src=""img/set1/S4.jpg"" width=""540"" height = ""360"" style=""border:16px solid orange"">","null","","","","","","","","","",""
"null","","html-keyboard-response","369","360931","0.0-369.0","3IOEN3P9S856ZRO8WNOZCYIAA98615","A5WWHKD82I8UE","3WUVMVA7OBP2V5NP3991VE8MBDEZA7","","","null","","","","","","","","","",""
"570.0999999940395","","image-keyboard-response","370","361501","0.0-370.0","3IOEN3P9S856ZRO8WNOZCYIAA98615","A5WWHKD82I8UE","3WUVMVA7OBP2V5NP3991VE8MBDEZA7","","img/set1/S3.jpg","72","3","random","72","random,structured_load,structured_normal,structured_incentive","4,2,1,2,2,3","2,3,1,4","true","","",""
"null","","html-keyboard-response","371","361868","0.0-371.0","3IOEN3P9S856ZRO8WNOZCYIAA98615","A5WWHKD82I8UE","3WUVMVA7OBP2V5NP3991VE8MBDEZA7","","<img src=""img/set1/S3.jpg"" width=""540"" height = ""360"" style=""border:16px solid orange"">","null","","","","","","","","","",""
"null","","html-keyboard-response","372","362071","0.0-372.0","3IOEN3P9S856ZRO8WNOZCYIAA98615","A5WWHKD82I8UE","3WUVMVA7OBP2V5NP3991VE8MBDEZA7","","","null","","","","","","","","","",""
"869.4000000059605","","image-keyboard-response","373","362941","0.0-373.0","3IOEN3P9S856ZRO8WNOZCYIAA98615","A5WWHKD82I8UE","3WUVMVA7OBP2V5NP3991VE8MBDEZA7","","img/set1/S2.jpg","68","2","random","68","random,structured_load,structured_normal,structured_incentive","4,2,1,2,2,3","2,3,1,4","true","","",""
"null","","html-keyboard-response","374","363296","0.0-374.0","3IOEN3P9S856ZRO8WNOZCYIAA98615","A5WWHKD82I8UE","3WUVMVA7OBP2V5NP3991VE8MBDEZA7","","<img src=""img/set1/S2.jpg"" width=""540"" height = ""360"" style=""border:16px solid orange"">","null","","","","","","","","","",""
"null","","html-keyboard-response","375","363512","0.0-375.0","3IOEN3P9S856ZRO8WNOZCYIAA98615","A5WWHKD82I8UE","3WUVMVA7OBP2V5NP3991VE8MBDEZA7","","","null","","","","","","","","","",""
"605.7000000178814","","image-keyboard-response","376","364119","0.0-376.0","3IOEN3P9S856ZRO8WNOZCYIAA98615","A5WWHKD82I8UE","3WUVMVA7OBP2V5NP3991VE8MBDEZA7","","img/set1/S3.jpg","72","3","random","72","random,structured_load,structured_normal,structured_incentive","4,2,1,2,2,3","2,3,1,4","true","","",""
"null","","html-keyboard-response","377","364478","0.0-377.0","3IOEN3P9S856ZRO8WNOZCYIAA98615","A5WWHKD82I8UE","3WUVMVA7OBP2V5NP3991VE8MBDEZA7","","<img src=""img/set1/S3.jpg"" width=""540"" height = ""360"" style=""border:16px solid orange"">","null","","","","","","","","","",""
"null","","html-keyboard-response","378","364694","0.0-378.0","3IOEN3P9S856ZRO8WNOZCYIAA98615","A5WWHKD82I8UE","3WUVMVA7OBP2V5NP3991VE8MBDEZA7","","","null","","","","","","","","","",""
"622.8999999761581","","image-keyboard-response","379","365318","0.0-379.0","3IOEN3P9S856ZRO8WNOZCYIAA98615","A5WWHKD82I8UE","3WUVMVA7OBP2V5NP3991VE8MBDEZA7","","img/set1/S2.jpg","68","2","random","68","random,structured_load,structured_normal,structured_incentive","4,2,1,2,2,3","2,3,1,4","true","","",""
"null","","html-keyboard-response","380","365675","0.0-380.0","3IOEN3P9S856ZRO8WNOZCYIAA98615","A5WWHKD82I8UE","3WUVMVA7OBP2V5NP3991VE8MBDEZA7","","<img src=""img/set1/S2.jpg"" width=""540"" height = ""360"" style=""border:16px solid orange"">","null","","","","","","","","","",""
"null","","html-keyboard-response","381","365891","0.0-381.0","3IOEN3P9S856ZRO8WNOZCYIAA98615","A5WWHKD82I8UE","3WUVMVA7OBP2V5NP3991VE8MBDEZA7","","","null","","","","","","","","","",""
"666","","image-keyboard-response","382","366558","0.0-382.0","3IOEN3P9S856ZRO8WNOZCYIAA98615","A5WWHKD82I8UE","3WUVMVA7OBP2V5NP3991VE8MBDEZA7","","img/set1/S4.jpg","74","4","random","74","random,structured_load,structured_normal,structured_incentive","4,2,1,2,2,3","2,3,1,4","true","","",""
"null","","html-keyboard-response","383","366912","0.0-383.0","3IOEN3P9S856ZRO8WNOZCYIAA98615","A5WWHKD82I8UE","3WUVMVA7OBP2V5NP3991VE8MBDEZA7","","<img src=""img/set1/S4.jpg"" width=""540"" height = ""360"" style=""border:16px solid orange"">","null","","","","","","","","","",""
"null","","html-keyboard-response","384","367128","0.0-384.0","3IOEN3P9S856ZRO8WNOZCYIAA98615","A5WWHKD82I8UE","3WUVMVA7OBP2V5NP3991VE8MBDEZA7","","","null","","","","","","","","","",""
"628.9000000059605","","image-keyboard-response","385","367758","0.0-385.0","3IOEN3P9S856ZRO8WNOZCYIAA98615","A5WWHKD82I8UE","3WUVMVA7OBP2V5NP3991VE8MBDEZA7","","img/set1/S1.jpg","83","1","random","83","random,structured_load,structured_normal,structured_incentive","4,2,1,2,2,3","2,3,1,4","true","","",""
"null","","html-keyboard-response","386","368123","0.0-386.0","3IOEN3P9S856ZRO8WNOZCYIAA98615","A5WWHKD82I8UE","3WUVMVA7OBP2V5NP3991VE8MBDEZA7","","<img src=""img/set1/S1.jpg"" width=""540"" height = ""360"" style=""border:16px solid orange"">","null","","","","","","","","","",""
"null","","html-keyboard-response","387","368339","0.0-387.0","3IOEN3P9S856ZRO8WNOZCYIAA98615","A5WWHKD82I8UE","3WUVMVA7OBP2V5NP3991VE8MBDEZA7","","","null","","","","","","","","","",""
