"rt","url","trial_type","trial_index","time_elapsed","internal_node_id","assignmentID","mturkID","hitID","view_history","stimulus","key_press","state","test_part","correct_response","order_block","order_chunk","order_freq","correct","responses","question_order","bonus"
"204026","consent.html","external-html","0","204110","0.0-0.0","37UQDCYH6YH5P3IBMBDGP0PMTO5V7N","AAF1SJ9FCBF75","388CL5C1RJ9X03EZUESK4LKS9TSHL1","","","","","","","","","","","","",""
"217096","","instructions","1","421209","0.0-1.0","37UQDCYH6YH5P3IBMBDGP0PMTO5V7N","AAF1SJ9FCBF75","388CL5C1RJ9X03EZUESK4LKS9TSHL1","[{""page_index"":0,""viewing_time"":98186},{""page_index"":1,""viewing_time"":8823},{""page_index"":2,""viewing_time"":13929},{""page_index"":3,""viewing_time"":51086},{""page_index"":4,""viewing_time"":10577},{""page_index"":5,""viewing_time"":21119},{""page_index"":6,""viewing_time"":13376}]","","","","","","","","","","","",""
"14311","","instructions","2","435521","0.0-2.0","37UQDCYH6YH5P3IBMBDGP0PMTO5V7N","AAF1SJ9FCBF75","388CL5C1RJ9X03EZUESK4LKS9TSHL1","[{""page_index"":0,""viewing_time"":14311}]","","","","","","","","","","","",""
"10087","","instructions","3","445609","0.0-3.0","37UQDCYH6YH5P3IBMBDGP0PMTO5V7N","AAF1SJ9FCBF75","388CL5C1RJ9X03EZUESK4LKS9TSHL1","[{""page_index"":0,""viewing_time"":10087}]","","","","","","","","","","","",""
"null","","image-keyboard-response","4","448112","0.0-4.0","37UQDCYH6YH5P3IBMBDGP0PMTO5V7N","AAF1SJ9FCBF75","388CL5C1RJ9X03EZUESK4LKS9TSHL1","","img/set1/S4.jpg","null","4","structured_normal","74","structured_normal,structured_incentive,structured_load,random","2,1,3,4,2,3","1,4,3,2","false","","",""
"null","","html-keyboard-response","5","448464","0.0-5.0","37UQDCYH6YH5P3IBMBDGP0PMTO5V7N","AAF1SJ9FCBF75","388CL5C1RJ9X03EZUESK4LKS9TSHL1","","<img src=""img/set1/S4.jpg"" width=""540"" height = ""360"">","null","","","","","","","","","",""
"null","","html-keyboard-response","6","448664","0.0-6.0","37UQDCYH6YH5P3IBMBDGP0PMTO5V7N","AAF1SJ9FCBF75","388CL5C1RJ9X03EZUESK4LKS9TSHL1","","","null","","","","","","","","","",""
"1880","","image-keyboard-response","7","450545","0.0-7.0","37UQDCYH6YH5P3IBMBDGP0PMTO5V7N","AAF1SJ9FCBF75","388CL5C1RJ9X03EZUESK4LKS9TSHL1","","img/set1/S2.jpg","68","2","structured_normal","68","structured_normal,structured_incentive,structured_load,random","2,1,3,4,2,3","1,4,3,2","true","","",""
"null","","html-keyboard-response","8","450896","0.0-8.0","37UQDCYH6YH5P3IBMBDGP0PMTO5V7N","AAF1SJ9FCBF75","388CL5C1RJ9X03EZUESK4LKS9TSHL1","","<img src=""img/set1/S2.jpg"" width=""540"" height = ""360"" style=""border:16px solid orange"">","null","","","","","","","","","",""
"null","","html-keyboard-response","9","451097","0.0-9.0","37UQDCYH6YH5P3IBMBDGP0PMTO5V7N","AAF1SJ9FCBF75","388CL5C1RJ9X03EZUESK4LKS9TSHL1","","","null","","","","","","","","","",""
"1831","","image-keyboard-response","10","452928","0.0-10.0","37UQDCYH6YH5P3IBMBDGP0PMTO5V7N","AAF1SJ9FCBF75","388CL5C1RJ9X03EZUESK4LKS9TSHL1","","img/set1/S1.jpg","72","1","structured_normal","83","structured_normal,structured_incentive,structured_load,random","2,1,3,4,2,3","1,4,3,2","false","","",""
"null","","html-keyboard-response","11","453279","0.0-11.0","37UQDCYH6YH5P3IBMBDGP0PMTO5V7N","AAF1SJ9FCBF75","388CL5C1RJ9X03EZUESK4LKS9TSHL1","","<img src=""img/set1/S1.jpg"" width=""540"" height = ""360"">","null","","","","","","","","","",""
"null","","html-keyboard-response","12","453481","0.0-12.0","37UQDCYH6YH5P3IBMBDGP0PMTO5V7N","AAF1SJ9FCBF75","388CL5C1RJ9X03EZUESK4LKS9TSHL1","","","null","","","","","","","","","",""
"1337","","image-keyboard-response","13","454818","0.0-13.0","37UQDCYH6YH5P3IBMBDGP0PMTO5V7N","AAF1SJ9FCBF75","388CL5C1RJ9X03EZUESK4LKS9TSHL1","","img/set1/S4.jpg","68","4","structured_normal","74","structured_normal,structured_incentive,structured_load,random","2,1,3,4,2,3","1,4,3,2","false","","",""
"null","","html-keyboard-response","14","455169","0.0-14.0","37UQDCYH6YH5P3IBMBDGP0PMTO5V7N","AAF1SJ9FCBF75","388CL5C1RJ9X03EZUESK4LKS9TSHL1","","<img src=""img/set1/S4.jpg"" width=""540"" height = ""360"">","null","","","","","","","","","",""
"null","","html-keyboard-response","15","455371","0.0-15.0","37UQDCYH6YH5P3IBMBDGP0PMTO5V7N","AAF1SJ9FCBF75","388CL5C1RJ9X03EZUESK4LKS9TSHL1","","","null","","","","","","","","","",""
"875","","image-keyboard-response","16","456247","0.0-16.0","37UQDCYH6YH5P3IBMBDGP0PMTO5V7N","AAF1SJ9FCBF75","388CL5C1RJ9X03EZUESK4LKS9TSHL1","","img/set1/S2.jpg","68","2","structured_normal","68","structured_normal,structured_incentive,structured_load,random","2,1,3,4,2,3","1,4,3,2","true","","",""
"null","","html-keyboard-response","17","456599","0.0-17.0","37UQDCYH6YH5P3IBMBDGP0PMTO5V7N","AAF1SJ9FCBF75","388CL5C1RJ9X03EZUESK4LKS9TSHL1","","<img src=""img/set1/S2.jpg"" width=""540"" height = ""360"" style=""border:16px solid orange"">","null","","","","","","","","","",""
"null","","html-keyboard-response","18","456800","0.0-18.0","37UQDCYH6YH5P3IBMBDGP0PMTO5V7N","AAF1SJ9FCBF75","388CL5C1RJ9X03EZUESK4LKS9TSHL1","","","null","","","","","","","","","",""
"1258","","image-keyboard-response","19","458058","0.0-19.0","37UQDCYH6YH5P3IBMBDGP0PMTO5V7N","AAF1SJ9FCBF75","388CL5C1RJ9X03EZUESK4LKS9TSHL1","","img/set1/S1.jpg","72","1","structured_normal","83","structured_normal,structured_incentive,structured_load,random","2,1,3,4,2,3","1,4,3,2","false","","",""
"null","","html-keyboard-response","20","458410","0.0-20.0","37UQDCYH6YH5P3IBMBDGP0PMTO5V7N","AAF1SJ9FCBF75","388CL5C1RJ9X03EZUESK4LKS9TSHL1","","<img src=""img/set1/S1.jpg"" width=""540"" height = ""360"">","null","","","","","","","","","",""
"null","","html-keyboard-response","21","458610","0.0-21.0","37UQDCYH6YH5P3IBMBDGP0PMTO5V7N","AAF1SJ9FCBF75","388CL5C1RJ9X03EZUESK4LKS9TSHL1","","","null","","","","","","","","","",""
"1110","","image-keyboard-response","22","459722","0.0-22.0","37UQDCYH6YH5P3IBMBDGP0PMTO5V7N","AAF1SJ9FCBF75","388CL5C1RJ9X03EZUESK4LKS9TSHL1","","img/set1/S4.jpg","74","4","structured_normal","74","structured_normal,structured_incentive,structured_load,random","2,1,3,4,2,3","1,4,3,2","true","","",""
"null","","html-keyboard-response","23","460072","0.0-23.0","37UQDCYH6YH5P3IBMBDGP0PMTO5V7N","AAF1SJ9FCBF75","388CL5C1RJ9X03EZUESK4LKS9TSHL1","","<img src=""img/set1/S4.jpg"" width=""540"" height = ""360"" style=""border:16px solid orange"">","null","","","","","","","","","",""
"null","","html-keyboard-response","24","460274","0.0-24.0","37UQDCYH6YH5P3IBMBDGP0PMTO5V7N","AAF1SJ9FCBF75","388CL5C1RJ9X03EZUESK4LKS9TSHL1","","","null","","","","","","","","","",""
"1152","","image-keyboard-response","25","461427","0.0-25.0","37UQDCYH6YH5P3IBMBDGP0PMTO5V7N","AAF1SJ9FCBF75","388CL5C1RJ9X03EZUESK4LKS9TSHL1","","img/set1/S3.jpg","83","3","structured_normal","72","structured_normal,structured_incentive,structured_load,random","2,1,3,4,2,3","1,4,3,2","false","","",""
"null","","html-keyboard-response","26","461779","0.0-26.0","37UQDCYH6YH5P3IBMBDGP0PMTO5V7N","AAF1SJ9FCBF75","388CL5C1RJ9X03EZUESK4LKS9TSHL1","","<img src=""img/set1/S3.jpg"" width=""540"" height = ""360"">","null","","","","","","","","","",""
"null","","html-keyboard-response","27","461979","0.0-27.0","37UQDCYH6YH5P3IBMBDGP0PMTO5V7N","AAF1SJ9FCBF75","388CL5C1RJ9X03EZUESK4LKS9TSHL1","","","null","","","","","","","","","",""
"736","","image-keyboard-response","28","462718","0.0-28.0","37UQDCYH6YH5P3IBMBDGP0PMTO5V7N","AAF1SJ9FCBF75","388CL5C1RJ9X03EZUESK4LKS9TSHL1","","img/set1/S2.jpg","68","2","structured_normal","68","structured_normal,structured_incentive,structured_load,random","2,1,3,4,2,3","1,4,3,2","true","","",""
"null","","html-keyboard-response","29","463069","0.0-29.0","37UQDCYH6YH5P3IBMBDGP0PMTO5V7N","AAF1SJ9FCBF75","388CL5C1RJ9X03EZUESK4LKS9TSHL1","","<img src=""img/set1/S2.jpg"" width=""540"" height = ""360"" style=""border:16px solid orange"">","null","","","","","","","","","",""
"null","","html-keyboard-response","30","463270","0.0-30.0","37UQDCYH6YH5P3IBMBDGP0PMTO5V7N","AAF1SJ9FCBF75","388CL5C1RJ9X03EZUESK4LKS9TSHL1","","","null","","","","","","","","","",""
"1151","","image-keyboard-response","31","464423","0.0-31.0","37UQDCYH6YH5P3IBMBDGP0PMTO5V7N","AAF1SJ9FCBF75","388CL5C1RJ9X03EZUESK4LKS9TSHL1","","img/set1/S1.jpg","74","1","structured_normal","83","structured_normal,structured_incentive,structured_load,random","2,1,3,4,2,3","1,4,3,2","false","","",""
"null","","html-keyboard-response","32","464774","0.0-32.0","37UQDCYH6YH5P3IBMBDGP0PMTO5V7N","AAF1SJ9FCBF75","388CL5C1RJ9X03EZUESK4LKS9TSHL1","","<img src=""img/set1/S1.jpg"" width=""540"" height = ""360"">","null","","","","","","","","","",""
"null","","html-keyboard-response","33","464975","0.0-33.0","37UQDCYH6YH5P3IBMBDGP0PMTO5V7N","AAF1SJ9FCBF75","388CL5C1RJ9X03EZUESK4LKS9TSHL1","","","null","","","","","","","","","",""
"738","","image-keyboard-response","34","465713","0.0-34.0","37UQDCYH6YH5P3IBMBDGP0PMTO5V7N","AAF1SJ9FCBF75","388CL5C1RJ9X03EZUESK4LKS9TSHL1","","img/set1/S3.jpg","74","3","structured_normal","72","structured_normal,structured_incentive,structured_load,random","2,1,3,4,2,3","1,4,3,2","false","","",""
"null","","html-keyboard-response","35","466065","0.0-35.0","37UQDCYH6YH5P3IBMBDGP0PMTO5V7N","AAF1SJ9FCBF75","388CL5C1RJ9X03EZUESK4LKS9TSHL1","","<img src=""img/set1/S3.jpg"" width=""540"" height = ""360"">","null","","","","","","","","","",""
"null","","html-keyboard-response","36","466266","0.0-36.0","37UQDCYH6YH5P3IBMBDGP0PMTO5V7N","AAF1SJ9FCBF75","388CL5C1RJ9X03EZUESK4LKS9TSHL1","","","null","","","","","","","","","",""
"921","","image-keyboard-response","37","467188","0.0-37.0","37UQDCYH6YH5P3IBMBDGP0PMTO5V7N","AAF1SJ9FCBF75","388CL5C1RJ9X03EZUESK4LKS9TSHL1","","img/set1/S2.jpg","68","2","structured_normal","68","structured_normal,structured_incentive,structured_load,random","2,1,3,4,2,3","1,4,3,2","true","","",""
"null","","html-keyboard-response","38","467540","0.0-38.0","37UQDCYH6YH5P3IBMBDGP0PMTO5V7N","AAF1SJ9FCBF75","388CL5C1RJ9X03EZUESK4LKS9TSHL1","","<img src=""img/set1/S2.jpg"" width=""540"" height = ""360"" style=""border:16px solid orange"">","null","","","","","","","","","",""
"null","","html-keyboard-response","39","467741","0.0-39.0","37UQDCYH6YH5P3IBMBDGP0PMTO5V7N","AAF1SJ9FCBF75","388CL5C1RJ9X03EZUESK4LKS9TSHL1","","","null","","","","","","","","","",""
"930","","image-keyboard-response","40","468672","0.0-40.0","37UQDCYH6YH5P3IBMBDGP0PMTO5V7N","AAF1SJ9FCBF75","388CL5C1RJ9X03EZUESK4LKS9TSHL1","","img/set1/S1.jpg","72","1","structured_normal","83","structured_normal,structured_incentive,structured_load,random","2,1,3,4,2,3","1,4,3,2","false","","",""
"null","","html-keyboard-response","41","469023","0.0-41.0","37UQDCYH6YH5P3IBMBDGP0PMTO5V7N","AAF1SJ9FCBF75","388CL5C1RJ9X03EZUESK4LKS9TSHL1","","<img src=""img/set1/S1.jpg"" width=""540"" height = ""360"">","null","","","","","","","","","",""
"null","","html-keyboard-response","42","469224","0.0-42.0","37UQDCYH6YH5P3IBMBDGP0PMTO5V7N","AAF1SJ9FCBF75","388CL5C1RJ9X03EZUESK4LKS9TSHL1","","","null","","","","","","","","","",""
"876","","image-keyboard-response","43","470101","0.0-43.0","37UQDCYH6YH5P3IBMBDGP0PMTO5V7N","AAF1SJ9FCBF75","388CL5C1RJ9X03EZUESK4LKS9TSHL1","","img/set1/S2.jpg","68","2","structured_normal","68","structured_normal,structured_incentive,structured_load,random","2,1,3,4,2,3","1,4,3,2","true","","",""
"null","","html-keyboard-response","44","470452","0.0-44.0","37UQDCYH6YH5P3IBMBDGP0PMTO5V7N","AAF1SJ9FCBF75","388CL5C1RJ9X03EZUESK4LKS9TSHL1","","<img src=""img/set1/S2.jpg"" width=""540"" height = ""360"" style=""border:16px solid orange"">","null","","","","","","","","","",""
"null","","html-keyboard-response","45","470653","0.0-45.0","37UQDCYH6YH5P3IBMBDGP0PMTO5V7N","AAF1SJ9FCBF75","388CL5C1RJ9X03EZUESK4LKS9TSHL1","","","null","","","","","","","","","",""
"1014","","image-keyboard-response","46","471668","0.0-46.0","37UQDCYH6YH5P3IBMBDGP0PMTO5V7N","AAF1SJ9FCBF75","388CL5C1RJ9X03EZUESK4LKS9TSHL1","","img/set1/S1.jpg","72","1","structured_normal","83","structured_normal,structured_incentive,structured_load,random","2,1,3,4,2,3","1,4,3,2","false","","",""
"null","","html-keyboard-response","47","472019","0.0-47.0","37UQDCYH6YH5P3IBMBDGP0PMTO5V7N","AAF1SJ9FCBF75","388CL5C1RJ9X03EZUESK4LKS9TSHL1","","<img src=""img/set1/S1.jpg"" width=""540"" height = ""360"">","null","","","","","","","","","",""
"null","","html-keyboard-response","48","472219","0.0-48.0","37UQDCYH6YH5P3IBMBDGP0PMTO5V7N","AAF1SJ9FCBF75","388CL5C1RJ9X03EZUESK4LKS9TSHL1","","","null","","","","","","","","","",""
"738","","image-keyboard-response","49","472958","0.0-49.0","37UQDCYH6YH5P3IBMBDGP0PMTO5V7N","AAF1SJ9FCBF75","388CL5C1RJ9X03EZUESK4LKS9TSHL1","","img/set1/S2.jpg","68","2","structured_normal","68","structured_normal,structured_incentive,structured_load,random","2,1,3,4,2,3","1,4,3,2","true","","",""
"null","","html-keyboard-response","50","473309","0.0-50.0","37UQDCYH6YH5P3IBMBDGP0PMTO5V7N","AAF1SJ9FCBF75","388CL5C1RJ9X03EZUESK4LKS9TSHL1","","<img src=""img/set1/S2.jpg"" width=""540"" height = ""360"" style=""border:16px solid orange"">","null","","","","","","","","","",""
"null","","html-keyboard-response","51","473510","0.0-51.0","37UQDCYH6YH5P3IBMBDGP0PMTO5V7N","AAF1SJ9FCBF75","388CL5C1RJ9X03EZUESK4LKS9TSHL1","","","null","","","","","","","","","",""
"525","","image-keyboard-response","52","474036","0.0-52.0","37UQDCYH6YH5P3IBMBDGP0PMTO5V7N","AAF1SJ9FCBF75","388CL5C1RJ9X03EZUESK4LKS9TSHL1","","img/set1/S1.jpg","83","1","structured_normal","83","structured_normal,structured_incentive,structured_load,random","2,1,3,4,2,3","1,4,3,2","true","","",""
"null","","html-keyboard-response","53","474388","0.0-53.0","37UQDCYH6YH5P3IBMBDGP0PMTO5V7N","AAF1SJ9FCBF75","388CL5C1RJ9X03EZUESK4LKS9TSHL1","","<img src=""img/set1/S1.jpg"" width=""540"" height = ""360"" style=""border:16px solid orange"">","null","","","","","","","","","",""
"null","","html-keyboard-response","54","474588","0.0-54.0","37UQDCYH6YH5P3IBMBDGP0PMTO5V7N","AAF1SJ9FCBF75","388CL5C1RJ9X03EZUESK4LKS9TSHL1","","","null","","","","","","","","","",""
"1135","","image-keyboard-response","55","475724","0.0-55.0","37UQDCYH6YH5P3IBMBDGP0PMTO5V7N","AAF1SJ9FCBF75","388CL5C1RJ9X03EZUESK4LKS9TSHL1","","img/set1/S3.jpg","74","3","structured_normal","72","structured_normal,structured_incentive,structured_load,random","2,1,3,4,2,3","1,4,3,2","false","","",""
"null","","html-keyboard-response","56","476074","0.0-56.0","37UQDCYH6YH5P3IBMBDGP0PMTO5V7N","AAF1SJ9FCBF75","388CL5C1RJ9X03EZUESK4LKS9TSHL1","","<img src=""img/set1/S3.jpg"" width=""540"" height = ""360"">","null","","","","","","","","","",""
"null","","html-keyboard-response","57","476276","0.0-57.0","37UQDCYH6YH5P3IBMBDGP0PMTO5V7N","AAF1SJ9FCBF75","388CL5C1RJ9X03EZUESK4LKS9TSHL1","","","null","","","","","","","","","",""
"738","","image-keyboard-response","58","477014","0.0-58.0","37UQDCYH6YH5P3IBMBDGP0PMTO5V7N","AAF1SJ9FCBF75","388CL5C1RJ9X03EZUESK4LKS9TSHL1","","img/set1/S4.jpg","74","4","structured_normal","74","structured_normal,structured_incentive,structured_load,random","2,1,3,4,2,3","1,4,3,2","true","","",""
"null","","html-keyboard-response","59","477366","0.0-59.0","37UQDCYH6YH5P3IBMBDGP0PMTO5V7N","AAF1SJ9FCBF75","388CL5C1RJ9X03EZUESK4LKS9TSHL1","","<img src=""img/set1/S4.jpg"" width=""540"" height = ""360"" style=""border:16px solid orange"">","null","","","","","","","","","",""
"null","","html-keyboard-response","60","477567","0.0-60.0","37UQDCYH6YH5P3IBMBDGP0PMTO5V7N","AAF1SJ9FCBF75","388CL5C1RJ9X03EZUESK4LKS9TSHL1","","","null","","","","","","","","","",""
"784","","image-keyboard-response","61","478350","0.0-61.0","37UQDCYH6YH5P3IBMBDGP0PMTO5V7N","AAF1SJ9FCBF75","388CL5C1RJ9X03EZUESK4LKS9TSHL1","","img/set1/S4.jpg","74","4","structured_normal","74","structured_normal,structured_incentive,structured_load,random","2,1,3,4,2,3","1,4,3,2","true","","",""
"null","","html-keyboard-response","62","478702","0.0-62.0","37UQDCYH6YH5P3IBMBDGP0PMTO5V7N","AAF1SJ9FCBF75","388CL5C1RJ9X03EZUESK4LKS9TSHL1","","<img src=""img/set1/S4.jpg"" width=""540"" height = ""360"" style=""border:16px solid orange"">","null","","","","","","","","","",""
"null","","html-keyboard-response","63","478902","0.0-63.0","37UQDCYH6YH5P3IBMBDGP0PMTO5V7N","AAF1SJ9FCBF75","388CL5C1RJ9X03EZUESK4LKS9TSHL1","","","null","","","","","","","","","",""
"922","","image-keyboard-response","64","479825","0.0-64.0","37UQDCYH6YH5P3IBMBDGP0PMTO5V7N","AAF1SJ9FCBF75","388CL5C1RJ9X03EZUESK4LKS9TSHL1","","img/set1/S3.jpg","72","3","structured_normal","72","structured_normal,structured_incentive,structured_load,random","2,1,3,4,2,3","1,4,3,2","true","","",""
"null","","html-keyboard-response","65","480177","0.0-65.0","37UQDCYH6YH5P3IBMBDGP0PMTO5V7N","AAF1SJ9FCBF75","388CL5C1RJ9X03EZUESK4LKS9TSHL1","","<img src=""img/set1/S3.jpg"" width=""540"" height = ""360"" style=""border:16px solid orange"">","null","","","","","","","","","",""
"null","","html-keyboard-response","66","480378","0.0-66.0","37UQDCYH6YH5P3IBMBDGP0PMTO5V7N","AAF1SJ9FCBF75","388CL5C1RJ9X03EZUESK4LKS9TSHL1","","","null","","","","","","","","","",""
"921","","image-keyboard-response","67","481300","0.0-67.0","37UQDCYH6YH5P3IBMBDGP0PMTO5V7N","AAF1SJ9FCBF75","388CL5C1RJ9X03EZUESK4LKS9TSHL1","","img/set1/S2.jpg","68","2","structured_normal","68","structured_normal,structured_incentive,structured_load,random","2,1,3,4,2,3","1,4,3,2","true","","",""
"null","","html-keyboard-response","68","481652","0.0-68.0","37UQDCYH6YH5P3IBMBDGP0PMTO5V7N","AAF1SJ9FCBF75","388CL5C1RJ9X03EZUESK4LKS9TSHL1","","<img src=""img/set1/S2.jpg"" width=""540"" height = ""360"" style=""border:16px solid orange"">","null","","","","","","","","","",""
"null","","html-keyboard-response","69","481853","0.0-69.0","37UQDCYH6YH5P3IBMBDGP0PMTO5V7N","AAF1SJ9FCBF75","388CL5C1RJ9X03EZUESK4LKS9TSHL1","","","null","","","","","","","","","",""
"1060","","image-keyboard-response","70","482915","0.0-70.0","37UQDCYH6YH5P3IBMBDGP0PMTO5V7N","AAF1SJ9FCBF75","388CL5C1RJ9X03EZUESK4LKS9TSHL1","","img/set1/S1.jpg","83","1","structured_normal","83","structured_normal,structured_incentive,structured_load,random","2,1,3,4,2,3","1,4,3,2","true","","",""
"null","","html-keyboard-response","71","483266","0.0-71.0","37UQDCYH6YH5P3IBMBDGP0PMTO5V7N","AAF1SJ9FCBF75","388CL5C1RJ9X03EZUESK4LKS9TSHL1","","<img src=""img/set1/S1.jpg"" width=""540"" height = ""360"" style=""border:16px solid orange"">","null","","","","","","","","","",""
"null","","html-keyboard-response","72","483466","0.0-72.0","37UQDCYH6YH5P3IBMBDGP0PMTO5V7N","AAF1SJ9FCBF75","388CL5C1RJ9X03EZUESK4LKS9TSHL1","","","null","","","","","","","","","",""
"1428","","image-keyboard-response","73","484895","0.0-73.0","37UQDCYH6YH5P3IBMBDGP0PMTO5V7N","AAF1SJ9FCBF75","388CL5C1RJ9X03EZUESK4LKS9TSHL1","","img/set1/S3.jpg","74","3","structured_normal","72","structured_normal,structured_incentive,structured_load,random","2,1,3,4,2,3","1,4,3,2","false","","",""
"null","","html-keyboard-response","74","485246","0.0-74.0","37UQDCYH6YH5P3IBMBDGP0PMTO5V7N","AAF1SJ9FCBF75","388CL5C1RJ9X03EZUESK4LKS9TSHL1","","<img src=""img/set1/S3.jpg"" width=""540"" height = ""360"">","null","","","","","","","","","",""
"null","","html-keyboard-response","75","485446","0.0-75.0","37UQDCYH6YH5P3IBMBDGP0PMTO5V7N","AAF1SJ9FCBF75","388CL5C1RJ9X03EZUESK4LKS9TSHL1","","","null","","","","","","","","","",""
"645","","image-keyboard-response","76","486093","0.0-76.0","37UQDCYH6YH5P3IBMBDGP0PMTO5V7N","AAF1SJ9FCBF75","388CL5C1RJ9X03EZUESK4LKS9TSHL1","","img/set1/S4.jpg","74","4","structured_normal","74","structured_normal,structured_incentive,structured_load,random","2,1,3,4,2,3","1,4,3,2","true","","",""
"null","","html-keyboard-response","77","486445","0.0-77.0","37UQDCYH6YH5P3IBMBDGP0PMTO5V7N","AAF1SJ9FCBF75","388CL5C1RJ9X03EZUESK4LKS9TSHL1","","<img src=""img/set1/S4.jpg"" width=""540"" height = ""360"" style=""border:16px solid orange"">","null","","","","","","","","","",""
"null","","html-keyboard-response","78","486646","0.0-78.0","37UQDCYH6YH5P3IBMBDGP0PMTO5V7N","AAF1SJ9FCBF75","388CL5C1RJ9X03EZUESK4LKS9TSHL1","","","null","","","","","","","","","",""
"692","","image-keyboard-response","79","487338","0.0-79.0","37UQDCYH6YH5P3IBMBDGP0PMTO5V7N","AAF1SJ9FCBF75","388CL5C1RJ9X03EZUESK4LKS9TSHL1","","img/set1/S2.jpg","68","2","structured_normal","68","structured_normal,structured_incentive,structured_load,random","2,1,3,4,2,3","1,4,3,2","true","","",""
"null","","html-keyboard-response","80","487689","0.0-80.0","37UQDCYH6YH5P3IBMBDGP0PMTO5V7N","AAF1SJ9FCBF75","388CL5C1RJ9X03EZUESK4LKS9TSHL1","","<img src=""img/set1/S2.jpg"" width=""540"" height = ""360"" style=""border:16px solid orange"">","null","","","","","","","","","",""
"null","","html-keyboard-response","81","487890","0.0-81.0","37UQDCYH6YH5P3IBMBDGP0PMTO5V7N","AAF1SJ9FCBF75","388CL5C1RJ9X03EZUESK4LKS9TSHL1","","","null","","","","","","","","","",""
"831","","image-keyboard-response","82","488721","0.0-82.0","37UQDCYH6YH5P3IBMBDGP0PMTO5V7N","AAF1SJ9FCBF75","388CL5C1RJ9X03EZUESK4LKS9TSHL1","","img/set1/S1.jpg","83","1","structured_normal","83","structured_normal,structured_incentive,structured_load,random","2,1,3,4,2,3","1,4,3,2","true","","",""
"null","","html-keyboard-response","83","489072","0.0-83.0","37UQDCYH6YH5P3IBMBDGP0PMTO5V7N","AAF1SJ9FCBF75","388CL5C1RJ9X03EZUESK4LKS9TSHL1","","<img src=""img/set1/S1.jpg"" width=""540"" height = ""360"" style=""border:16px solid orange"">","null","","","","","","","","","",""
"null","","html-keyboard-response","84","489273","0.0-84.0","37UQDCYH6YH5P3IBMBDGP0PMTO5V7N","AAF1SJ9FCBF75","388CL5C1RJ9X03EZUESK4LKS9TSHL1","","","null","","","","","","","","","",""
"876","","image-keyboard-response","85","490150","0.0-85.0","37UQDCYH6YH5P3IBMBDGP0PMTO5V7N","AAF1SJ9FCBF75","388CL5C1RJ9X03EZUESK4LKS9TSHL1","","img/set1/S2.jpg","68","2","structured_normal","68","structured_normal,structured_incentive,structured_load,random","2,1,3,4,2,3","1,4,3,2","true","","",""
"null","","html-keyboard-response","86","490501","0.0-86.0","37UQDCYH6YH5P3IBMBDGP0PMTO5V7N","AAF1SJ9FCBF75","388CL5C1RJ9X03EZUESK4LKS9TSHL1","","<img src=""img/set1/S2.jpg"" width=""540"" height = ""360"" style=""border:16px solid orange"">","null","","","","","","","","","",""
"null","","html-keyboard-response","87","490702","0.0-87.0","37UQDCYH6YH5P3IBMBDGP0PMTO5V7N","AAF1SJ9FCBF75","388CL5C1RJ9X03EZUESK4LKS9TSHL1","","","null","","","","","","","","","",""
"1106","","image-keyboard-response","88","491809","0.0-88.0","37UQDCYH6YH5P3IBMBDGP0PMTO5V7N","AAF1SJ9FCBF75","388CL5C1RJ9X03EZUESK4LKS9TSHL1","","img/set1/S1.jpg","83","1","structured_normal","83","structured_normal,structured_incentive,structured_load,random","2,1,3,4,2,3","1,4,3,2","true","","",""
"null","","html-keyboard-response","89","492160","0.0-89.0","37UQDCYH6YH5P3IBMBDGP0PMTO5V7N","AAF1SJ9FCBF75","388CL5C1RJ9X03EZUESK4LKS9TSHL1","","<img src=""img/set1/S1.jpg"" width=""540"" height = ""360"" style=""border:16px solid orange"">","null","","","","","","","","","",""
"null","","html-keyboard-response","90","492361","0.0-90.0","37UQDCYH6YH5P3IBMBDGP0PMTO5V7N","AAF1SJ9FCBF75","388CL5C1RJ9X03EZUESK4LKS9TSHL1","","","null","","","","","","","","","",""
"876","","image-keyboard-response","91","493239","0.0-91.0","37UQDCYH6YH5P3IBMBDGP0PMTO5V7N","AAF1SJ9FCBF75","388CL5C1RJ9X03EZUESK4LKS9TSHL1","","img/set1/S2.jpg","68","2","structured_normal","68","structured_normal,structured_incentive,structured_load,random","2,1,3,4,2,3","1,4,3,2","true","","",""
"null","","html-keyboard-response","92","493589","0.0-92.0","37UQDCYH6YH5P3IBMBDGP0PMTO5V7N","AAF1SJ9FCBF75","388CL5C1RJ9X03EZUESK4LKS9TSHL1","","<img src=""img/set1/S2.jpg"" width=""540"" height = ""360"" style=""border:16px solid orange"">","null","","","","","","","","","",""
"null","","html-keyboard-response","93","493791","0.0-93.0","37UQDCYH6YH5P3IBMBDGP0PMTO5V7N","AAF1SJ9FCBF75","388CL5C1RJ9X03EZUESK4LKS9TSHL1","","","null","","","","","","","","","",""
"837","","image-keyboard-response","94","494629","0.0-94.0","37UQDCYH6YH5P3IBMBDGP0PMTO5V7N","AAF1SJ9FCBF75","388CL5C1RJ9X03EZUESK4LKS9TSHL1","","img/set1/S1.jpg","83","1","structured_normal","83","structured_normal,structured_incentive,structured_load,random","2,1,3,4,2,3","1,4,3,2","true","","",""
"null","","html-keyboard-response","95","494979","0.0-95.0","37UQDCYH6YH5P3IBMBDGP0PMTO5V7N","AAF1SJ9FCBF75","388CL5C1RJ9X03EZUESK4LKS9TSHL1","","<img src=""img/set1/S1.jpg"" width=""540"" height = ""360"" style=""border:16px solid orange"">","null","","","","","","","","","",""
"null","","html-keyboard-response","96","495180","0.0-96.0","37UQDCYH6YH5P3IBMBDGP0PMTO5V7N","AAF1SJ9FCBF75","388CL5C1RJ9X03EZUESK4LKS9TSHL1","","","null","","","","","","","","","",""
"1061","","image-keyboard-response","97","496242","0.0-97.0","37UQDCYH6YH5P3IBMBDGP0PMTO5V7N","AAF1SJ9FCBF75","388CL5C1RJ9X03EZUESK4LKS9TSHL1","","img/set1/S3.jpg","72","3","structured_normal","72","structured_normal,structured_incentive,structured_load,random","2,1,3,4,2,3","1,4,3,2","true","","",""
"null","","html-keyboard-response","98","496593","0.0-98.0","37UQDCYH6YH5P3IBMBDGP0PMTO5V7N","AAF1SJ9FCBF75","388CL5C1RJ9X03EZUESK4LKS9TSHL1","","<img src=""img/set1/S3.jpg"" width=""540"" height = ""360"" style=""border:16px solid orange"">","null","","","","","","","","","",""
"null","","html-keyboard-response","99","496795","0.0-99.0","37UQDCYH6YH5P3IBMBDGP0PMTO5V7N","AAF1SJ9FCBF75","388CL5C1RJ9X03EZUESK4LKS9TSHL1","","","null","","","","","","","","","",""
"701","","image-keyboard-response","100","497496","0.0-100.0","37UQDCYH6YH5P3IBMBDGP0PMTO5V7N","AAF1SJ9FCBF75","388CL5C1RJ9X03EZUESK4LKS9TSHL1","","img/set1/S2.jpg","68","2","structured_normal","68","structured_normal,structured_incentive,structured_load,random","2,1,3,4,2,3","1,4,3,2","true","","",""
"null","","html-keyboard-response","101","497848","0.0-101.0","37UQDCYH6YH5P3IBMBDGP0PMTO5V7N","AAF1SJ9FCBF75","388CL5C1RJ9X03EZUESK4LKS9TSHL1","","<img src=""img/set1/S2.jpg"" width=""540"" height = ""360"" style=""border:16px solid orange"">","null","","","","","","","","","",""
"null","","html-keyboard-response","102","498049","0.0-102.0","37UQDCYH6YH5P3IBMBDGP0PMTO5V7N","AAF1SJ9FCBF75","388CL5C1RJ9X03EZUESK4LKS9TSHL1","","","null","","","","","","","","","",""
"735","","image-keyboard-response","103","498785","0.0-103.0","37UQDCYH6YH5P3IBMBDGP0PMTO5V7N","AAF1SJ9FCBF75","388CL5C1RJ9X03EZUESK4LKS9TSHL1","","img/set1/S1.jpg","83","1","structured_normal","83","structured_normal,structured_incentive,structured_load,random","2,1,3,4,2,3","1,4,3,2","true","","",""
"null","","html-keyboard-response","104","499137","0.0-104.0","37UQDCYH6YH5P3IBMBDGP0PMTO5V7N","AAF1SJ9FCBF75","388CL5C1RJ9X03EZUESK4LKS9TSHL1","","<img src=""img/set1/S1.jpg"" width=""540"" height = ""360"" style=""border:16px solid orange"">","null","","","","","","","","","",""
"null","","html-keyboard-response","105","499337","0.0-105.0","37UQDCYH6YH5P3IBMBDGP0PMTO5V7N","AAF1SJ9FCBF75","388CL5C1RJ9X03EZUESK4LKS9TSHL1","","","null","","","","","","","","","",""
"691","","image-keyboard-response","106","500031","0.0-106.0","37UQDCYH6YH5P3IBMBDGP0PMTO5V7N","AAF1SJ9FCBF75","388CL5C1RJ9X03EZUESK4LKS9TSHL1","","img/set1/S2.jpg","68","2","structured_normal","68","structured_normal,structured_incentive,structured_load,random","2,1,3,4,2,3","1,4,3,2","true","","",""
"null","","html-keyboard-response","107","500381","0.0-107.0","37UQDCYH6YH5P3IBMBDGP0PMTO5V7N","AAF1SJ9FCBF75","388CL5C1RJ9X03EZUESK4LKS9TSHL1","","<img src=""img/set1/S2.jpg"" width=""540"" height = ""360"" style=""border:16px solid orange"">","null","","","","","","","","","",""
"null","","html-keyboard-response","108","500582","0.0-108.0","37UQDCYH6YH5P3IBMBDGP0PMTO5V7N","AAF1SJ9FCBF75","388CL5C1RJ9X03EZUESK4LKS9TSHL1","","","null","","","","","","","","","",""
"876","","image-keyboard-response","109","501459","0.0-109.0","37UQDCYH6YH5P3IBMBDGP0PMTO5V7N","AAF1SJ9FCBF75","388CL5C1RJ9X03EZUESK4LKS9TSHL1","","img/set1/S1.jpg","83","1","structured_normal","83","structured_normal,structured_incentive,structured_load,random","2,1,3,4,2,3","1,4,3,2","true","","",""
"null","","html-keyboard-response","110","501811","0.0-110.0","37UQDCYH6YH5P3IBMBDGP0PMTO5V7N","AAF1SJ9FCBF75","388CL5C1RJ9X03EZUESK4LKS9TSHL1","","<img src=""img/set1/S1.jpg"" width=""540"" height = ""360"" style=""border:16px solid orange"">","null","","","","","","","","","",""
"null","","html-keyboard-response","111","502012","0.0-111.0","37UQDCYH6YH5P3IBMBDGP0PMTO5V7N","AAF1SJ9FCBF75","388CL5C1RJ9X03EZUESK4LKS9TSHL1","","","null","","","","","","","","","",""
"731","","image-keyboard-response","112","502743","0.0-112.0","37UQDCYH6YH5P3IBMBDGP0PMTO5V7N","AAF1SJ9FCBF75","388CL5C1RJ9X03EZUESK4LKS9TSHL1","","img/set1/S4.jpg","74","4","structured_normal","74","structured_normal,structured_incentive,structured_load,random","2,1,3,4,2,3","1,4,3,2","true","","",""
"null","","html-keyboard-response","113","503095","0.0-113.0","37UQDCYH6YH5P3IBMBDGP0PMTO5V7N","AAF1SJ9FCBF75","388CL5C1RJ9X03EZUESK4LKS9TSHL1","","<img src=""img/set1/S4.jpg"" width=""540"" height = ""360"" style=""border:16px solid orange"">","null","","","","","","","","","",""
"null","","html-keyboard-response","114","503295","0.0-114.0","37UQDCYH6YH5P3IBMBDGP0PMTO5V7N","AAF1SJ9FCBF75","388CL5C1RJ9X03EZUESK4LKS9TSHL1","","","null","","","","","","","","","",""
"605","","image-keyboard-response","115","503903","0.0-115.0","37UQDCYH6YH5P3IBMBDGP0PMTO5V7N","AAF1SJ9FCBF75","388CL5C1RJ9X03EZUESK4LKS9TSHL1","","img/set1/S3.jpg","72","3","structured_normal","72","structured_normal,structured_incentive,structured_load,random","2,1,3,4,2,3","1,4,3,2","true","","",""
"null","","html-keyboard-response","116","504254","0.0-116.0","37UQDCYH6YH5P3IBMBDGP0PMTO5V7N","AAF1SJ9FCBF75","388CL5C1RJ9X03EZUESK4LKS9TSHL1","","<img src=""img/set1/S3.jpg"" width=""540"" height = ""360"" style=""border:16px solid orange"">","null","","","","","","","","","",""
"null","","html-keyboard-response","117","504455","0.0-117.0","37UQDCYH6YH5P3IBMBDGP0PMTO5V7N","AAF1SJ9FCBF75","388CL5C1RJ9X03EZUESK4LKS9TSHL1","","","null","","","","","","","","","",""
"600","","image-keyboard-response","118","505056","0.0-118.0","37UQDCYH6YH5P3IBMBDGP0PMTO5V7N","AAF1SJ9FCBF75","388CL5C1RJ9X03EZUESK4LKS9TSHL1","","img/set1/S2.jpg","68","2","structured_normal","68","structured_normal,structured_incentive,structured_load,random","2,1,3,4,2,3","1,4,3,2","true","","",""
"null","","html-keyboard-response","119","505407","0.0-119.0","37UQDCYH6YH5P3IBMBDGP0PMTO5V7N","AAF1SJ9FCBF75","388CL5C1RJ9X03EZUESK4LKS9TSHL1","","<img src=""img/set1/S2.jpg"" width=""540"" height = ""360"" style=""border:16px solid orange"">","null","","","","","","","","","",""
"null","","html-keyboard-response","120","505608","0.0-120.0","37UQDCYH6YH5P3IBMBDGP0PMTO5V7N","AAF1SJ9FCBF75","388CL5C1RJ9X03EZUESK4LKS9TSHL1","","","null","","","","","","","","","",""
"600","","image-keyboard-response","121","506209","0.0-121.0","37UQDCYH6YH5P3IBMBDGP0PMTO5V7N","AAF1SJ9FCBF75","388CL5C1RJ9X03EZUESK4LKS9TSHL1","","img/set1/S1.jpg","83","1","structured_normal","83","structured_normal,structured_incentive,structured_load,random","2,1,3,4,2,3","1,4,3,2","true","","",""
"null","","html-keyboard-response","122","506560","0.0-122.0","37UQDCYH6YH5P3IBMBDGP0PMTO5V7N","AAF1SJ9FCBF75","388CL5C1RJ9X03EZUESK4LKS9TSHL1","","<img src=""img/set1/S1.jpg"" width=""540"" height = ""360"" style=""border:16px solid orange"">","null","","","","","","","","","",""
"null","","html-keyboard-response","123","506761","0.0-123.0","37UQDCYH6YH5P3IBMBDGP0PMTO5V7N","AAF1SJ9FCBF75","388CL5C1RJ9X03EZUESK4LKS9TSHL1","","","null","","","","","","","","","",""
"659","","image-keyboard-response","124","507421","0.0-124.0","37UQDCYH6YH5P3IBMBDGP0PMTO5V7N","AAF1SJ9FCBF75","388CL5C1RJ9X03EZUESK4LKS9TSHL1","","img/set1/S4.jpg","74","4","structured_normal","74","structured_normal,structured_incentive,structured_load,random","2,1,3,4,2,3","1,4,3,2","true","","",""
"null","","html-keyboard-response","125","507772","0.0-125.0","37UQDCYH6YH5P3IBMBDGP0PMTO5V7N","AAF1SJ9FCBF75","388CL5C1RJ9X03EZUESK4LKS9TSHL1","","<img src=""img/set1/S4.jpg"" width=""540"" height = ""360"" style=""border:16px solid orange"">","null","","","","","","","","","",""
"null","","html-keyboard-response","126","507973","0.0-126.0","37UQDCYH6YH5P3IBMBDGP0PMTO5V7N","AAF1SJ9FCBF75","388CL5C1RJ9X03EZUESK4LKS9TSHL1","","","null","","","","","","","","","",""
"508","","image-keyboard-response","127","508481","0.0-127.0","37UQDCYH6YH5P3IBMBDGP0PMTO5V7N","AAF1SJ9FCBF75","388CL5C1RJ9X03EZUESK4LKS9TSHL1","","img/set1/S3.jpg","72","3","structured_normal","72","structured_normal,structured_incentive,structured_load,random","2,1,3,4,2,3","1,4,3,2","true","","",""
"null","","html-keyboard-response","128","508832","0.0-128.0","37UQDCYH6YH5P3IBMBDGP0PMTO5V7N","AAF1SJ9FCBF75","388CL5C1RJ9X03EZUESK4LKS9TSHL1","","<img src=""img/set1/S3.jpg"" width=""540"" height = ""360"" style=""border:16px solid orange"">","null","","","","","","","","","",""
"null","","html-keyboard-response","129","509033","0.0-129.0","37UQDCYH6YH5P3IBMBDGP0PMTO5V7N","AAF1SJ9FCBF75","388CL5C1RJ9X03EZUESK4LKS9TSHL1","","","null","","","","","","","","","",""
"647","","image-keyboard-response","130","509680","0.0-130.0","37UQDCYH6YH5P3IBMBDGP0PMTO5V7N","AAF1SJ9FCBF75","388CL5C1RJ9X03EZUESK4LKS9TSHL1","","img/set1/S2.jpg","68","2","structured_normal","68","structured_normal,structured_incentive,structured_load,random","2,1,3,4,2,3","1,4,3,2","true","","",""
"null","","html-keyboard-response","131","510031","0.0-131.0","37UQDCYH6YH5P3IBMBDGP0PMTO5V7N","AAF1SJ9FCBF75","388CL5C1RJ9X03EZUESK4LKS9TSHL1","","<img src=""img/set1/S2.jpg"" width=""540"" height = ""360"" style=""border:16px solid orange"">","null","","","","","","","","","",""
"null","","html-keyboard-response","132","510232","0.0-132.0","37UQDCYH6YH5P3IBMBDGP0PMTO5V7N","AAF1SJ9FCBF75","388CL5C1RJ9X03EZUESK4LKS9TSHL1","","","null","","","","","","","","","",""
"554","","image-keyboard-response","133","510787","0.0-133.0","37UQDCYH6YH5P3IBMBDGP0PMTO5V7N","AAF1SJ9FCBF75","388CL5C1RJ9X03EZUESK4LKS9TSHL1","","img/set1/S1.jpg","83","1","structured_normal","83","structured_normal,structured_incentive,structured_load,random","2,1,3,4,2,3","1,4,3,2","true","","",""
"null","","html-keyboard-response","134","511139","0.0-134.0","37UQDCYH6YH5P3IBMBDGP0PMTO5V7N","AAF1SJ9FCBF75","388CL5C1RJ9X03EZUESK4LKS9TSHL1","","<img src=""img/set1/S1.jpg"" width=""540"" height = ""360"" style=""border:16px solid orange"">","null","","","","","","","","","",""
"null","","html-keyboard-response","135","511339","0.0-135.0","37UQDCYH6YH5P3IBMBDGP0PMTO5V7N","AAF1SJ9FCBF75","388CL5C1RJ9X03EZUESK4LKS9TSHL1","","","null","","","","","","","","","",""
"553","","image-keyboard-response","136","511893","0.0-136.0","37UQDCYH6YH5P3IBMBDGP0PMTO5V7N","AAF1SJ9FCBF75","388CL5C1RJ9X03EZUESK4LKS9TSHL1","","img/set1/S2.jpg","68","2","structured_normal","68","structured_normal,structured_incentive,structured_load,random","2,1,3,4,2,3","1,4,3,2","true","","",""
"null","","html-keyboard-response","137","512244","0.0-137.0","37UQDCYH6YH5P3IBMBDGP0PMTO5V7N","AAF1SJ9FCBF75","388CL5C1RJ9X03EZUESK4LKS9TSHL1","","<img src=""img/set1/S2.jpg"" width=""540"" height = ""360"" style=""border:16px solid orange"">","null","","","","","","","","","",""
"null","","html-keyboard-response","138","512445","0.0-138.0","37UQDCYH6YH5P3IBMBDGP0PMTO5V7N","AAF1SJ9FCBF75","388CL5C1RJ9X03EZUESK4LKS9TSHL1","","","null","","","","","","","","","",""
"600","","image-keyboard-response","139","513046","0.0-139.0","37UQDCYH6YH5P3IBMBDGP0PMTO5V7N","AAF1SJ9FCBF75","388CL5C1RJ9X03EZUESK4LKS9TSHL1","","img/set1/S1.jpg","83","1","structured_normal","83","structured_normal,structured_incentive,structured_load,random","2,1,3,4,2,3","1,4,3,2","true","","",""
"null","","html-keyboard-response","140","513397","0.0-140.0","37UQDCYH6YH5P3IBMBDGP0PMTO5V7N","AAF1SJ9FCBF75","388CL5C1RJ9X03EZUESK4LKS9TSHL1","","<img src=""img/set1/S1.jpg"" width=""540"" height = ""360"" style=""border:16px solid orange"">","null","","","","","","","","","",""
"null","","html-keyboard-response","141","513598","0.0-141.0","37UQDCYH6YH5P3IBMBDGP0PMTO5V7N","AAF1SJ9FCBF75","388CL5C1RJ9X03EZUESK4LKS9TSHL1","","","null","","","","","","","","","",""
"616","","image-keyboard-response","142","514215","0.0-142.0","37UQDCYH6YH5P3IBMBDGP0PMTO5V7N","AAF1SJ9FCBF75","388CL5C1RJ9X03EZUESK4LKS9TSHL1","","img/set1/S3.jpg","68","3","structured_normal","72","structured_normal,structured_incentive,structured_load,random","2,1,3,4,2,3","1,4,3,2","false","","",""
"null","","html-keyboard-response","143","514566","0.0-143.0","37UQDCYH6YH5P3IBMBDGP0PMTO5V7N","AAF1SJ9FCBF75","388CL5C1RJ9X03EZUESK4LKS9TSHL1","","<img src=""img/set1/S3.jpg"" width=""540"" height = ""360"">","null","","","","","","","","","",""
"null","","html-keyboard-response","144","514767","0.0-144.0","37UQDCYH6YH5P3IBMBDGP0PMTO5V7N","AAF1SJ9FCBF75","388CL5C1RJ9X03EZUESK4LKS9TSHL1","","","null","","","","","","","","","",""
"603","","image-keyboard-response","145","515371","0.0-145.0","37UQDCYH6YH5P3IBMBDGP0PMTO5V7N","AAF1SJ9FCBF75","388CL5C1RJ9X03EZUESK4LKS9TSHL1","","img/set1/S3.jpg","72","3","structured_normal","72","structured_normal,structured_incentive,structured_load,random","2,1,3,4,2,3","1,4,3,2","true","","",""
"null","","html-keyboard-response","146","515723","0.0-146.0","37UQDCYH6YH5P3IBMBDGP0PMTO5V7N","AAF1SJ9FCBF75","388CL5C1RJ9X03EZUESK4LKS9TSHL1","","<img src=""img/set1/S3.jpg"" width=""540"" height = ""360"" style=""border:16px solid orange"">","null","","","","","","","","","",""
"null","","html-keyboard-response","147","515923","0.0-147.0","37UQDCYH6YH5P3IBMBDGP0PMTO5V7N","AAF1SJ9FCBF75","388CL5C1RJ9X03EZUESK4LKS9TSHL1","","","null","","","","","","","","","",""
"554","","image-keyboard-response","148","516478","0.0-148.0","37UQDCYH6YH5P3IBMBDGP0PMTO5V7N","AAF1SJ9FCBF75","388CL5C1RJ9X03EZUESK4LKS9TSHL1","","img/set1/S4.jpg","74","4","structured_normal","74","structured_normal,structured_incentive,structured_load,random","2,1,3,4,2,3","1,4,3,2","true","","",""
"null","","html-keyboard-response","149","516829","0.0-149.0","37UQDCYH6YH5P3IBMBDGP0PMTO5V7N","AAF1SJ9FCBF75","388CL5C1RJ9X03EZUESK4LKS9TSHL1","","<img src=""img/set1/S4.jpg"" width=""540"" height = ""360"" style=""border:16px solid orange"">","null","","","","","","","","","",""
"null","","html-keyboard-response","150","517030","0.0-150.0","37UQDCYH6YH5P3IBMBDGP0PMTO5V7N","AAF1SJ9FCBF75","388CL5C1RJ9X03EZUESK4LKS9TSHL1","","","null","","","","","","","","","",""
"646","","image-keyboard-response","151","517677","0.0-151.0","37UQDCYH6YH5P3IBMBDGP0PMTO5V7N","AAF1SJ9FCBF75","388CL5C1RJ9X03EZUESK4LKS9TSHL1","","img/set1/S3.jpg","72","3","structured_normal","72","structured_normal,structured_incentive,structured_load,random","2,1,3,4,2,3","1,4,3,2","true","","",""
"null","","html-keyboard-response","152","518028","0.0-152.0","37UQDCYH6YH5P3IBMBDGP0PMTO5V7N","AAF1SJ9FCBF75","388CL5C1RJ9X03EZUESK4LKS9TSHL1","","<img src=""img/set1/S3.jpg"" width=""540"" height = ""360"" style=""border:16px solid orange"">","null","","","","","","","","","",""
"null","","html-keyboard-response","153","518229","0.0-153.0","37UQDCYH6YH5P3IBMBDGP0PMTO5V7N","AAF1SJ9FCBF75","388CL5C1RJ9X03EZUESK4LKS9TSHL1","","","null","","","","","","","","","",""
"600","","image-keyboard-response","154","518829","0.0-154.0","37UQDCYH6YH5P3IBMBDGP0PMTO5V7N","AAF1SJ9FCBF75","388CL5C1RJ9X03EZUESK4LKS9TSHL1","","img/set1/S2.jpg","68","2","structured_normal","68","structured_normal,structured_incentive,structured_load,random","2,1,3,4,2,3","1,4,3,2","true","","",""
"null","","html-keyboard-response","155","519181","0.0-155.0","37UQDCYH6YH5P3IBMBDGP0PMTO5V7N","AAF1SJ9FCBF75","388CL5C1RJ9X03EZUESK4LKS9TSHL1","","<img src=""img/set1/S2.jpg"" width=""540"" height = ""360"" style=""border:16px solid orange"">","null","","","","","","","","","",""
"null","","html-keyboard-response","156","519381","0.0-156.0","37UQDCYH6YH5P3IBMBDGP0PMTO5V7N","AAF1SJ9FCBF75","388CL5C1RJ9X03EZUESK4LKS9TSHL1","","","null","","","","","","","","","",""
"600","","image-keyboard-response","157","519983","0.0-157.0","37UQDCYH6YH5P3IBMBDGP0PMTO5V7N","AAF1SJ9FCBF75","388CL5C1RJ9X03EZUESK4LKS9TSHL1","","img/set1/S1.jpg","83","1","structured_normal","83","structured_normal,structured_incentive,structured_load,random","2,1,3,4,2,3","1,4,3,2","true","","",""
"null","","html-keyboard-response","158","520334","0.0-158.0","37UQDCYH6YH5P3IBMBDGP0PMTO5V7N","AAF1SJ9FCBF75","388CL5C1RJ9X03EZUESK4LKS9TSHL1","","<img src=""img/set1/S1.jpg"" width=""540"" height = ""360"" style=""border:16px solid orange"">","null","","","","","","","","","",""
"null","","html-keyboard-response","159","520534","0.0-159.0","37UQDCYH6YH5P3IBMBDGP0PMTO5V7N","AAF1SJ9FCBF75","388CL5C1RJ9X03EZUESK4LKS9TSHL1","","","null","","","","","","","","","",""
"645","","image-keyboard-response","160","521181","0.0-160.0","37UQDCYH6YH5P3IBMBDGP0PMTO5V7N","AAF1SJ9FCBF75","388CL5C1RJ9X03EZUESK4LKS9TSHL1","","img/set1/S3.jpg","74","3","structured_normal","72","structured_normal,structured_incentive,structured_load,random","2,1,3,4,2,3","1,4,3,2","false","","",""
"null","","html-keyboard-response","161","521533","0.0-161.0","37UQDCYH6YH5P3IBMBDGP0PMTO5V7N","AAF1SJ9FCBF75","388CL5C1RJ9X03EZUESK4LKS9TSHL1","","<img src=""img/set1/S3.jpg"" width=""540"" height = ""360"">","null","","","","","","","","","",""
"null","","html-keyboard-response","162","521734","0.0-162.0","37UQDCYH6YH5P3IBMBDGP0PMTO5V7N","AAF1SJ9FCBF75","388CL5C1RJ9X03EZUESK4LKS9TSHL1","","","null","","","","","","","","","",""
"743","","image-keyboard-response","163","522476","0.0-163.0","37UQDCYH6YH5P3IBMBDGP0PMTO5V7N","AAF1SJ9FCBF75","388CL5C1RJ9X03EZUESK4LKS9TSHL1","","img/set1/S2.jpg","68","2","structured_normal","68","structured_normal,structured_incentive,structured_load,random","2,1,3,4,2,3","1,4,3,2","true","","",""
"null","","html-keyboard-response","164","522827","0.0-164.0","37UQDCYH6YH5P3IBMBDGP0PMTO5V7N","AAF1SJ9FCBF75","388CL5C1RJ9X03EZUESK4LKS9TSHL1","","<img src=""img/set1/S2.jpg"" width=""540"" height = ""360"" style=""border:16px solid orange"">","null","","","","","","","","","",""
"null","","html-keyboard-response","165","523029","0.0-165.0","37UQDCYH6YH5P3IBMBDGP0PMTO5V7N","AAF1SJ9FCBF75","388CL5C1RJ9X03EZUESK4LKS9TSHL1","","","null","","","","","","","","","",""
"692","","image-keyboard-response","166","523721","0.0-166.0","37UQDCYH6YH5P3IBMBDGP0PMTO5V7N","AAF1SJ9FCBF75","388CL5C1RJ9X03EZUESK4LKS9TSHL1","","img/set1/S1.jpg","83","1","structured_normal","83","structured_normal,structured_incentive,structured_load,random","2,1,3,4,2,3","1,4,3,2","true","","",""
"null","","html-keyboard-response","167","524073","0.0-167.0","37UQDCYH6YH5P3IBMBDGP0PMTO5V7N","AAF1SJ9FCBF75","388CL5C1RJ9X03EZUESK4LKS9TSHL1","","<img src=""img/set1/S1.jpg"" width=""540"" height = ""360"" style=""border:16px solid orange"">","null","","","","","","","","","",""
"null","","html-keyboard-response","168","524274","0.0-168.0","37UQDCYH6YH5P3IBMBDGP0PMTO5V7N","AAF1SJ9FCBF75","388CL5C1RJ9X03EZUESK4LKS9TSHL1","","","null","","","","","","","","","",""
"600","","image-keyboard-response","169","524874","0.0-169.0","37UQDCYH6YH5P3IBMBDGP0PMTO5V7N","AAF1SJ9FCBF75","388CL5C1RJ9X03EZUESK4LKS9TSHL1","","img/set1/S4.jpg","74","4","structured_normal","74","structured_normal,structured_incentive,structured_load,random","2,1,3,4,2,3","1,4,3,2","true","","",""
"null","","html-keyboard-response","170","525225","0.0-170.0","37UQDCYH6YH5P3IBMBDGP0PMTO5V7N","AAF1SJ9FCBF75","388CL5C1RJ9X03EZUESK4LKS9TSHL1","","<img src=""img/set1/S4.jpg"" width=""540"" height = ""360"" style=""border:16px solid orange"">","null","","","","","","","","","",""
"null","","html-keyboard-response","171","525426","0.0-171.0","37UQDCYH6YH5P3IBMBDGP0PMTO5V7N","AAF1SJ9FCBF75","388CL5C1RJ9X03EZUESK4LKS9TSHL1","","","null","","","","","","","","","",""
"462","","image-keyboard-response","172","525888","0.0-172.0","37UQDCYH6YH5P3IBMBDGP0PMTO5V7N","AAF1SJ9FCBF75","388CL5C1RJ9X03EZUESK4LKS9TSHL1","","img/set1/S3.jpg","72","3","structured_normal","72","structured_normal,structured_incentive,structured_load,random","2,1,3,4,2,3","1,4,3,2","true","","",""
"null","","html-keyboard-response","173","526239","0.0-173.0","37UQDCYH6YH5P3IBMBDGP0PMTO5V7N","AAF1SJ9FCBF75","388CL5C1RJ9X03EZUESK4LKS9TSHL1","","<img src=""img/set1/S3.jpg"" width=""540"" height = ""360"" style=""border:16px solid orange"">","null","","","","","","","","","",""
"null","","html-keyboard-response","174","526441","0.0-174.0","37UQDCYH6YH5P3IBMBDGP0PMTO5V7N","AAF1SJ9FCBF75","388CL5C1RJ9X03EZUESK4LKS9TSHL1","","","null","","","","","","","","","",""
"463","","image-keyboard-response","175","526903","0.0-175.0","37UQDCYH6YH5P3IBMBDGP0PMTO5V7N","AAF1SJ9FCBF75","388CL5C1RJ9X03EZUESK4LKS9TSHL1","","img/set1/S3.jpg","72","3","structured_normal","72","structured_normal,structured_incentive,structured_load,random","2,1,3,4,2,3","1,4,3,2","true","","",""
"null","","html-keyboard-response","176","527255","0.0-176.0","37UQDCYH6YH5P3IBMBDGP0PMTO5V7N","AAF1SJ9FCBF75","388CL5C1RJ9X03EZUESK4LKS9TSHL1","","<img src=""img/set1/S3.jpg"" width=""540"" height = ""360"" style=""border:16px solid orange"">","null","","","","","","","","","",""
"null","","html-keyboard-response","177","527456","0.0-177.0","37UQDCYH6YH5P3IBMBDGP0PMTO5V7N","AAF1SJ9FCBF75","388CL5C1RJ9X03EZUESK4LKS9TSHL1","","","null","","","","","","","","","",""
"462","","image-keyboard-response","178","527918","0.0-178.0","37UQDCYH6YH5P3IBMBDGP0PMTO5V7N","AAF1SJ9FCBF75","388CL5C1RJ9X03EZUESK4LKS9TSHL1","","img/set1/S3.jpg","72","3","structured_normal","72","structured_normal,structured_incentive,structured_load,random","2,1,3,4,2,3","1,4,3,2","true","","",""
"null","","html-keyboard-response","179","528269","0.0-179.0","37UQDCYH6YH5P3IBMBDGP0PMTO5V7N","AAF1SJ9FCBF75","388CL5C1RJ9X03EZUESK4LKS9TSHL1","","<img src=""img/set1/S3.jpg"" width=""540"" height = ""360"" style=""border:16px solid orange"">","null","","","","","","","","","",""
"null","","html-keyboard-response","180","528470","0.0-180.0","37UQDCYH6YH5P3IBMBDGP0PMTO5V7N","AAF1SJ9FCBF75","388CL5C1RJ9X03EZUESK4LKS9TSHL1","","","null","","","","","","","","","",""
"508","","image-keyboard-response","181","528979","0.0-181.0","37UQDCYH6YH5P3IBMBDGP0PMTO5V7N","AAF1SJ9FCBF75","388CL5C1RJ9X03EZUESK4LKS9TSHL1","","img/set1/S3.jpg","72","3","structured_normal","72","structured_normal,structured_incentive,structured_load,random","2,1,3,4,2,3","1,4,3,2","true","","",""
"null","","html-keyboard-response","182","529330","0.0-182.0","37UQDCYH6YH5P3IBMBDGP0PMTO5V7N","AAF1SJ9FCBF75","388CL5C1RJ9X03EZUESK4LKS9TSHL1","","<img src=""img/set1/S3.jpg"" width=""540"" height = ""360"" style=""border:16px solid orange"">","null","","","","","","","","","",""
"null","","html-keyboard-response","183","529531","0.0-183.0","37UQDCYH6YH5P3IBMBDGP0PMTO5V7N","AAF1SJ9FCBF75","388CL5C1RJ9X03EZUESK4LKS9TSHL1","","","null","","","","","","","","","",""
"415","","image-keyboard-response","184","529948","0.0-184.0","37UQDCYH6YH5P3IBMBDGP0PMTO5V7N","AAF1SJ9FCBF75","388CL5C1RJ9X03EZUESK4LKS9TSHL1","","img/set1/S3.jpg","72","3","structured_normal","72","structured_normal,structured_incentive,structured_load,random","2,1,3,4,2,3","1,4,3,2","true","","",""
"null","","html-keyboard-response","185","530299","0.0-185.0","37UQDCYH6YH5P3IBMBDGP0PMTO5V7N","AAF1SJ9FCBF75","388CL5C1RJ9X03EZUESK4LKS9TSHL1","","<img src=""img/set1/S3.jpg"" width=""540"" height = ""360"" style=""border:16px solid orange"">","null","","","","","","","","","",""
"null","","html-keyboard-response","186","530500","0.0-186.0","37UQDCYH6YH5P3IBMBDGP0PMTO5V7N","AAF1SJ9FCBF75","388CL5C1RJ9X03EZUESK4LKS9TSHL1","","","null","","","","","","","","","",""
"415","","image-keyboard-response","187","530916","0.0-187.0","37UQDCYH6YH5P3IBMBDGP0PMTO5V7N","AAF1SJ9FCBF75","388CL5C1RJ9X03EZUESK4LKS9TSHL1","","img/set1/S3.jpg","72","3","structured_normal","72","structured_normal,structured_incentive,structured_load,random","2,1,3,4,2,3","1,4,3,2","true","","",""
"null","","html-keyboard-response","188","531267","0.0-188.0","37UQDCYH6YH5P3IBMBDGP0PMTO5V7N","AAF1SJ9FCBF75","388CL5C1RJ9X03EZUESK4LKS9TSHL1","","<img src=""img/set1/S3.jpg"" width=""540"" height = ""360"" style=""border:16px solid orange"">","null","","","","","","","","","",""
"null","","html-keyboard-response","189","531468","0.0-189.0","37UQDCYH6YH5P3IBMBDGP0PMTO5V7N","AAF1SJ9FCBF75","388CL5C1RJ9X03EZUESK4LKS9TSHL1","","","null","","","","","","","","","",""
"554","","image-keyboard-response","190","532023","0.0-190.0","37UQDCYH6YH5P3IBMBDGP0PMTO5V7N","AAF1SJ9FCBF75","388CL5C1RJ9X03EZUESK4LKS9TSHL1","","img/set1/S4.jpg","74","4","structured_normal","74","structured_normal,structured_incentive,structured_load,random","2,1,3,4,2,3","1,4,3,2","true","","",""
"null","","html-keyboard-response","191","532374","0.0-191.0","37UQDCYH6YH5P3IBMBDGP0PMTO5V7N","AAF1SJ9FCBF75","388CL5C1RJ9X03EZUESK4LKS9TSHL1","","<img src=""img/set1/S4.jpg"" width=""540"" height = ""360"" style=""border:16px solid orange"">","null","","","","","","","","","",""
"null","","html-keyboard-response","192","532575","0.0-192.0","37UQDCYH6YH5P3IBMBDGP0PMTO5V7N","AAF1SJ9FCBF75","388CL5C1RJ9X03EZUESK4LKS9TSHL1","","","null","","","","","","","","","",""
"507","","image-keyboard-response","193","533084","0.0-193.0","37UQDCYH6YH5P3IBMBDGP0PMTO5V7N","AAF1SJ9FCBF75","388CL5C1RJ9X03EZUESK4LKS9TSHL1","","img/set1/S3.jpg","72","3","structured_normal","72","structured_normal,structured_incentive,structured_load,random","2,1,3,4,2,3","1,4,3,2","true","","",""
"null","","html-keyboard-response","194","533435","0.0-194.0","37UQDCYH6YH5P3IBMBDGP0PMTO5V7N","AAF1SJ9FCBF75","388CL5C1RJ9X03EZUESK4LKS9TSHL1","","<img src=""img/set1/S3.jpg"" width=""540"" height = ""360"" style=""border:16px solid orange"">","null","","","","","","","","","",""
"null","","html-keyboard-response","195","533635","0.0-195.0","37UQDCYH6YH5P3IBMBDGP0PMTO5V7N","AAF1SJ9FCBF75","388CL5C1RJ9X03EZUESK4LKS9TSHL1","","","null","","","","","","","","","",""
"646","","image-keyboard-response","196","534282","0.0-196.0","37UQDCYH6YH5P3IBMBDGP0PMTO5V7N","AAF1SJ9FCBF75","388CL5C1RJ9X03EZUESK4LKS9TSHL1","","img/set1/S2.jpg","68","2","structured_normal","68","structured_normal,structured_incentive,structured_load,random","2,1,3,4,2,3","1,4,3,2","true","","",""
"null","","html-keyboard-response","197","534633","0.0-197.0","37UQDCYH6YH5P3IBMBDGP0PMTO5V7N","AAF1SJ9FCBF75","388CL5C1RJ9X03EZUESK4LKS9TSHL1","","<img src=""img/set1/S2.jpg"" width=""540"" height = ""360"" style=""border:16px solid orange"">","null","","","","","","","","","",""
"null","","html-keyboard-response","198","534834","0.0-198.0","37UQDCYH6YH5P3IBMBDGP0PMTO5V7N","AAF1SJ9FCBF75","388CL5C1RJ9X03EZUESK4LKS9TSHL1","","","null","","","","","","","","","",""
"651","","image-keyboard-response","199","535486","0.0-199.0","37UQDCYH6YH5P3IBMBDGP0PMTO5V7N","AAF1SJ9FCBF75","388CL5C1RJ9X03EZUESK4LKS9TSHL1","","img/set1/S1.jpg","83","1","structured_normal","83","structured_normal,structured_incentive,structured_load,random","2,1,3,4,2,3","1,4,3,2","true","","",""
"null","","html-keyboard-response","200","535837","0.0-200.0","37UQDCYH6YH5P3IBMBDGP0PMTO5V7N","AAF1SJ9FCBF75","388CL5C1RJ9X03EZUESK4LKS9TSHL1","","<img src=""img/set1/S1.jpg"" width=""540"" height = ""360"" style=""border:16px solid orange"">","null","","","","","","","","","",""
"null","","html-keyboard-response","201","536038","0.0-201.0","37UQDCYH6YH5P3IBMBDGP0PMTO5V7N","AAF1SJ9FCBF75","388CL5C1RJ9X03EZUESK4LKS9TSHL1","","","null","","","","","","","","","",""
"601","","image-keyboard-response","202","536639","0.0-202.0","37UQDCYH6YH5P3IBMBDGP0PMTO5V7N","AAF1SJ9FCBF75","388CL5C1RJ9X03EZUESK4LKS9TSHL1","","img/set1/S2.jpg","68","2","structured_normal","68","structured_normal,structured_incentive,structured_load,random","2,1,3,4,2,3","1,4,3,2","true","","",""
"null","","html-keyboard-response","203","536990","0.0-203.0","37UQDCYH6YH5P3IBMBDGP0PMTO5V7N","AAF1SJ9FCBF75","388CL5C1RJ9X03EZUESK4LKS9TSHL1","","<img src=""img/set1/S2.jpg"" width=""540"" height = ""360"" style=""border:16px solid orange"">","null","","","","","","","","","",""
"null","","html-keyboard-response","204","537191","0.0-204.0","37UQDCYH6YH5P3IBMBDGP0PMTO5V7N","AAF1SJ9FCBF75","388CL5C1RJ9X03EZUESK4LKS9TSHL1","","","null","","","","","","","","","",""
"600","","image-keyboard-response","205","537791","0.0-205.0","37UQDCYH6YH5P3IBMBDGP0PMTO5V7N","AAF1SJ9FCBF75","388CL5C1RJ9X03EZUESK4LKS9TSHL1","","img/set1/S1.jpg","83","1","structured_normal","83","structured_normal,structured_incentive,structured_load,random","2,1,3,4,2,3","1,4,3,2","true","","",""
"null","","html-keyboard-response","206","538143","0.0-206.0","37UQDCYH6YH5P3IBMBDGP0PMTO5V7N","AAF1SJ9FCBF75","388CL5C1RJ9X03EZUESK4LKS9TSHL1","","<img src=""img/set1/S1.jpg"" width=""540"" height = ""360"" style=""border:16px solid orange"">","null","","","","","","","","","",""
"null","","html-keyboard-response","207","538344","0.0-207.0","37UQDCYH6YH5P3IBMBDGP0PMTO5V7N","AAF1SJ9FCBF75","388CL5C1RJ9X03EZUESK4LKS9TSHL1","","","null","","","","","","","","","",""
"553","","image-keyboard-response","208","538898","0.0-208.0","37UQDCYH6YH5P3IBMBDGP0PMTO5V7N","AAF1SJ9FCBF75","388CL5C1RJ9X03EZUESK4LKS9TSHL1","","img/set1/S3.jpg","72","3","structured_normal","72","structured_normal,structured_incentive,structured_load,random","2,1,3,4,2,3","1,4,3,2","true","","",""
"null","","html-keyboard-response","209","539249","0.0-209.0","37UQDCYH6YH5P3IBMBDGP0PMTO5V7N","AAF1SJ9FCBF75","388CL5C1RJ9X03EZUESK4LKS9TSHL1","","<img src=""img/set1/S3.jpg"" width=""540"" height = ""360"" style=""border:16px solid orange"">","null","","","","","","","","","",""
"null","","html-keyboard-response","210","539450","0.0-210.0","37UQDCYH6YH5P3IBMBDGP0PMTO5V7N","AAF1SJ9FCBF75","388CL5C1RJ9X03EZUESK4LKS9TSHL1","","","null","","","","","","","","","",""
"600","","image-keyboard-response","211","540051","0.0-211.0","37UQDCYH6YH5P3IBMBDGP0PMTO5V7N","AAF1SJ9FCBF75","388CL5C1RJ9X03EZUESK4LKS9TSHL1","","img/set1/S2.jpg","68","2","structured_normal","68","structured_normal,structured_incentive,structured_load,random","2,1,3,4,2,3","1,4,3,2","true","","",""
"null","","html-keyboard-response","212","540402","0.0-212.0","37UQDCYH6YH5P3IBMBDGP0PMTO5V7N","AAF1SJ9FCBF75","388CL5C1RJ9X03EZUESK4LKS9TSHL1","","<img src=""img/set1/S2.jpg"" width=""540"" height = ""360"" style=""border:16px solid orange"">","null","","","","","","","","","",""
"null","","html-keyboard-response","213","540603","0.0-213.0","37UQDCYH6YH5P3IBMBDGP0PMTO5V7N","AAF1SJ9FCBF75","388CL5C1RJ9X03EZUESK4LKS9TSHL1","","","null","","","","","","","","","",""
"691","","image-keyboard-response","214","541296","0.0-214.0","37UQDCYH6YH5P3IBMBDGP0PMTO5V7N","AAF1SJ9FCBF75","388CL5C1RJ9X03EZUESK4LKS9TSHL1","","img/set1/S1.jpg","83","1","structured_normal","83","structured_normal,structured_incentive,structured_load,random","2,1,3,4,2,3","1,4,3,2","true","","",""
"null","","html-keyboard-response","215","541646","0.0-215.0","37UQDCYH6YH5P3IBMBDGP0PMTO5V7N","AAF1SJ9FCBF75","388CL5C1RJ9X03EZUESK4LKS9TSHL1","","<img src=""img/set1/S1.jpg"" width=""540"" height = ""360"" style=""border:16px solid orange"">","null","","","","","","","","","",""
"null","","html-keyboard-response","216","541848","0.0-216.0","37UQDCYH6YH5P3IBMBDGP0PMTO5V7N","AAF1SJ9FCBF75","388CL5C1RJ9X03EZUESK4LKS9TSHL1","","","null","","","","","","","","","",""
"600","","image-keyboard-response","217","542448","0.0-217.0","37UQDCYH6YH5P3IBMBDGP0PMTO5V7N","AAF1SJ9FCBF75","388CL5C1RJ9X03EZUESK4LKS9TSHL1","","img/set1/S4.jpg","74","4","structured_normal","74","structured_normal,structured_incentive,structured_load,random","2,1,3,4,2,3","1,4,3,2","true","","",""
"null","","html-keyboard-response","218","542800","0.0-218.0","37UQDCYH6YH5P3IBMBDGP0PMTO5V7N","AAF1SJ9FCBF75","388CL5C1RJ9X03EZUESK4LKS9TSHL1","","<img src=""img/set1/S4.jpg"" width=""540"" height = ""360"" style=""border:16px solid orange"">","null","","","","","","","","","",""
"null","","html-keyboard-response","219","543000","0.0-219.0","37UQDCYH6YH5P3IBMBDGP0PMTO5V7N","AAF1SJ9FCBF75","388CL5C1RJ9X03EZUESK4LKS9TSHL1","","","null","","","","","","","","","",""
"600","","image-keyboard-response","220","543601","0.0-220.0","37UQDCYH6YH5P3IBMBDGP0PMTO5V7N","AAF1SJ9FCBF75","388CL5C1RJ9X03EZUESK4LKS9TSHL1","","img/set1/S3.jpg","72","3","structured_normal","72","structured_normal,structured_incentive,structured_load,random","2,1,3,4,2,3","1,4,3,2","true","","",""
"null","","html-keyboard-response","221","543953","0.0-221.0","37UQDCYH6YH5P3IBMBDGP0PMTO5V7N","AAF1SJ9FCBF75","388CL5C1RJ9X03EZUESK4LKS9TSHL1","","<img src=""img/set1/S3.jpg"" width=""540"" height = ""360"" style=""border:16px solid orange"">","null","","","","","","","","","",""
"null","","html-keyboard-response","222","544154","0.0-222.0","37UQDCYH6YH5P3IBMBDGP0PMTO5V7N","AAF1SJ9FCBF75","388CL5C1RJ9X03EZUESK4LKS9TSHL1","","","null","","","","","","","","","",""
"509","","image-keyboard-response","223","544662","0.0-223.0","37UQDCYH6YH5P3IBMBDGP0PMTO5V7N","AAF1SJ9FCBF75","388CL5C1RJ9X03EZUESK4LKS9TSHL1","","img/set1/S4.jpg","74","4","structured_normal","74","structured_normal,structured_incentive,structured_load,random","2,1,3,4,2,3","1,4,3,2","true","","",""
"null","","html-keyboard-response","224","545014","0.0-224.0","37UQDCYH6YH5P3IBMBDGP0PMTO5V7N","AAF1SJ9FCBF75","388CL5C1RJ9X03EZUESK4LKS9TSHL1","","<img src=""img/set1/S4.jpg"" width=""540"" height = ""360"" style=""border:16px solid orange"">","null","","","","","","","","","",""
"null","","html-keyboard-response","225","545215","0.0-225.0","37UQDCYH6YH5P3IBMBDGP0PMTO5V7N","AAF1SJ9FCBF75","388CL5C1RJ9X03EZUESK4LKS9TSHL1","","","null","","","","","","","","","",""
"553","","image-keyboard-response","226","545769","0.0-226.0","37UQDCYH6YH5P3IBMBDGP0PMTO5V7N","AAF1SJ9FCBF75","388CL5C1RJ9X03EZUESK4LKS9TSHL1","","img/set1/S3.jpg","72","3","structured_normal","72","structured_normal,structured_incentive,structured_load,random","2,1,3,4,2,3","1,4,3,2","true","","",""
"null","","html-keyboard-response","227","546119","0.0-227.0","37UQDCYH6YH5P3IBMBDGP0PMTO5V7N","AAF1SJ9FCBF75","388CL5C1RJ9X03EZUESK4LKS9TSHL1","","<img src=""img/set1/S3.jpg"" width=""540"" height = ""360"" style=""border:16px solid orange"">","null","","","","","","","","","",""
"null","","html-keyboard-response","228","546321","0.0-228.0","37UQDCYH6YH5P3IBMBDGP0PMTO5V7N","AAF1SJ9FCBF75","388CL5C1RJ9X03EZUESK4LKS9TSHL1","","","null","","","","","","","","","",""
"461","","image-keyboard-response","229","546783","0.0-229.0","37UQDCYH6YH5P3IBMBDGP0PMTO5V7N","AAF1SJ9FCBF75","388CL5C1RJ9X03EZUESK4LKS9TSHL1","","img/set1/S3.jpg","72","3","structured_normal","72","structured_normal,structured_incentive,structured_load,random","2,1,3,4,2,3","1,4,3,2","true","","",""
"null","","html-keyboard-response","230","547135","0.0-230.0","37UQDCYH6YH5P3IBMBDGP0PMTO5V7N","AAF1SJ9FCBF75","388CL5C1RJ9X03EZUESK4LKS9TSHL1","","<img src=""img/set1/S3.jpg"" width=""540"" height = ""360"" style=""border:16px solid orange"">","null","","","","","","","","","",""
"null","","html-keyboard-response","231","547336","0.0-231.0","37UQDCYH6YH5P3IBMBDGP0PMTO5V7N","AAF1SJ9FCBF75","388CL5C1RJ9X03EZUESK4LKS9TSHL1","","","null","","","","","","","","","",""
"508","","image-keyboard-response","232","547844","0.0-232.0","37UQDCYH6YH5P3IBMBDGP0PMTO5V7N","AAF1SJ9FCBF75","388CL5C1RJ9X03EZUESK4LKS9TSHL1","","img/set1/S4.jpg","74","4","structured_normal","74","structured_normal,structured_incentive,structured_load,random","2,1,3,4,2,3","1,4,3,2","true","","",""
"null","","html-keyboard-response","233","548195","0.0-233.0","37UQDCYH6YH5P3IBMBDGP0PMTO5V7N","AAF1SJ9FCBF75","388CL5C1RJ9X03EZUESK4LKS9TSHL1","","<img src=""img/set1/S4.jpg"" width=""540"" height = ""360"" style=""border:16px solid orange"">","null","","","","","","","","","",""
"null","","html-keyboard-response","234","548396","0.0-234.0","37UQDCYH6YH5P3IBMBDGP0PMTO5V7N","AAF1SJ9FCBF75","388CL5C1RJ9X03EZUESK4LKS9TSHL1","","","null","","","","","","","","","",""
"554","","image-keyboard-response","235","548951","0.0-235.0","37UQDCYH6YH5P3IBMBDGP0PMTO5V7N","AAF1SJ9FCBF75","388CL5C1RJ9X03EZUESK4LKS9TSHL1","","img/set1/S3.jpg","72","3","structured_normal","72","structured_normal,structured_incentive,structured_load,random","2,1,3,4,2,3","1,4,3,2","true","","",""
"null","","html-keyboard-response","236","549302","0.0-236.0","37UQDCYH6YH5P3IBMBDGP0PMTO5V7N","AAF1SJ9FCBF75","388CL5C1RJ9X03EZUESK4LKS9TSHL1","","<img src=""img/set1/S3.jpg"" width=""540"" height = ""360"" style=""border:16px solid orange"">","null","","","","","","","","","",""
"null","","html-keyboard-response","237","549503","0.0-237.0","37UQDCYH6YH5P3IBMBDGP0PMTO5V7N","AAF1SJ9FCBF75","388CL5C1RJ9X03EZUESK4LKS9TSHL1","","","null","","","","","","","","","",""
"508","","image-keyboard-response","238","550011","0.0-238.0","37UQDCYH6YH5P3IBMBDGP0PMTO5V7N","AAF1SJ9FCBF75","388CL5C1RJ9X03EZUESK4LKS9TSHL1","","img/set1/S3.jpg","72","3","structured_normal","72","structured_normal,structured_incentive,structured_load,random","2,1,3,4,2,3","1,4,3,2","true","","",""
"null","","html-keyboard-response","239","550363","0.0-239.0","37UQDCYH6YH5P3IBMBDGP0PMTO5V7N","AAF1SJ9FCBF75","388CL5C1RJ9X03EZUESK4LKS9TSHL1","","<img src=""img/set1/S3.jpg"" width=""540"" height = ""360"" style=""border:16px solid orange"">","null","","","","","","","","","",""
"null","","html-keyboard-response","240","550564","0.0-240.0","37UQDCYH6YH5P3IBMBDGP0PMTO5V7N","AAF1SJ9FCBF75","388CL5C1RJ9X03EZUESK4LKS9TSHL1","","","null","","","","","","","","","",""
"554","","image-keyboard-response","241","551119","0.0-241.0","37UQDCYH6YH5P3IBMBDGP0PMTO5V7N","AAF1SJ9FCBF75","388CL5C1RJ9X03EZUESK4LKS9TSHL1","","img/set1/S4.jpg","74","4","structured_normal","74","structured_normal,structured_incentive,structured_load,random","2,1,3,4,2,3","1,4,3,2","true","","",""
"null","","html-keyboard-response","242","551470","0.0-242.0","37UQDCYH6YH5P3IBMBDGP0PMTO5V7N","AAF1SJ9FCBF75","388CL5C1RJ9X03EZUESK4LKS9TSHL1","","<img src=""img/set1/S4.jpg"" width=""540"" height = ""360"" style=""border:16px solid orange"">","null","","","","","","","","","",""
"null","","html-keyboard-response","243","551671","0.0-243.0","37UQDCYH6YH5P3IBMBDGP0PMTO5V7N","AAF1SJ9FCBF75","388CL5C1RJ9X03EZUESK4LKS9TSHL1","","","null","","","","","","","","","",""
"507","","image-keyboard-response","244","552180","0.0-244.0","37UQDCYH6YH5P3IBMBDGP0PMTO5V7N","AAF1SJ9FCBF75","388CL5C1RJ9X03EZUESK4LKS9TSHL1","","img/set1/S3.jpg","72","3","structured_normal","72","structured_normal,structured_incentive,structured_load,random","2,1,3,4,2,3","1,4,3,2","true","","",""
"null","","html-keyboard-response","245","552531","0.0-245.0","37UQDCYH6YH5P3IBMBDGP0PMTO5V7N","AAF1SJ9FCBF75","388CL5C1RJ9X03EZUESK4LKS9TSHL1","","<img src=""img/set1/S3.jpg"" width=""540"" height = ""360"" style=""border:16px solid orange"">","null","","","","","","","","","",""
"null","","html-keyboard-response","246","552732","0.0-246.0","37UQDCYH6YH5P3IBMBDGP0PMTO5V7N","AAF1SJ9FCBF75","388CL5C1RJ9X03EZUESK4LKS9TSHL1","","","null","","","","","","","","","",""
"600","","image-keyboard-response","247","553333","0.0-247.0","37UQDCYH6YH5P3IBMBDGP0PMTO5V7N","AAF1SJ9FCBF75","388CL5C1RJ9X03EZUESK4LKS9TSHL1","","img/set1/S4.jpg","74","4","structured_normal","74","structured_normal,structured_incentive,structured_load,random","2,1,3,4,2,3","1,4,3,2","true","","",""
"null","","html-keyboard-response","248","553685","0.0-248.0","37UQDCYH6YH5P3IBMBDGP0PMTO5V7N","AAF1SJ9FCBF75","388CL5C1RJ9X03EZUESK4LKS9TSHL1","","<img src=""img/set1/S4.jpg"" width=""540"" height = ""360"" style=""border:16px solid orange"">","null","","","","","","","","","",""
"null","","html-keyboard-response","249","553885","0.0-249.0","37UQDCYH6YH5P3IBMBDGP0PMTO5V7N","AAF1SJ9FCBF75","388CL5C1RJ9X03EZUESK4LKS9TSHL1","","","null","","","","","","","","","",""
"507","","image-keyboard-response","250","554393","0.0-250.0","37UQDCYH6YH5P3IBMBDGP0PMTO5V7N","AAF1SJ9FCBF75","388CL5C1RJ9X03EZUESK4LKS9TSHL1","","img/set1/S4.jpg","72","4","structured_normal","74","structured_normal,structured_incentive,structured_load,random","2,1,3,4,2,3","1,4,3,2","false","","",""
"null","","html-keyboard-response","251","554744","0.0-251.0","37UQDCYH6YH5P3IBMBDGP0PMTO5V7N","AAF1SJ9FCBF75","388CL5C1RJ9X03EZUESK4LKS9TSHL1","","<img src=""img/set1/S4.jpg"" width=""540"" height = ""360"">","null","","","","","","","","","",""
"null","","html-keyboard-response","252","554945","0.0-252.0","37UQDCYH6YH5P3IBMBDGP0PMTO5V7N","AAF1SJ9FCBF75","388CL5C1RJ9X03EZUESK4LKS9TSHL1","","","null","","","","","","","","","",""
"603","","image-keyboard-response","253","555548","0.0-253.0","37UQDCYH6YH5P3IBMBDGP0PMTO5V7N","AAF1SJ9FCBF75","388CL5C1RJ9X03EZUESK4LKS9TSHL1","","img/set1/S3.jpg","72","3","structured_normal","72","structured_normal,structured_incentive,structured_load,random","2,1,3,4,2,3","1,4,3,2","true","","",""
"null","","html-keyboard-response","254","555900","0.0-254.0","37UQDCYH6YH5P3IBMBDGP0PMTO5V7N","AAF1SJ9FCBF75","388CL5C1RJ9X03EZUESK4LKS9TSHL1","","<img src=""img/set1/S3.jpg"" width=""540"" height = ""360"" style=""border:16px solid orange"">","null","","","","","","","","","",""
"null","","html-keyboard-response","255","556102","0.0-255.0","37UQDCYH6YH5P3IBMBDGP0PMTO5V7N","AAF1SJ9FCBF75","388CL5C1RJ9X03EZUESK4LKS9TSHL1","","","null","","","","","","","","","",""
"475","","image-keyboard-response","256","556576","0.0-256.0","37UQDCYH6YH5P3IBMBDGP0PMTO5V7N","AAF1SJ9FCBF75","388CL5C1RJ9X03EZUESK4LKS9TSHL1","","img/set1/S4.jpg","74","4","structured_normal","74","structured_normal,structured_incentive,structured_load,random","2,1,3,4,2,3","1,4,3,2","true","","",""
"null","","html-keyboard-response","257","556927","0.0-257.0","37UQDCYH6YH5P3IBMBDGP0PMTO5V7N","AAF1SJ9FCBF75","388CL5C1RJ9X03EZUESK4LKS9TSHL1","","<img src=""img/set1/S4.jpg"" width=""540"" height = ""360"" style=""border:16px solid orange"">","null","","","","","","","","","",""
"null","","html-keyboard-response","258","557128","0.0-258.0","37UQDCYH6YH5P3IBMBDGP0PMTO5V7N","AAF1SJ9FCBF75","388CL5C1RJ9X03EZUESK4LKS9TSHL1","","","null","","","","","","","","","",""
"508","","image-keyboard-response","259","557637","0.0-259.0","37UQDCYH6YH5P3IBMBDGP0PMTO5V7N","AAF1SJ9FCBF75","388CL5C1RJ9X03EZUESK4LKS9TSHL1","","img/set1/S3.jpg","72","3","structured_normal","72","structured_normal,structured_incentive,structured_load,random","2,1,3,4,2,3","1,4,3,2","true","","",""
"null","","html-keyboard-response","260","557988","0.0-260.0","37UQDCYH6YH5P3IBMBDGP0PMTO5V7N","AAF1SJ9FCBF75","388CL5C1RJ9X03EZUESK4LKS9TSHL1","","<img src=""img/set1/S3.jpg"" width=""540"" height = ""360"" style=""border:16px solid orange"">","null","","","","","","","","","",""
"null","","html-keyboard-response","261","558189","0.0-261.0","37UQDCYH6YH5P3IBMBDGP0PMTO5V7N","AAF1SJ9FCBF75","388CL5C1RJ9X03EZUESK4LKS9TSHL1","","","null","","","","","","","","","",""
"600","","image-keyboard-response","262","558790","0.0-262.0","37UQDCYH6YH5P3IBMBDGP0PMTO5V7N","AAF1SJ9FCBF75","388CL5C1RJ9X03EZUESK4LKS9TSHL1","","img/set1/S2.jpg","68","2","structured_normal","68","structured_normal,structured_incentive,structured_load,random","2,1,3,4,2,3","1,4,3,2","true","","",""
"null","","html-keyboard-response","263","559141","0.0-263.0","37UQDCYH6YH5P3IBMBDGP0PMTO5V7N","AAF1SJ9FCBF75","388CL5C1RJ9X03EZUESK4LKS9TSHL1","","<img src=""img/set1/S2.jpg"" width=""540"" height = ""360"" style=""border:16px solid orange"">","null","","","","","","","","","",""
"null","","html-keyboard-response","264","559342","0.0-264.0","37UQDCYH6YH5P3IBMBDGP0PMTO5V7N","AAF1SJ9FCBF75","388CL5C1RJ9X03EZUESK4LKS9TSHL1","","","null","","","","","","","","","",""
"645","","image-keyboard-response","265","559988","0.0-265.0","37UQDCYH6YH5P3IBMBDGP0PMTO5V7N","AAF1SJ9FCBF75","388CL5C1RJ9X03EZUESK4LKS9TSHL1","","img/set1/S1.jpg","83","1","structured_normal","83","structured_normal,structured_incentive,structured_load,random","2,1,3,4,2,3","1,4,3,2","true","","",""
"null","","html-keyboard-response","266","560339","0.0-266.0","37UQDCYH6YH5P3IBMBDGP0PMTO5V7N","AAF1SJ9FCBF75","388CL5C1RJ9X03EZUESK4LKS9TSHL1","","<img src=""img/set1/S1.jpg"" width=""540"" height = ""360"" style=""border:16px solid orange"">","null","","","","","","","","","",""
"null","","html-keyboard-response","267","560541","0.0-267.0","37UQDCYH6YH5P3IBMBDGP0PMTO5V7N","AAF1SJ9FCBF75","388CL5C1RJ9X03EZUESK4LKS9TSHL1","","","null","","","","","","","","","",""
"554","","image-keyboard-response","268","561095","0.0-268.0","37UQDCYH6YH5P3IBMBDGP0PMTO5V7N","AAF1SJ9FCBF75","388CL5C1RJ9X03EZUESK4LKS9TSHL1","","img/set1/S2.jpg","68","2","structured_normal","68","structured_normal,structured_incentive,structured_load,random","2,1,3,4,2,3","1,4,3,2","true","","",""
"null","","html-keyboard-response","269","561446","0.0-269.0","37UQDCYH6YH5P3IBMBDGP0PMTO5V7N","AAF1SJ9FCBF75","388CL5C1RJ9X03EZUESK4LKS9TSHL1","","<img src=""img/set1/S2.jpg"" width=""540"" height = ""360"" style=""border:16px solid orange"">","null","","","","","","","","","",""
"null","","html-keyboard-response","270","561648","0.0-270.0","37UQDCYH6YH5P3IBMBDGP0PMTO5V7N","AAF1SJ9FCBF75","388CL5C1RJ9X03EZUESK4LKS9TSHL1","","","null","","","","","","","","","",""
"422","","image-keyboard-response","271","562070","0.0-271.0","37UQDCYH6YH5P3IBMBDGP0PMTO5V7N","AAF1SJ9FCBF75","388CL5C1RJ9X03EZUESK4LKS9TSHL1","","img/set1/S1.jpg","83","1","structured_normal","83","structured_normal,structured_incentive,structured_load,random","2,1,3,4,2,3","1,4,3,2","true","","",""
"null","","html-keyboard-response","272","562420","0.0-272.0","37UQDCYH6YH5P3IBMBDGP0PMTO5V7N","AAF1SJ9FCBF75","388CL5C1RJ9X03EZUESK4LKS9TSHL1","","<img src=""img/set1/S1.jpg"" width=""540"" height = ""360"" style=""border:16px solid orange"">","null","","","","","","","","","",""
"null","","html-keyboard-response","273","562622","0.0-273.0","37UQDCYH6YH5P3IBMBDGP0PMTO5V7N","AAF1SJ9FCBF75","388CL5C1RJ9X03EZUESK4LKS9TSHL1","","","null","","","","","","","","","",""
"555","","image-keyboard-response","274","563176","0.0-274.0","37UQDCYH6YH5P3IBMBDGP0PMTO5V7N","AAF1SJ9FCBF75","388CL5C1RJ9X03EZUESK4LKS9TSHL1","","img/set1/S2.jpg","68","2","structured_normal","68","structured_normal,structured_incentive,structured_load,random","2,1,3,4,2,3","1,4,3,2","true","","",""
"null","","html-keyboard-response","275","563528","0.0-275.0","37UQDCYH6YH5P3IBMBDGP0PMTO5V7N","AAF1SJ9FCBF75","388CL5C1RJ9X03EZUESK4LKS9TSHL1","","<img src=""img/set1/S2.jpg"" width=""540"" height = ""360"" style=""border:16px solid orange"">","null","","","","","","","","","",""
"null","","html-keyboard-response","276","563728","0.0-276.0","37UQDCYH6YH5P3IBMBDGP0PMTO5V7N","AAF1SJ9FCBF75","388CL5C1RJ9X03EZUESK4LKS9TSHL1","","","null","","","","","","","","","",""
"508","","image-keyboard-response","277","564237","0.0-277.0","37UQDCYH6YH5P3IBMBDGP0PMTO5V7N","AAF1SJ9FCBF75","388CL5C1RJ9X03EZUESK4LKS9TSHL1","","img/set1/S1.jpg","83","1","structured_normal","83","structured_normal,structured_incentive,structured_load,random","2,1,3,4,2,3","1,4,3,2","true","","",""
"null","","html-keyboard-response","278","564589","0.0-278.0","37UQDCYH6YH5P3IBMBDGP0PMTO5V7N","AAF1SJ9FCBF75","388CL5C1RJ9X03EZUESK4LKS9TSHL1","","<img src=""img/set1/S1.jpg"" width=""540"" height = ""360"" style=""border:16px solid orange"">","null","","","","","","","","","",""
"null","","html-keyboard-response","279","564789","0.0-279.0","37UQDCYH6YH5P3IBMBDGP0PMTO5V7N","AAF1SJ9FCBF75","388CL5C1RJ9X03EZUESK4LKS9TSHL1","","","null","","","","","","","","","",""
"523","","image-keyboard-response","280","565314","0.0-280.0","37UQDCYH6YH5P3IBMBDGP0PMTO5V7N","AAF1SJ9FCBF75","388CL5C1RJ9X03EZUESK4LKS9TSHL1","","img/set1/S2.jpg","68","2","structured_normal","68","structured_normal,structured_incentive,structured_load,random","2,1,3,4,2,3","1,4,3,2","true","","",""
"null","","html-keyboard-response","281","565665","0.0-281.0","37UQDCYH6YH5P3IBMBDGP0PMTO5V7N","AAF1SJ9FCBF75","388CL5C1RJ9X03EZUESK4LKS9TSHL1","","<img src=""img/set1/S2.jpg"" width=""540"" height = ""360"" style=""border:16px solid orange"">","null","","","","","","","","","",""
"null","","html-keyboard-response","282","565866","0.0-282.0","37UQDCYH6YH5P3IBMBDGP0PMTO5V7N","AAF1SJ9FCBF75","388CL5C1RJ9X03EZUESK4LKS9TSHL1","","","null","","","","","","","","","",""
"446","","image-keyboard-response","283","566312","0.0-283.0","37UQDCYH6YH5P3IBMBDGP0PMTO5V7N","AAF1SJ9FCBF75","388CL5C1RJ9X03EZUESK4LKS9TSHL1","","img/set1/S1.jpg","83","1","structured_normal","83","structured_normal,structured_incentive,structured_load,random","2,1,3,4,2,3","1,4,3,2","true","","",""
"null","","html-keyboard-response","284","566662","0.0-284.0","37UQDCYH6YH5P3IBMBDGP0PMTO5V7N","AAF1SJ9FCBF75","388CL5C1RJ9X03EZUESK4LKS9TSHL1","","<img src=""img/set1/S1.jpg"" width=""540"" height = ""360"" style=""border:16px solid orange"">","null","","","","","","","","","",""
"null","","html-keyboard-response","285","566864","0.0-285.0","37UQDCYH6YH5P3IBMBDGP0PMTO5V7N","AAF1SJ9FCBF75","388CL5C1RJ9X03EZUESK4LKS9TSHL1","","","null","","","","","","","","","",""
"600","","image-keyboard-response","286","567464","0.0-286.0","37UQDCYH6YH5P3IBMBDGP0PMTO5V7N","AAF1SJ9FCBF75","388CL5C1RJ9X03EZUESK4LKS9TSHL1","","img/set1/S3.jpg","72","3","structured_normal","72","structured_normal,structured_incentive,structured_load,random","2,1,3,4,2,3","1,4,3,2","true","","",""
"null","","html-keyboard-response","287","567816","0.0-287.0","37UQDCYH6YH5P3IBMBDGP0PMTO5V7N","AAF1SJ9FCBF75","388CL5C1RJ9X03EZUESK4LKS9TSHL1","","<img src=""img/set1/S3.jpg"" width=""540"" height = ""360"" style=""border:16px solid orange"">","null","","","","","","","","","",""
"null","","html-keyboard-response","288","568017","0.0-288.0","37UQDCYH6YH5P3IBMBDGP0PMTO5V7N","AAF1SJ9FCBF75","388CL5C1RJ9X03EZUESK4LKS9TSHL1","","","null","","","","","","","","","",""
"416","","image-keyboard-response","289","568434","0.0-289.0","37UQDCYH6YH5P3IBMBDGP0PMTO5V7N","AAF1SJ9FCBF75","388CL5C1RJ9X03EZUESK4LKS9TSHL1","","img/set1/S4.jpg","74","4","structured_normal","74","structured_normal,structured_incentive,structured_load,random","2,1,3,4,2,3","1,4,3,2","true","","",""
"null","","html-keyboard-response","290","568785","0.0-290.0","37UQDCYH6YH5P3IBMBDGP0PMTO5V7N","AAF1SJ9FCBF75","388CL5C1RJ9X03EZUESK4LKS9TSHL1","","<img src=""img/set1/S4.jpg"" width=""540"" height = ""360"" style=""border:16px solid orange"">","null","","","","","","","","","",""
"null","","html-keyboard-response","291","568986","0.0-291.0","37UQDCYH6YH5P3IBMBDGP0PMTO5V7N","AAF1SJ9FCBF75","388CL5C1RJ9X03EZUESK4LKS9TSHL1","","","null","","","","","","","","","",""
"417","","image-keyboard-response","292","569403","0.0-292.0","37UQDCYH6YH5P3IBMBDGP0PMTO5V7N","AAF1SJ9FCBF75","388CL5C1RJ9X03EZUESK4LKS9TSHL1","","img/set1/S3.jpg","72","3","structured_normal","72","structured_normal,structured_incentive,structured_load,random","2,1,3,4,2,3","1,4,3,2","true","","",""
"null","","html-keyboard-response","293","569754","0.0-293.0","37UQDCYH6YH5P3IBMBDGP0PMTO5V7N","AAF1SJ9FCBF75","388CL5C1RJ9X03EZUESK4LKS9TSHL1","","<img src=""img/set1/S3.jpg"" width=""540"" height = ""360"" style=""border:16px solid orange"">","null","","","","","","","","","",""
"null","","html-keyboard-response","294","569955","0.0-294.0","37UQDCYH6YH5P3IBMBDGP0PMTO5V7N","AAF1SJ9FCBF75","388CL5C1RJ9X03EZUESK4LKS9TSHL1","","","null","","","","","","","","","",""
"371","","image-keyboard-response","295","570325","0.0-295.0","37UQDCYH6YH5P3IBMBDGP0PMTO5V7N","AAF1SJ9FCBF75","388CL5C1RJ9X03EZUESK4LKS9TSHL1","","img/set1/S4.jpg","74","4","structured_normal","74","structured_normal,structured_incentive,structured_load,random","2,1,3,4,2,3","1,4,3,2","true","","",""
"null","","html-keyboard-response","296","570676","0.0-296.0","37UQDCYH6YH5P3IBMBDGP0PMTO5V7N","AAF1SJ9FCBF75","388CL5C1RJ9X03EZUESK4LKS9TSHL1","","<img src=""img/set1/S4.jpg"" width=""540"" height = ""360"" style=""border:16px solid orange"">","null","","","","","","","","","",""
"null","","html-keyboard-response","297","570877","0.0-297.0","37UQDCYH6YH5P3IBMBDGP0PMTO5V7N","AAF1SJ9FCBF75","388CL5C1RJ9X03EZUESK4LKS9TSHL1","","","null","","","","","","","","","",""
"462","","image-keyboard-response","298","571340","0.0-298.0","37UQDCYH6YH5P3IBMBDGP0PMTO5V7N","AAF1SJ9FCBF75","388CL5C1RJ9X03EZUESK4LKS9TSHL1","","img/set1/S3.jpg","72","3","structured_normal","72","structured_normal,structured_incentive,structured_load,random","2,1,3,4,2,3","1,4,3,2","true","","",""
"null","","html-keyboard-response","299","571691","0.0-299.0","37UQDCYH6YH5P3IBMBDGP0PMTO5V7N","AAF1SJ9FCBF75","388CL5C1RJ9X03EZUESK4LKS9TSHL1","","<img src=""img/set1/S3.jpg"" width=""540"" height = ""360"" style=""border:16px solid orange"">","null","","","","","","","","","",""
"null","","html-keyboard-response","300","571892","0.0-300.0","37UQDCYH6YH5P3IBMBDGP0PMTO5V7N","AAF1SJ9FCBF75","388CL5C1RJ9X03EZUESK4LKS9TSHL1","","","null","","","","","","","","","",""
"600","","image-keyboard-response","301","572492","0.0-301.0","37UQDCYH6YH5P3IBMBDGP0PMTO5V7N","AAF1SJ9FCBF75","388CL5C1RJ9X03EZUESK4LKS9TSHL1","","img/set1/S2.jpg","68","2","structured_normal","68","structured_normal,structured_incentive,structured_load,random","2,1,3,4,2,3","1,4,3,2","true","","",""
"null","","html-keyboard-response","302","572844","0.0-302.0","37UQDCYH6YH5P3IBMBDGP0PMTO5V7N","AAF1SJ9FCBF75","388CL5C1RJ9X03EZUESK4LKS9TSHL1","","<img src=""img/set1/S2.jpg"" width=""540"" height = ""360"" style=""border:16px solid orange"">","null","","","","","","","","","",""
"null","","html-keyboard-response","303","573045","0.0-303.0","37UQDCYH6YH5P3IBMBDGP0PMTO5V7N","AAF1SJ9FCBF75","388CL5C1RJ9X03EZUESK4LKS9TSHL1","","","null","","","","","","","","","",""
"370","","image-keyboard-response","304","573415","0.0-304.0","37UQDCYH6YH5P3IBMBDGP0PMTO5V7N","AAF1SJ9FCBF75","388CL5C1RJ9X03EZUESK4LKS9TSHL1","","img/set1/S1.jpg","83","1","structured_normal","83","structured_normal,structured_incentive,structured_load,random","2,1,3,4,2,3","1,4,3,2","true","","",""
"null","","html-keyboard-response","305","573766","0.0-305.0","37UQDCYH6YH5P3IBMBDGP0PMTO5V7N","AAF1SJ9FCBF75","388CL5C1RJ9X03EZUESK4LKS9TSHL1","","<img src=""img/set1/S1.jpg"" width=""540"" height = ""360"" style=""border:16px solid orange"">","null","","","","","","","","","",""
"null","","html-keyboard-response","306","573967","0.0-306.0","37UQDCYH6YH5P3IBMBDGP0PMTO5V7N","AAF1SJ9FCBF75","388CL5C1RJ9X03EZUESK4LKS9TSHL1","","","null","","","","","","","","","",""
"462","","image-keyboard-response","307","574430","0.0-307.0","37UQDCYH6YH5P3IBMBDGP0PMTO5V7N","AAF1SJ9FCBF75","388CL5C1RJ9X03EZUESK4LKS9TSHL1","","img/set1/S2.jpg","68","2","structured_normal","68","structured_normal,structured_incentive,structured_load,random","2,1,3,4,2,3","1,4,3,2","true","","",""
"null","","html-keyboard-response","308","574781","0.0-308.0","37UQDCYH6YH5P3IBMBDGP0PMTO5V7N","AAF1SJ9FCBF75","388CL5C1RJ9X03EZUESK4LKS9TSHL1","","<img src=""img/set1/S2.jpg"" width=""540"" height = ""360"" style=""border:16px solid orange"">","null","","","","","","","","","",""
"null","","html-keyboard-response","309","574983","0.0-309.0","37UQDCYH6YH5P3IBMBDGP0PMTO5V7N","AAF1SJ9FCBF75","388CL5C1RJ9X03EZUESK4LKS9TSHL1","","","null","","","","","","","","","",""
"461","","image-keyboard-response","310","575444","0.0-310.0","37UQDCYH6YH5P3IBMBDGP0PMTO5V7N","AAF1SJ9FCBF75","388CL5C1RJ9X03EZUESK4LKS9TSHL1","","img/set1/S1.jpg","83","1","structured_normal","83","structured_normal,structured_incentive,structured_load,random","2,1,3,4,2,3","1,4,3,2","true","","",""
"null","","html-keyboard-response","311","575795","0.0-311.0","37UQDCYH6YH5P3IBMBDGP0PMTO5V7N","AAF1SJ9FCBF75","388CL5C1RJ9X03EZUESK4LKS9TSHL1","","<img src=""img/set1/S1.jpg"" width=""540"" height = ""360"" style=""border:16px solid orange"">","null","","","","","","","","","",""
"null","","html-keyboard-response","312","575996","0.0-312.0","37UQDCYH6YH5P3IBMBDGP0PMTO5V7N","AAF1SJ9FCBF75","388CL5C1RJ9X03EZUESK4LKS9TSHL1","","","null","","","","","","","","","",""
"507","","image-keyboard-response","313","576505","0.0-313.0","37UQDCYH6YH5P3IBMBDGP0PMTO5V7N","AAF1SJ9FCBF75","388CL5C1RJ9X03EZUESK4LKS9TSHL1","","img/set1/S3.jpg","68","3","structured_normal","72","structured_normal,structured_incentive,structured_load,random","2,1,3,4,2,3","1,4,3,2","false","","",""
"null","","html-keyboard-response","314","576855","0.0-314.0","37UQDCYH6YH5P3IBMBDGP0PMTO5V7N","AAF1SJ9FCBF75","388CL5C1RJ9X03EZUESK4LKS9TSHL1","","<img src=""img/set1/S3.jpg"" width=""540"" height = ""360"">","null","","","","","","","","","",""
"null","","html-keyboard-response","315","577057","0.0-315.0","37UQDCYH6YH5P3IBMBDGP0PMTO5V7N","AAF1SJ9FCBF75","388CL5C1RJ9X03EZUESK4LKS9TSHL1","","","null","","","","","","","","","",""
"511","","image-keyboard-response","316","577568","0.0-316.0","37UQDCYH6YH5P3IBMBDGP0PMTO5V7N","AAF1SJ9FCBF75","388CL5C1RJ9X03EZUESK4LKS9TSHL1","","img/set1/S4.jpg","74","4","structured_normal","74","structured_normal,structured_incentive,structured_load,random","2,1,3,4,2,3","1,4,3,2","true","","",""
"null","","html-keyboard-response","317","577919","0.0-317.0","37UQDCYH6YH5P3IBMBDGP0PMTO5V7N","AAF1SJ9FCBF75","388CL5C1RJ9X03EZUESK4LKS9TSHL1","","<img src=""img/set1/S4.jpg"" width=""540"" height = ""360"" style=""border:16px solid orange"">","null","","","","","","","","","",""
"null","","html-keyboard-response","318","578120","0.0-318.0","37UQDCYH6YH5P3IBMBDGP0PMTO5V7N","AAF1SJ9FCBF75","388CL5C1RJ9X03EZUESK4LKS9TSHL1","","","null","","","","","","","","","",""
"416","","image-keyboard-response","319","578537","0.0-319.0","37UQDCYH6YH5P3IBMBDGP0PMTO5V7N","AAF1SJ9FCBF75","388CL5C1RJ9X03EZUESK4LKS9TSHL1","","img/set1/S3.jpg","72","3","structured_normal","72","structured_normal,structured_incentive,structured_load,random","2,1,3,4,2,3","1,4,3,2","true","","",""
"null","","html-keyboard-response","320","578888","0.0-320.0","37UQDCYH6YH5P3IBMBDGP0PMTO5V7N","AAF1SJ9FCBF75","388CL5C1RJ9X03EZUESK4LKS9TSHL1","","<img src=""img/set1/S3.jpg"" width=""540"" height = ""360"" style=""border:16px solid orange"">","null","","","","","","","","","",""
"null","","html-keyboard-response","321","579089","0.0-321.0","37UQDCYH6YH5P3IBMBDGP0PMTO5V7N","AAF1SJ9FCBF75","388CL5C1RJ9X03EZUESK4LKS9TSHL1","","","null","","","","","","","","","",""
"599","","image-keyboard-response","322","579690","0.0-322.0","37UQDCYH6YH5P3IBMBDGP0PMTO5V7N","AAF1SJ9FCBF75","388CL5C1RJ9X03EZUESK4LKS9TSHL1","","img/set1/S2.jpg","68","2","structured_normal","68","structured_normal,structured_incentive,structured_load,random","2,1,3,4,2,3","1,4,3,2","true","","",""
"null","","html-keyboard-response","323","580041","0.0-323.0","37UQDCYH6YH5P3IBMBDGP0PMTO5V7N","AAF1SJ9FCBF75","388CL5C1RJ9X03EZUESK4LKS9TSHL1","","<img src=""img/set1/S2.jpg"" width=""540"" height = ""360"" style=""border:16px solid orange"">","null","","","","","","","","","",""
"null","","html-keyboard-response","324","580242","0.0-324.0","37UQDCYH6YH5P3IBMBDGP0PMTO5V7N","AAF1SJ9FCBF75","388CL5C1RJ9X03EZUESK4LKS9TSHL1","","","null","","","","","","","","","",""
"507","","image-keyboard-response","325","580750","0.0-325.0","37UQDCYH6YH5P3IBMBDGP0PMTO5V7N","AAF1SJ9FCBF75","388CL5C1RJ9X03EZUESK4LKS9TSHL1","","img/set1/S1.jpg","83","1","structured_normal","83","structured_normal,structured_incentive,structured_load,random","2,1,3,4,2,3","1,4,3,2","true","","",""
"null","","html-keyboard-response","326","581101","0.0-326.0","37UQDCYH6YH5P3IBMBDGP0PMTO5V7N","AAF1SJ9FCBF75","388CL5C1RJ9X03EZUESK4LKS9TSHL1","","<img src=""img/set1/S1.jpg"" width=""540"" height = ""360"" style=""border:16px solid orange"">","null","","","","","","","","","",""
"null","","html-keyboard-response","327","581302","0.0-327.0","37UQDCYH6YH5P3IBMBDGP0PMTO5V7N","AAF1SJ9FCBF75","388CL5C1RJ9X03EZUESK4LKS9TSHL1","","","null","","","","","","","","","",""
"553","","image-keyboard-response","328","581858","0.0-328.0","37UQDCYH6YH5P3IBMBDGP0PMTO5V7N","AAF1SJ9FCBF75","388CL5C1RJ9X03EZUESK4LKS9TSHL1","","img/set1/S3.jpg","72","3","structured_normal","72","structured_normal,structured_incentive,structured_load,random","2,1,3,4,2,3","1,4,3,2","true","","",""
"null","","html-keyboard-response","329","582209","0.0-329.0","37UQDCYH6YH5P3IBMBDGP0PMTO5V7N","AAF1SJ9FCBF75","388CL5C1RJ9X03EZUESK4LKS9TSHL1","","<img src=""img/set1/S3.jpg"" width=""540"" height = ""360"" style=""border:16px solid orange"">","null","","","","","","","","","",""
"null","","html-keyboard-response","330","582409","0.0-330.0","37UQDCYH6YH5P3IBMBDGP0PMTO5V7N","AAF1SJ9FCBF75","388CL5C1RJ9X03EZUESK4LKS9TSHL1","","","null","","","","","","","","","",""
"461","","image-keyboard-response","331","582873","0.0-331.0","37UQDCYH6YH5P3IBMBDGP0PMTO5V7N","AAF1SJ9FCBF75","388CL5C1RJ9X03EZUESK4LKS9TSHL1","","img/set1/S4.jpg","74","4","structured_normal","74","structured_normal,structured_incentive,structured_load,random","2,1,3,4,2,3","1,4,3,2","true","","",""
"null","","html-keyboard-response","332","583223","0.0-332.0","37UQDCYH6YH5P3IBMBDGP0PMTO5V7N","AAF1SJ9FCBF75","388CL5C1RJ9X03EZUESK4LKS9TSHL1","","<img src=""img/set1/S4.jpg"" width=""540"" height = ""360"" style=""border:16px solid orange"">","null","","","","","","","","","",""
"null","","html-keyboard-response","333","583425","0.0-333.0","37UQDCYH6YH5P3IBMBDGP0PMTO5V7N","AAF1SJ9FCBF75","388CL5C1RJ9X03EZUESK4LKS9TSHL1","","","null","","","","","","","","","",""
"507","","image-keyboard-response","334","583933","0.0-334.0","37UQDCYH6YH5P3IBMBDGP0PMTO5V7N","AAF1SJ9FCBF75","388CL5C1RJ9X03EZUESK4LKS9TSHL1","","img/set1/S4.jpg","74","4","structured_normal","74","structured_normal,structured_incentive,structured_load,random","2,1,3,4,2,3","1,4,3,2","true","","",""
"null","","html-keyboard-response","335","584284","0.0-335.0","37UQDCYH6YH5P3IBMBDGP0PMTO5V7N","AAF1SJ9FCBF75","388CL5C1RJ9X03EZUESK4LKS9TSHL1","","<img src=""img/set1/S4.jpg"" width=""540"" height = ""360"" style=""border:16px solid orange"">","null","","","","","","","","","",""
"null","","html-keyboard-response","336","584486","0.0-336.0","37UQDCYH6YH5P3IBMBDGP0PMTO5V7N","AAF1SJ9FCBF75","388CL5C1RJ9X03EZUESK4LKS9TSHL1","","","null","","","","","","","","","",""
"414","","image-keyboard-response","337","584902","0.0-337.0","37UQDCYH6YH5P3IBMBDGP0PMTO5V7N","AAF1SJ9FCBF75","388CL5C1RJ9X03EZUESK4LKS9TSHL1","","img/set1/S3.jpg","72","3","structured_normal","72","structured_normal,structured_incentive,structured_load,random","2,1,3,4,2,3","1,4,3,2","true","","",""
"null","","html-keyboard-response","338","585253","0.0-338.0","37UQDCYH6YH5P3IBMBDGP0PMTO5V7N","AAF1SJ9FCBF75","388CL5C1RJ9X03EZUESK4LKS9TSHL1","","<img src=""img/set1/S3.jpg"" width=""540"" height = ""360"" style=""border:16px solid orange"">","null","","","","","","","","","",""
"null","","html-keyboard-response","339","585453","0.0-339.0","37UQDCYH6YH5P3IBMBDGP0PMTO5V7N","AAF1SJ9FCBF75","388CL5C1RJ9X03EZUESK4LKS9TSHL1","","","null","","","","","","","","","",""
"554","","image-keyboard-response","340","586009","0.0-340.0","37UQDCYH6YH5P3IBMBDGP0PMTO5V7N","AAF1SJ9FCBF75","388CL5C1RJ9X03EZUESK4LKS9TSHL1","","img/set1/S2.jpg","68","2","structured_normal","68","structured_normal,structured_incentive,structured_load,random","2,1,3,4,2,3","1,4,3,2","true","","",""
"null","","html-keyboard-response","341","586360","0.0-341.0","37UQDCYH6YH5P3IBMBDGP0PMTO5V7N","AAF1SJ9FCBF75","388CL5C1RJ9X03EZUESK4LKS9TSHL1","","<img src=""img/set1/S2.jpg"" width=""540"" height = ""360"" style=""border:16px solid orange"">","null","","","","","","","","","",""
"null","","html-keyboard-response","342","586561","0.0-342.0","37UQDCYH6YH5P3IBMBDGP0PMTO5V7N","AAF1SJ9FCBF75","388CL5C1RJ9X03EZUESK4LKS9TSHL1","","","null","","","","","","","","","",""
"462","","image-keyboard-response","343","587023","0.0-343.0","37UQDCYH6YH5P3IBMBDGP0PMTO5V7N","AAF1SJ9FCBF75","388CL5C1RJ9X03EZUESK4LKS9TSHL1","","img/set1/S1.jpg","83","1","structured_normal","83","structured_normal,structured_incentive,structured_load,random","2,1,3,4,2,3","1,4,3,2","true","","",""
"null","","html-keyboard-response","344","587375","0.0-344.0","37UQDCYH6YH5P3IBMBDGP0PMTO5V7N","AAF1SJ9FCBF75","388CL5C1RJ9X03EZUESK4LKS9TSHL1","","<img src=""img/set1/S1.jpg"" width=""540"" height = ""360"" style=""border:16px solid orange"">","null","","","","","","","","","",""
"null","","html-keyboard-response","345","587576","0.0-345.0","37UQDCYH6YH5P3IBMBDGP0PMTO5V7N","AAF1SJ9FCBF75","388CL5C1RJ9X03EZUESK4LKS9TSHL1","","","null","","","","","","","","","",""
"554","","image-keyboard-response","346","588131","0.0-346.0","37UQDCYH6YH5P3IBMBDGP0PMTO5V7N","AAF1SJ9FCBF75","388CL5C1RJ9X03EZUESK4LKS9TSHL1","","img/set1/S2.jpg","68","2","structured_normal","68","structured_normal,structured_incentive,structured_load,random","2,1,3,4,2,3","1,4,3,2","true","","",""
"null","","html-keyboard-response","347","588481","0.0-347.0","37UQDCYH6YH5P3IBMBDGP0PMTO5V7N","AAF1SJ9FCBF75","388CL5C1RJ9X03EZUESK4LKS9TSHL1","","<img src=""img/set1/S2.jpg"" width=""540"" height = ""360"" style=""border:16px solid orange"">","null","","","","","","","","","",""
"null","","html-keyboard-response","348","588683","0.0-348.0","37UQDCYH6YH5P3IBMBDGP0PMTO5V7N","AAF1SJ9FCBF75","388CL5C1RJ9X03EZUESK4LKS9TSHL1","","","null","","","","","","","","","",""
"508","","image-keyboard-response","349","589190","0.0-349.0","37UQDCYH6YH5P3IBMBDGP0PMTO5V7N","AAF1SJ9FCBF75","388CL5C1RJ9X03EZUESK4LKS9TSHL1","","img/set1/S1.jpg","83","1","structured_normal","83","structured_normal,structured_incentive,structured_load,random","2,1,3,4,2,3","1,4,3,2","true","","",""
"null","","html-keyboard-response","350","589542","0.0-350.0","37UQDCYH6YH5P3IBMBDGP0PMTO5V7N","AAF1SJ9FCBF75","388CL5C1RJ9X03EZUESK4LKS9TSHL1","","<img src=""img/set1/S1.jpg"" width=""540"" height = ""360"" style=""border:16px solid orange"">","null","","","","","","","","","",""
"null","","html-keyboard-response","351","589742","0.0-351.0","37UQDCYH6YH5P3IBMBDGP0PMTO5V7N","AAF1SJ9FCBF75","388CL5C1RJ9X03EZUESK4LKS9TSHL1","","","null","","","","","","","","","",""
"461","","image-keyboard-response","352","590204","0.0-352.0","37UQDCYH6YH5P3IBMBDGP0PMTO5V7N","AAF1SJ9FCBF75","388CL5C1RJ9X03EZUESK4LKS9TSHL1","","img/set1/S4.jpg","72","4","structured_normal","74","structured_normal,structured_incentive,structured_load,random","2,1,3,4,2,3","1,4,3,2","false","","",""
"null","","html-keyboard-response","353","590556","0.0-353.0","37UQDCYH6YH5P3IBMBDGP0PMTO5V7N","AAF1SJ9FCBF75","388CL5C1RJ9X03EZUESK4LKS9TSHL1","","<img src=""img/set1/S4.jpg"" width=""540"" height = ""360"">","null","","","","","","","","","",""
"null","","html-keyboard-response","354","590757","0.0-354.0","37UQDCYH6YH5P3IBMBDGP0PMTO5V7N","AAF1SJ9FCBF75","388CL5C1RJ9X03EZUESK4LKS9TSHL1","","","null","","","","","","","","","",""
"465","","image-keyboard-response","355","591223","0.0-355.0","37UQDCYH6YH5P3IBMBDGP0PMTO5V7N","AAF1SJ9FCBF75","388CL5C1RJ9X03EZUESK4LKS9TSHL1","","img/set1/S3.jpg","72","3","structured_normal","72","structured_normal,structured_incentive,structured_load,random","2,1,3,4,2,3","1,4,3,2","true","","",""
"null","","html-keyboard-response","356","591573","0.0-356.0","37UQDCYH6YH5P3IBMBDGP0PMTO5V7N","AAF1SJ9FCBF75","388CL5C1RJ9X03EZUESK4LKS9TSHL1","","<img src=""img/set1/S3.jpg"" width=""540"" height = ""360"" style=""border:16px solid orange"">","null","","","","","","","","","",""
"null","","html-keyboard-response","357","591775","0.0-357.0","37UQDCYH6YH5P3IBMBDGP0PMTO5V7N","AAF1SJ9FCBF75","388CL5C1RJ9X03EZUESK4LKS9TSHL1","","","null","","","","","","","","","",""
"599","","image-keyboard-response","358","592376","0.0-358.0","37UQDCYH6YH5P3IBMBDGP0PMTO5V7N","AAF1SJ9FCBF75","388CL5C1RJ9X03EZUESK4LKS9TSHL1","","img/set1/S2.jpg","68","2","structured_normal","68","structured_normal,structured_incentive,structured_load,random","2,1,3,4,2,3","1,4,3,2","true","","",""
"null","","html-keyboard-response","359","592727","0.0-359.0","37UQDCYH6YH5P3IBMBDGP0PMTO5V7N","AAF1SJ9FCBF75","388CL5C1RJ9X03EZUESK4LKS9TSHL1","","<img src=""img/set1/S2.jpg"" width=""540"" height = ""360"" style=""border:16px solid orange"">","null","","","","","","","","","",""
"null","","html-keyboard-response","360","592928","0.0-360.0","37UQDCYH6YH5P3IBMBDGP0PMTO5V7N","AAF1SJ9FCBF75","388CL5C1RJ9X03EZUESK4LKS9TSHL1","","","null","","","","","","","","","",""
"415","","image-keyboard-response","361","593344","0.0-361.0","37UQDCYH6YH5P3IBMBDGP0PMTO5V7N","AAF1SJ9FCBF75","388CL5C1RJ9X03EZUESK4LKS9TSHL1","","img/set1/S1.jpg","83","1","structured_normal","83","structured_normal,structured_incentive,structured_load,random","2,1,3,4,2,3","1,4,3,2","true","","",""
"null","","html-keyboard-response","362","593695","0.0-362.0","37UQDCYH6YH5P3IBMBDGP0PMTO5V7N","AAF1SJ9FCBF75","388CL5C1RJ9X03EZUESK4LKS9TSHL1","","<img src=""img/set1/S1.jpg"" width=""540"" height = ""360"" style=""border:16px solid orange"">","null","","","","","","","","","",""
"null","","html-keyboard-response","363","593896","0.0-363.0","37UQDCYH6YH5P3IBMBDGP0PMTO5V7N","AAF1SJ9FCBF75","388CL5C1RJ9X03EZUESK4LKS9TSHL1","","","null","","","","","","","","","",""
"47159","","html-keyboard-response","364","641055","0.0-364.0","37UQDCYH6YH5P3IBMBDGP0PMTO5V7N","AAF1SJ9FCBF75","388CL5C1RJ9X03EZUESK4LKS9TSHL1","","<p class=""center-content"">You have completed a block! </p><p class=""center-content"">Press any key on the keyboard to continue, </p><p class=""center-content"">or wait for the automatic progression to the next block after one minute.</p>","83","","","","","","","","","",""
"11215","","instructions","365","652271","0.0-365.0","37UQDCYH6YH5P3IBMBDGP0PMTO5V7N","AAF1SJ9FCBF75","388CL5C1RJ9X03EZUESK4LKS9TSHL1","[{""page_index"":0,""viewing_time"":11215}]","","","","","","","","","","","",""
"34951","","instructions","366","687223","0.0-366.0","37UQDCYH6YH5P3IBMBDGP0PMTO5V7N","AAF1SJ9FCBF75","388CL5C1RJ9X03EZUESK4LKS9TSHL1","[{""page_index"":0,""viewing_time"":21735},{""page_index"":1,""viewing_time"":13216}]","","","","","","","","","","","",""
"2049","","image-keyboard-response","367","689274","0.0-367.0","37UQDCYH6YH5P3IBMBDGP0PMTO5V7N","AAF1SJ9FCBF75","388CL5C1RJ9X03EZUESK4LKS9TSHL1","","img/set2/S1.jpg","83","1","structured_incentive","83","structured_normal,structured_incentive,structured_load,random","2,1,3,4,2,3","1,4,3,2","true","","",""
"null","","html-keyboard-response","368","689625","0.0-368.0","37UQDCYH6YH5P3IBMBDGP0PMTO5V7N","AAF1SJ9FCBF75","388CL5C1RJ9X03EZUESK4LKS9TSHL1","","<img src=""img/set2/S1.jpg"" width=""540"" height = ""360"" style=""border:16px solid orange"">","null","","","","","","","","","",""
"null","","html-keyboard-response","369","689825","0.0-369.0","37UQDCYH6YH5P3IBMBDGP0PMTO5V7N","AAF1SJ9FCBF75","388CL5C1RJ9X03EZUESK4LKS9TSHL1","","","null","","","","","","","","","",""
"784","","image-keyboard-response","370","690610","0.0-370.0","37UQDCYH6YH5P3IBMBDGP0PMTO5V7N","AAF1SJ9FCBF75","388CL5C1RJ9X03EZUESK4LKS9TSHL1","","img/set2/S2.jpg","68","2","structured_incentive","68","structured_normal,structured_incentive,structured_load,random","2,1,3,4,2,3","1,4,3,2","true","","",""
"null","","html-keyboard-response","371","690961","0.0-371.0","37UQDCYH6YH5P3IBMBDGP0PMTO5V7N","AAF1SJ9FCBF75","388CL5C1RJ9X03EZUESK4LKS9TSHL1","","<img src=""img/set2/S2.jpg"" width=""540"" height = ""360"" style=""border:16px solid orange"">","null","","","","","","","","","",""
"null","","html-keyboard-response","372","691162","0.0-372.0","37UQDCYH6YH5P3IBMBDGP0PMTO5V7N","AAF1SJ9FCBF75","388CL5C1RJ9X03EZUESK4LKS9TSHL1","","","null","","","","","","","","","",""
"785","","image-keyboard-response","373","691947","0.0-373.0","37UQDCYH6YH5P3IBMBDGP0PMTO5V7N","AAF1SJ9FCBF75","388CL5C1RJ9X03EZUESK4LKS9TSHL1","","img/set2/S3.jpg","72","3","structured_incentive","72","structured_normal,structured_incentive,structured_load,random","2,1,3,4,2,3","1,4,3,2","true","","",""
"null","","html-keyboard-response","374","692299","0.0-374.0","37UQDCYH6YH5P3IBMBDGP0PMTO5V7N","AAF1SJ9FCBF75","388CL5C1RJ9X03EZUESK4LKS9TSHL1","","<img src=""img/set2/S3.jpg"" width=""540"" height = ""360"" style=""border:16px solid orange"">","null","","","","","","","","","",""
"null","","html-keyboard-response","375","692500","0.0-375.0","37UQDCYH6YH5P3IBMBDGP0PMTO5V7N","AAF1SJ9FCBF75","388CL5C1RJ9X03EZUESK4LKS9TSHL1","","","null","","","","","","","","","",""
"506","","image-keyboard-response","376","693007","0.0-376.0","37UQDCYH6YH5P3IBMBDGP0PMTO5V7N","AAF1SJ9FCBF75","388CL5C1RJ9X03EZUESK4LKS9TSHL1","","img/set2/S4.jpg","74","4","structured_incentive","74","structured_normal,structured_incentive,structured_load,random","2,1,3,4,2,3","1,4,3,2","true","","",""
"null","","html-keyboard-response","377","693359","0.0-377.0","37UQDCYH6YH5P3IBMBDGP0PMTO5V7N","AAF1SJ9FCBF75","388CL5C1RJ9X03EZUESK4LKS9TSHL1","","<img src=""img/set2/S4.jpg"" width=""540"" height = ""360"" style=""border:16px solid Violet"">","null","","","","","","","","","",""
"null","","html-keyboard-response","378","693559","0.0-378.0","37UQDCYH6YH5P3IBMBDGP0PMTO5V7N","AAF1SJ9FCBF75","388CL5C1RJ9X03EZUESK4LKS9TSHL1","","","null","","","","","","","","","",""
"693","","image-keyboard-response","379","694252","0.0-379.0","37UQDCYH6YH5P3IBMBDGP0PMTO5V7N","AAF1SJ9FCBF75","388CL5C1RJ9X03EZUESK4LKS9TSHL1","","img/set2/S2.jpg","83","2","structured_incentive","68","structured_normal,structured_incentive,structured_load,random","2,1,3,4,2,3","1,4,3,2","false","","",""
"null","","html-keyboard-response","380","694604","0.0-380.0","37UQDCYH6YH5P3IBMBDGP0PMTO5V7N","AAF1SJ9FCBF75","388CL5C1RJ9X03EZUESK4LKS9TSHL1","","<img src=""img/set2/S2.jpg"" width=""540"" height = ""360"">","null","","","","","","","","","",""
"null","","html-keyboard-response","381","694805","0.0-381.0","37UQDCYH6YH5P3IBMBDGP0PMTO5V7N","AAF1SJ9FCBF75","388CL5C1RJ9X03EZUESK4LKS9TSHL1","","","null","","","","","","","","","",""
"837","","image-keyboard-response","382","695643","0.0-382.0","37UQDCYH6YH5P3IBMBDGP0PMTO5V7N","AAF1SJ9FCBF75","388CL5C1RJ9X03EZUESK4LKS9TSHL1","","img/set2/S1.jpg","83","1","structured_incentive","83","structured_normal,structured_incentive,structured_load,random","2,1,3,4,2,3","1,4,3,2","true","","",""
"null","","html-keyboard-response","383","695994","0.0-383.0","37UQDCYH6YH5P3IBMBDGP0PMTO5V7N","AAF1SJ9FCBF75","388CL5C1RJ9X03EZUESK4LKS9TSHL1","","<img src=""img/set2/S1.jpg"" width=""540"" height = ""360"" style=""border:16px solid orange"">","null","","","","","","","","","",""
"null","","html-keyboard-response","384","696195","0.0-384.0","37UQDCYH6YH5P3IBMBDGP0PMTO5V7N","AAF1SJ9FCBF75","388CL5C1RJ9X03EZUESK4LKS9TSHL1","","","null","","","","","","","","","",""
"706","","image-keyboard-response","385","696901","0.0-385.0","37UQDCYH6YH5P3IBMBDGP0PMTO5V7N","AAF1SJ9FCBF75","388CL5C1RJ9X03EZUESK4LKS9TSHL1","","img/set2/S3.jpg","72","3","structured_incentive","72","structured_normal,structured_incentive,structured_load,random","2,1,3,4,2,3","1,4,3,2","true","","",""
"null","","html-keyboard-response","386","697253","0.0-386.0","37UQDCYH6YH5P3IBMBDGP0PMTO5V7N","AAF1SJ9FCBF75","388CL5C1RJ9X03EZUESK4LKS9TSHL1","","<img src=""img/set2/S3.jpg"" width=""540"" height = ""360"" style=""border:16px solid orange"">","null","","","","","","","","","",""
"null","","html-keyboard-response","387","697454","0.0-387.0","37UQDCYH6YH5P3IBMBDGP0PMTO5V7N","AAF1SJ9FCBF75","388CL5C1RJ9X03EZUESK4LKS9TSHL1","","","null","","","","","","","","","",""
