"rt","url","trial_type","trial_index","time_elapsed","internal_node_id","assignmentID","mturkID","hitID","view_history","stimulus","key_press","state","test_part","correct_response","order_block","order_chunk","order_freq","correct","responses","question_order","bonus"
"2945","consent.html","external-html","0","3005","0.0-0.0","38SKSKU7R2JZIINDRYF7TGHTH68ILH","APGX2WZ59OWDN","3WUVMVA7OBP2V5NP3991VE8MBDEZA7","","","","","","","","","","","","",""
"42027.40000000037","","instructions","1","45034","0.0-1.0","38SKSKU7R2JZIINDRYF7TGHTH68ILH","APGX2WZ59OWDN","3WUVMVA7OBP2V5NP3991VE8MBDEZA7","[{""page_index"":0,""viewing_time"":1574.199999999255},{""page_index"":1,""viewing_time"":3160.10000000149},{""page_index"":2,""viewing_time"":7665.0999999996275},{""page_index"":3,""viewing_time"":10097.099999999627},{""page_index"":4,""viewing_time"":2720.5},{""page_index"":5,""viewing_time"":12129.400000000373},{""page_index"":6,""viewing_time"":4680.5}]","","","","","","","","","","","",""
"5991.10000000149","","instructions","2","51027","0.0-2.0","38SKSKU7R2JZIINDRYF7TGHTH68ILH","APGX2WZ59OWDN","3WUVMVA7OBP2V5NP3991VE8MBDEZA7","[{""page_index"":0,""viewing_time"":5991}]","","","","","","","","","","","",""
"1919.2999999988824","","instructions","3","52947","0.0-3.0","38SKSKU7R2JZIINDRYF7TGHTH68ILH","APGX2WZ59OWDN","3WUVMVA7OBP2V5NP3991VE8MBDEZA7","[{""page_index"":0,""viewing_time"":1919.199999999255}]","","","","","","","","","","","",""
"823","","image-keyboard-response","4","53771","0.0-4.0","38SKSKU7R2JZIINDRYF7TGHTH68ILH","APGX2WZ59OWDN","3WUVMVA7OBP2V5NP3991VE8MBDEZA7","","img/set1/S1.jpg","83","1","random","83","random,structured_load,structured_incentive,structured_normal","2,3,4,2,1,2","1,2,3,4","true","","",""
"null","","html-keyboard-response","5","54123","0.0-5.0","38SKSKU7R2JZIINDRYF7TGHTH68ILH","APGX2WZ59OWDN","3WUVMVA7OBP2V5NP3991VE8MBDEZA7","","<img src=""img/set1/S1.jpg"" width=""540"" height = ""360"" style=""border:16px solid orange"">","null","","","","","","","","","",""
"null","","html-keyboard-response","6","54325","0.0-6.0","38SKSKU7R2JZIINDRYF7TGHTH68ILH","APGX2WZ59OWDN","3WUVMVA7OBP2V5NP3991VE8MBDEZA7","","","null","","","","","","","","","",""
"1165.199999999255","","image-keyboard-response","7","55492","0.0-7.0","38SKSKU7R2JZIINDRYF7TGHTH68ILH","APGX2WZ59OWDN","3WUVMVA7OBP2V5NP3991VE8MBDEZA7","","img/set1/S2.jpg","83","2","random","68","random,structured_load,structured_incentive,structured_normal","2,3,4,2,1,2","1,2,3,4","false","","",""
"null","","html-keyboard-response","8","55843","0.0-8.0","38SKSKU7R2JZIINDRYF7TGHTH68ILH","APGX2WZ59OWDN","3WUVMVA7OBP2V5NP3991VE8MBDEZA7","","<img src=""img/set1/S2.jpg"" width=""540"" height = ""360"">","null","","","","","","","","","",""
"null","","html-keyboard-response","9","56044","0.0-9.0","38SKSKU7R2JZIINDRYF7TGHTH68ILH","APGX2WZ59OWDN","3WUVMVA7OBP2V5NP3991VE8MBDEZA7","","","null","","","","","","","","","",""
"670","","image-keyboard-response","10","56715","0.0-10.0","38SKSKU7R2JZIINDRYF7TGHTH68ILH","APGX2WZ59OWDN","3WUVMVA7OBP2V5NP3991VE8MBDEZA7","","img/set1/S3.jpg","83","3","random","72","random,structured_load,structured_incentive,structured_normal","2,3,4,2,1,2","1,2,3,4","false","","",""
"null","","html-keyboard-response","11","57067","0.0-11.0","38SKSKU7R2JZIINDRYF7TGHTH68ILH","APGX2WZ59OWDN","3WUVMVA7OBP2V5NP3991VE8MBDEZA7","","<img src=""img/set1/S3.jpg"" width=""540"" height = ""360"">","null","","","","","","","","","",""
"null","","html-keyboard-response","12","57270","0.0-12.0","38SKSKU7R2JZIINDRYF7TGHTH68ILH","APGX2WZ59OWDN","3WUVMVA7OBP2V5NP3991VE8MBDEZA7","","","null","","","","","","","","","",""
"989","","image-keyboard-response","13","58259","0.0-13.0","38SKSKU7R2JZIINDRYF7TGHTH68ILH","APGX2WZ59OWDN","3WUVMVA7OBP2V5NP3991VE8MBDEZA7","","img/set1/S3.jpg","68","3","random","72","random,structured_load,structured_incentive,structured_normal","2,3,4,2,1,2","1,2,3,4","false","","",""
"null","","html-keyboard-response","14","58611","0.0-14.0","38SKSKU7R2JZIINDRYF7TGHTH68ILH","APGX2WZ59OWDN","3WUVMVA7OBP2V5NP3991VE8MBDEZA7","","<img src=""img/set1/S3.jpg"" width=""540"" height = ""360"">","null","","","","","","","","","",""
"null","","html-keyboard-response","15","58812","0.0-15.0","38SKSKU7R2JZIINDRYF7TGHTH68ILH","APGX2WZ59OWDN","3WUVMVA7OBP2V5NP3991VE8MBDEZA7","","","null","","","","","","","","","",""
"863.0999999996275","","image-keyboard-response","16","59676","0.0-16.0","38SKSKU7R2JZIINDRYF7TGHTH68ILH","APGX2WZ59OWDN","3WUVMVA7OBP2V5NP3991VE8MBDEZA7","","img/set1/S2.jpg","83","2","random","68","random,structured_load,structured_incentive,structured_normal","2,3,4,2,1,2","1,2,3,4","false","","",""
"null","","html-keyboard-response","17","60027","0.0-17.0","38SKSKU7R2JZIINDRYF7TGHTH68ILH","APGX2WZ59OWDN","3WUVMVA7OBP2V5NP3991VE8MBDEZA7","","<img src=""img/set1/S2.jpg"" width=""540"" height = ""360"">","null","","","","","","","","","",""
"null","","html-keyboard-response","18","60229","0.0-18.0","38SKSKU7R2JZIINDRYF7TGHTH68ILH","APGX2WZ59OWDN","3WUVMVA7OBP2V5NP3991VE8MBDEZA7","","","null","","","","","","","","","",""
"741.6999999992549","","image-keyboard-response","19","60972","0.0-19.0","38SKSKU7R2JZIINDRYF7TGHTH68ILH","APGX2WZ59OWDN","3WUVMVA7OBP2V5NP3991VE8MBDEZA7","","img/set1/S1.jpg","83","1","random","83","random,structured_load,structured_incentive,structured_normal","2,3,4,2,1,2","1,2,3,4","true","","",""
"null","","html-keyboard-response","20","61323","0.0-20.0","38SKSKU7R2JZIINDRYF7TGHTH68ILH","APGX2WZ59OWDN","3WUVMVA7OBP2V5NP3991VE8MBDEZA7","","<img src=""img/set1/S1.jpg"" width=""540"" height = ""360"" style=""border:16px solid orange"">","null","","","","","","","","","",""
"null","","html-keyboard-response","21","61524","0.0-21.0","38SKSKU7R2JZIINDRYF7TGHTH68ILH","APGX2WZ59OWDN","3WUVMVA7OBP2V5NP3991VE8MBDEZA7","","","null","","","","","","","","","",""
"1206.7000000011176","","image-keyboard-response","22","62732","0.0-22.0","38SKSKU7R2JZIINDRYF7TGHTH68ILH","APGX2WZ59OWDN","3WUVMVA7OBP2V5NP3991VE8MBDEZA7","","img/set1/S4.jpg","83","4","random","74","random,structured_load,structured_incentive,structured_normal","2,3,4,2,1,2","1,2,3,4","false","","",""
"null","","html-keyboard-response","23","63084","0.0-23.0","38SKSKU7R2JZIINDRYF7TGHTH68ILH","APGX2WZ59OWDN","3WUVMVA7OBP2V5NP3991VE8MBDEZA7","","<img src=""img/set1/S4.jpg"" width=""540"" height = ""360"">","null","","","","","","","","","",""
"null","","html-keyboard-response","24","63285","0.0-24.0","38SKSKU7R2JZIINDRYF7TGHTH68ILH","APGX2WZ59OWDN","3WUVMVA7OBP2V5NP3991VE8MBDEZA7","","","null","","","","","","","","","",""
"1358.199999999255","","image-keyboard-response","25","64644","0.0-25.0","38SKSKU7R2JZIINDRYF7TGHTH68ILH","APGX2WZ59OWDN","3WUVMVA7OBP2V5NP3991VE8MBDEZA7","","img/set1/S1.jpg","83","1","random","83","random,structured_load,structured_incentive,structured_normal","2,3,4,2,1,2","1,2,3,4","true","","",""
"null","","html-keyboard-response","26","64996","0.0-26.0","38SKSKU7R2JZIINDRYF7TGHTH68ILH","APGX2WZ59OWDN","3WUVMVA7OBP2V5NP3991VE8MBDEZA7","","<img src=""img/set1/S1.jpg"" width=""540"" height = ""360"" style=""border:16px solid orange"">","null","","","","","","","","","",""
"null","","html-keyboard-response","27","65197","0.0-27.0","38SKSKU7R2JZIINDRYF7TGHTH68ILH","APGX2WZ59OWDN","3WUVMVA7OBP2V5NP3991VE8MBDEZA7","","","null","","","","","","","","","",""
"1142.300000000745","","image-keyboard-response","28","66340","0.0-28.0","38SKSKU7R2JZIINDRYF7TGHTH68ILH","APGX2WZ59OWDN","3WUVMVA7OBP2V5NP3991VE8MBDEZA7","","img/set1/S4.jpg","68","4","random","74","random,structured_load,structured_incentive,structured_normal","2,3,4,2,1,2","1,2,3,4","false","","",""
"null","","html-keyboard-response","29","66691","0.0-29.0","38SKSKU7R2JZIINDRYF7TGHTH68ILH","APGX2WZ59OWDN","3WUVMVA7OBP2V5NP3991VE8MBDEZA7","","<img src=""img/set1/S4.jpg"" width=""540"" height = ""360"">","null","","","","","","","","","",""
"null","","html-keyboard-response","30","66893","0.0-30.0","38SKSKU7R2JZIINDRYF7TGHTH68ILH","APGX2WZ59OWDN","3WUVMVA7OBP2V5NP3991VE8MBDEZA7","","","null","","","","","","","","","",""
"855.0999999996275","","image-keyboard-response","31","67748","0.0-31.0","38SKSKU7R2JZIINDRYF7TGHTH68ILH","APGX2WZ59OWDN","3WUVMVA7OBP2V5NP3991VE8MBDEZA7","","img/set1/S1.jpg","83","1","random","83","random,structured_load,structured_incentive,structured_normal","2,3,4,2,1,2","1,2,3,4","true","","",""
"null","","html-keyboard-response","32","68100","0.0-32.0","38SKSKU7R2JZIINDRYF7TGHTH68ILH","APGX2WZ59OWDN","3WUVMVA7OBP2V5NP3991VE8MBDEZA7","","<img src=""img/set1/S1.jpg"" width=""540"" height = ""360"" style=""border:16px solid orange"">","null","","","","","","","","","",""
"null","","html-keyboard-response","33","68301","0.0-33.0","38SKSKU7R2JZIINDRYF7TGHTH68ILH","APGX2WZ59OWDN","3WUVMVA7OBP2V5NP3991VE8MBDEZA7","","","null","","","","","","","","","",""
"831.2000000011176","","image-keyboard-response","34","69133","0.0-34.0","38SKSKU7R2JZIINDRYF7TGHTH68ILH","APGX2WZ59OWDN","3WUVMVA7OBP2V5NP3991VE8MBDEZA7","","img/set1/S1.jpg","83","1","random","83","random,structured_load,structured_incentive,structured_normal","2,3,4,2,1,2","1,2,3,4","true","","",""
"null","","html-keyboard-response","35","69484","0.0-35.0","38SKSKU7R2JZIINDRYF7TGHTH68ILH","APGX2WZ59OWDN","3WUVMVA7OBP2V5NP3991VE8MBDEZA7","","<img src=""img/set1/S1.jpg"" width=""540"" height = ""360"" style=""border:16px solid orange"">","null","","","","","","","","","",""
"null","","html-keyboard-response","36","69685","0.0-36.0","38SKSKU7R2JZIINDRYF7TGHTH68ILH","APGX2WZ59OWDN","3WUVMVA7OBP2V5NP3991VE8MBDEZA7","","","null","","","","","","","","","",""
"823","","image-keyboard-response","37","70509","0.0-37.0","38SKSKU7R2JZIINDRYF7TGHTH68ILH","APGX2WZ59OWDN","3WUVMVA7OBP2V5NP3991VE8MBDEZA7","","img/set1/S4.jpg","72","4","random","74","random,structured_load,structured_incentive,structured_normal","2,3,4,2,1,2","1,2,3,4","false","","",""
"null","","html-keyboard-response","38","70861","0.0-38.0","38SKSKU7R2JZIINDRYF7TGHTH68ILH","APGX2WZ59OWDN","3WUVMVA7OBP2V5NP3991VE8MBDEZA7","","<img src=""img/set1/S4.jpg"" width=""540"" height = ""360"">","null","","","","","","","","","",""
"null","","html-keyboard-response","39","71062","0.0-39.0","38SKSKU7R2JZIINDRYF7TGHTH68ILH","APGX2WZ59OWDN","3WUVMVA7OBP2V5NP3991VE8MBDEZA7","","","null","","","","","","","","","",""
"1686.2999999988824","","image-keyboard-response","40","72749","0.0-40.0","38SKSKU7R2JZIINDRYF7TGHTH68ILH","APGX2WZ59OWDN","3WUVMVA7OBP2V5NP3991VE8MBDEZA7","","img/set1/S3.jpg","68","3","random","72","random,structured_load,structured_incentive,structured_normal","2,3,4,2,1,2","1,2,3,4","false","","",""
"null","","html-keyboard-response","41","73100","0.0-41.0","38SKSKU7R2JZIINDRYF7TGHTH68ILH","APGX2WZ59OWDN","3WUVMVA7OBP2V5NP3991VE8MBDEZA7","","<img src=""img/set1/S3.jpg"" width=""540"" height = ""360"">","null","","","","","","","","","",""
"null","","html-keyboard-response","42","73301","0.0-42.0","38SKSKU7R2JZIINDRYF7TGHTH68ILH","APGX2WZ59OWDN","3WUVMVA7OBP2V5NP3991VE8MBDEZA7","","","null","","","","","","","","","",""
"671.5","","image-keyboard-response","43","73973","0.0-43.0","38SKSKU7R2JZIINDRYF7TGHTH68ILH","APGX2WZ59OWDN","3WUVMVA7OBP2V5NP3991VE8MBDEZA7","","img/set1/S3.jpg","72","3","random","72","random,structured_load,structured_incentive,structured_normal","2,3,4,2,1,2","1,2,3,4","true","","",""
"null","","html-keyboard-response","44","74324","0.0-44.0","38SKSKU7R2JZIINDRYF7TGHTH68ILH","APGX2WZ59OWDN","3WUVMVA7OBP2V5NP3991VE8MBDEZA7","","<img src=""img/set1/S3.jpg"" width=""540"" height = ""360"" style=""border:16px solid orange"">","null","","","","","","","","","",""
"null","","html-keyboard-response","45","74525","0.0-45.0","38SKSKU7R2JZIINDRYF7TGHTH68ILH","APGX2WZ59OWDN","3WUVMVA7OBP2V5NP3991VE8MBDEZA7","","","null","","","","","","","","","",""
"719.5","","image-keyboard-response","46","75245","0.0-46.0","38SKSKU7R2JZIINDRYF7TGHTH68ILH","APGX2WZ59OWDN","3WUVMVA7OBP2V5NP3991VE8MBDEZA7","","img/set1/S1.jpg","83","1","random","83","random,structured_load,structured_incentive,structured_normal","2,3,4,2,1,2","1,2,3,4","true","","",""
"null","","html-keyboard-response","47","75597","0.0-47.0","38SKSKU7R2JZIINDRYF7TGHTH68ILH","APGX2WZ59OWDN","3WUVMVA7OBP2V5NP3991VE8MBDEZA7","","<img src=""img/set1/S1.jpg"" width=""540"" height = ""360"" style=""border:16px solid orange"">","null","","","","","","","","","",""
"null","","html-keyboard-response","48","75798","0.0-48.0","38SKSKU7R2JZIINDRYF7TGHTH68ILH","APGX2WZ59OWDN","3WUVMVA7OBP2V5NP3991VE8MBDEZA7","","","null","","","","","","","","","",""
"726.4000000003725","","image-keyboard-response","49","76525","0.0-49.0","38SKSKU7R2JZIINDRYF7TGHTH68ILH","APGX2WZ59OWDN","3WUVMVA7OBP2V5NP3991VE8MBDEZA7","","img/set1/S1.jpg","83","1","random","83","random,structured_load,structured_incentive,structured_normal","2,3,4,2,1,2","1,2,3,4","true","","",""
"null","","html-keyboard-response","50","76877","0.0-50.0","38SKSKU7R2JZIINDRYF7TGHTH68ILH","APGX2WZ59OWDN","3WUVMVA7OBP2V5NP3991VE8MBDEZA7","","<img src=""img/set1/S1.jpg"" width=""540"" height = ""360"" style=""border:16px solid orange"">","null","","","","","","","","","",""
"null","","html-keyboard-response","51","77078","0.0-51.0","38SKSKU7R2JZIINDRYF7TGHTH68ILH","APGX2WZ59OWDN","3WUVMVA7OBP2V5NP3991VE8MBDEZA7","","","null","","","","","","","","","",""
"598.6999999992549","","image-keyboard-response","52","77677","0.0-52.0","38SKSKU7R2JZIINDRYF7TGHTH68ILH","APGX2WZ59OWDN","3WUVMVA7OBP2V5NP3991VE8MBDEZA7","","img/set1/S1.jpg","83","1","random","83","random,structured_load,structured_incentive,structured_normal","2,3,4,2,1,2","1,2,3,4","true","","",""
"null","","html-keyboard-response","53","78029","0.0-53.0","38SKSKU7R2JZIINDRYF7TGHTH68ILH","APGX2WZ59OWDN","3WUVMVA7OBP2V5NP3991VE8MBDEZA7","","<img src=""img/set1/S1.jpg"" width=""540"" height = ""360"" style=""border:16px solid orange"">","null","","","","","","","","","",""
"null","","html-keyboard-response","54","78229","0.0-54.0","38SKSKU7R2JZIINDRYF7TGHTH68ILH","APGX2WZ59OWDN","3WUVMVA7OBP2V5NP3991VE8MBDEZA7","","","null","","","","","","","","","",""
"727.6000000014901","","image-keyboard-response","55","78958","0.0-55.0","38SKSKU7R2JZIINDRYF7TGHTH68ILH","APGX2WZ59OWDN","3WUVMVA7OBP2V5NP3991VE8MBDEZA7","","img/set1/S3.jpg","72","3","random","72","random,structured_load,structured_incentive,structured_normal","2,3,4,2,1,2","1,2,3,4","true","","",""
"null","","html-keyboard-response","56","79309","0.0-56.0","38SKSKU7R2JZIINDRYF7TGHTH68ILH","APGX2WZ59OWDN","3WUVMVA7OBP2V5NP3991VE8MBDEZA7","","<img src=""img/set1/S3.jpg"" width=""540"" height = ""360"" style=""border:16px solid orange"">","null","","","","","","","","","",""
"null","","html-keyboard-response","57","79511","0.0-57.0","38SKSKU7R2JZIINDRYF7TGHTH68ILH","APGX2WZ59OWDN","3WUVMVA7OBP2V5NP3991VE8MBDEZA7","","","null","","","","","","","","","",""
"646.5999999996275","","image-keyboard-response","58","80158","0.0-58.0","38SKSKU7R2JZIINDRYF7TGHTH68ILH","APGX2WZ59OWDN","3WUVMVA7OBP2V5NP3991VE8MBDEZA7","","img/set1/S1.jpg","83","1","random","83","random,structured_load,structured_incentive,structured_normal","2,3,4,2,1,2","1,2,3,4","true","","",""
"null","","html-keyboard-response","59","80509","0.0-59.0","38SKSKU7R2JZIINDRYF7TGHTH68ILH","APGX2WZ59OWDN","3WUVMVA7OBP2V5NP3991VE8MBDEZA7","","<img src=""img/set1/S1.jpg"" width=""540"" height = ""360"" style=""border:16px solid orange"">","null","","","","","","","","","",""
"null","","html-keyboard-response","60","80710","0.0-60.0","38SKSKU7R2JZIINDRYF7TGHTH68ILH","APGX2WZ59OWDN","3WUVMVA7OBP2V5NP3991VE8MBDEZA7","","","null","","","","","","","","","",""
"671.4000000003725","","image-keyboard-response","61","81382","0.0-61.0","38SKSKU7R2JZIINDRYF7TGHTH68ILH","APGX2WZ59OWDN","3WUVMVA7OBP2V5NP3991VE8MBDEZA7","","img/set1/S1.jpg","83","1","random","83","random,structured_load,structured_incentive,structured_normal","2,3,4,2,1,2","1,2,3,4","true","","",""
"null","","html-keyboard-response","62","81733","0.0-62.0","38SKSKU7R2JZIINDRYF7TGHTH68ILH","APGX2WZ59OWDN","3WUVMVA7OBP2V5NP3991VE8MBDEZA7","","<img src=""img/set1/S1.jpg"" width=""540"" height = ""360"" style=""border:16px solid orange"">","null","","","","","","","","","",""
"null","","html-keyboard-response","63","81935","0.0-63.0","38SKSKU7R2JZIINDRYF7TGHTH68ILH","APGX2WZ59OWDN","3WUVMVA7OBP2V5NP3991VE8MBDEZA7","","","null","","","","","","","","","",""
"534.7999999988824","","image-keyboard-response","64","82470","0.0-64.0","38SKSKU7R2JZIINDRYF7TGHTH68ILH","APGX2WZ59OWDN","3WUVMVA7OBP2V5NP3991VE8MBDEZA7","","img/set1/S3.jpg","72","3","random","72","random,structured_load,structured_incentive,structured_normal","2,3,4,2,1,2","1,2,3,4","true","","",""
"null","","html-keyboard-response","65","82821","0.0-65.0","38SKSKU7R2JZIINDRYF7TGHTH68ILH","APGX2WZ59OWDN","3WUVMVA7OBP2V5NP3991VE8MBDEZA7","","<img src=""img/set1/S3.jpg"" width=""540"" height = ""360"" style=""border:16px solid orange"">","null","","","","","","","","","",""
"null","","html-keyboard-response","66","83023","0.0-66.0","38SKSKU7R2JZIINDRYF7TGHTH68ILH","APGX2WZ59OWDN","3WUVMVA7OBP2V5NP3991VE8MBDEZA7","","","null","","","","","","","","","",""
"559.0999999996275","","image-keyboard-response","67","83582","0.0-67.0","38SKSKU7R2JZIINDRYF7TGHTH68ILH","APGX2WZ59OWDN","3WUVMVA7OBP2V5NP3991VE8MBDEZA7","","img/set1/S1.jpg","83","1","random","83","random,structured_load,structured_incentive,structured_normal","2,3,4,2,1,2","1,2,3,4","true","","",""
"null","","html-keyboard-response","68","83933","0.0-68.0","38SKSKU7R2JZIINDRYF7TGHTH68ILH","APGX2WZ59OWDN","3WUVMVA7OBP2V5NP3991VE8MBDEZA7","","<img src=""img/set1/S1.jpg"" width=""540"" height = ""360"" style=""border:16px solid orange"">","null","","","","","","","","","",""
"null","","html-keyboard-response","69","84134","0.0-69.0","38SKSKU7R2JZIINDRYF7TGHTH68ILH","APGX2WZ59OWDN","3WUVMVA7OBP2V5NP3991VE8MBDEZA7","","","null","","","","","","","","","",""
"1094.699999999255","","image-keyboard-response","70","85230","0.0-70.0","38SKSKU7R2JZIINDRYF7TGHTH68ILH","APGX2WZ59OWDN","3WUVMVA7OBP2V5NP3991VE8MBDEZA7","","img/set1/S4.jpg","74","4","random","74","random,structured_load,structured_incentive,structured_normal","2,3,4,2,1,2","1,2,3,4","true","","",""
"null","","html-keyboard-response","71","85582","0.0-71.0","38SKSKU7R2JZIINDRYF7TGHTH68ILH","APGX2WZ59OWDN","3WUVMVA7OBP2V5NP3991VE8MBDEZA7","","<img src=""img/set1/S4.jpg"" width=""540"" height = ""360"" style=""border:16px solid orange"">","null","","","","","","","","","",""
"null","","html-keyboard-response","72","85783","0.0-72.0","38SKSKU7R2JZIINDRYF7TGHTH68ILH","APGX2WZ59OWDN","3WUVMVA7OBP2V5NP3991VE8MBDEZA7","","","null","","","","","","","","","",""
"1046.7999999988824","","image-keyboard-response","73","86830","0.0-73.0","38SKSKU7R2JZIINDRYF7TGHTH68ILH","APGX2WZ59OWDN","3WUVMVA7OBP2V5NP3991VE8MBDEZA7","","img/set1/S3.jpg","72","3","random","72","random,structured_load,structured_incentive,structured_normal","2,3,4,2,1,2","1,2,3,4","true","","",""
"null","","html-keyboard-response","74","87183","0.0-74.0","38SKSKU7R2JZIINDRYF7TGHTH68ILH","APGX2WZ59OWDN","3WUVMVA7OBP2V5NP3991VE8MBDEZA7","","<img src=""img/set1/S3.jpg"" width=""540"" height = ""360"" style=""border:16px solid orange"">","null","","","","","","","","","",""
"null","","html-keyboard-response","75","87384","0.0-75.0","38SKSKU7R2JZIINDRYF7TGHTH68ILH","APGX2WZ59OWDN","3WUVMVA7OBP2V5NP3991VE8MBDEZA7","","","null","","","","","","","","","",""
"638.1000000014901","","image-keyboard-response","76","88023","0.0-76.0","38SKSKU7R2JZIINDRYF7TGHTH68ILH","APGX2WZ59OWDN","3WUVMVA7OBP2V5NP3991VE8MBDEZA7","","img/set1/S1.jpg","83","1","random","83","random,structured_load,structured_incentive,structured_normal","2,3,4,2,1,2","1,2,3,4","true","","",""
"null","","html-keyboard-response","77","88374","0.0-77.0","38SKSKU7R2JZIINDRYF7TGHTH68ILH","APGX2WZ59OWDN","3WUVMVA7OBP2V5NP3991VE8MBDEZA7","","<img src=""img/set1/S1.jpg"" width=""540"" height = ""360"" style=""border:16px solid orange"">","null","","","","","","","","","",""
"null","","html-keyboard-response","78","88575","0.0-78.0","38SKSKU7R2JZIINDRYF7TGHTH68ILH","APGX2WZ59OWDN","3WUVMVA7OBP2V5NP3991VE8MBDEZA7","","","null","","","","","","","","","",""
"494.90000000037253","","image-keyboard-response","79","89071","0.0-79.0","38SKSKU7R2JZIINDRYF7TGHTH68ILH","APGX2WZ59OWDN","3WUVMVA7OBP2V5NP3991VE8MBDEZA7","","img/set1/S2.jpg","68","2","random","68","random,structured_load,structured_incentive,structured_normal","2,3,4,2,1,2","1,2,3,4","true","","",""
"null","","html-keyboard-response","80","89422","0.0-80.0","38SKSKU7R2JZIINDRYF7TGHTH68ILH","APGX2WZ59OWDN","3WUVMVA7OBP2V5NP3991VE8MBDEZA7","","<img src=""img/set1/S2.jpg"" width=""540"" height = ""360"" style=""border:16px solid orange"">","null","","","","","","","","","",""
"null","","html-keyboard-response","81","89623","0.0-81.0","38SKSKU7R2JZIINDRYF7TGHTH68ILH","APGX2WZ59OWDN","3WUVMVA7OBP2V5NP3991VE8MBDEZA7","","","null","","","","","","","","","",""
"495.19999999925494","","image-keyboard-response","82","90119","0.0-82.0","38SKSKU7R2JZIINDRYF7TGHTH68ILH","APGX2WZ59OWDN","3WUVMVA7OBP2V5NP3991VE8MBDEZA7","","img/set1/S2.jpg","68","2","random","68","random,structured_load,structured_incentive,structured_normal","2,3,4,2,1,2","1,2,3,4","true","","",""
"null","","html-keyboard-response","83","90470","0.0-83.0","38SKSKU7R2JZIINDRYF7TGHTH68ILH","APGX2WZ59OWDN","3WUVMVA7OBP2V5NP3991VE8MBDEZA7","","<img src=""img/set1/S2.jpg"" width=""540"" height = ""360"" style=""border:16px solid orange"">","null","","","","","","","","","",""
"null","","html-keyboard-response","84","90671","0.0-84.0","38SKSKU7R2JZIINDRYF7TGHTH68ILH","APGX2WZ59OWDN","3WUVMVA7OBP2V5NP3991VE8MBDEZA7","","","null","","","","","","","","","",""
"807.5","","image-keyboard-response","85","91479","0.0-85.0","38SKSKU7R2JZIINDRYF7TGHTH68ILH","APGX2WZ59OWDN","3WUVMVA7OBP2V5NP3991VE8MBDEZA7","","img/set1/S2.jpg","68","2","random","68","random,structured_load,structured_incentive,structured_normal","2,3,4,2,1,2","1,2,3,4","true","","",""
"null","","html-keyboard-response","86","91831","0.0-86.0","38SKSKU7R2JZIINDRYF7TGHTH68ILH","APGX2WZ59OWDN","3WUVMVA7OBP2V5NP3991VE8MBDEZA7","","<img src=""img/set1/S2.jpg"" width=""540"" height = ""360"" style=""border:16px solid orange"">","null","","","","","","","","","",""
"null","","html-keyboard-response","87","92033","0.0-87.0","38SKSKU7R2JZIINDRYF7TGHTH68ILH","APGX2WZ59OWDN","3WUVMVA7OBP2V5NP3991VE8MBDEZA7","","","null","","","","","","","","","",""
"589.0999999996275","","image-keyboard-response","88","92623","0.0-88.0","38SKSKU7R2JZIINDRYF7TGHTH68ILH","APGX2WZ59OWDN","3WUVMVA7OBP2V5NP3991VE8MBDEZA7","","img/set1/S3.jpg","72","3","random","72","random,structured_load,structured_incentive,structured_normal","2,3,4,2,1,2","1,2,3,4","true","","",""
"null","","html-keyboard-response","89","92975","0.0-89.0","38SKSKU7R2JZIINDRYF7TGHTH68ILH","APGX2WZ59OWDN","3WUVMVA7OBP2V5NP3991VE8MBDEZA7","","<img src=""img/set1/S3.jpg"" width=""540"" height = ""360"" style=""border:16px solid orange"">","null","","","","","","","","","",""
"null","","html-keyboard-response","90","93177","0.0-90.0","38SKSKU7R2JZIINDRYF7TGHTH68ILH","APGX2WZ59OWDN","3WUVMVA7OBP2V5NP3991VE8MBDEZA7","","","null","","","","","","","","","",""
"653.5","","image-keyboard-response","91","93831","0.0-91.0","38SKSKU7R2JZIINDRYF7TGHTH68ILH","APGX2WZ59OWDN","3WUVMVA7OBP2V5NP3991VE8MBDEZA7","","img/set1/S1.jpg","83","1","random","83","random,structured_load,structured_incentive,structured_normal","2,3,4,2,1,2","1,2,3,4","true","","",""
"null","","html-keyboard-response","92","94183","0.0-92.0","38SKSKU7R2JZIINDRYF7TGHTH68ILH","APGX2WZ59OWDN","3WUVMVA7OBP2V5NP3991VE8MBDEZA7","","<img src=""img/set1/S1.jpg"" width=""540"" height = ""360"" style=""border:16px solid orange"">","null","","","","","","","","","",""
"null","","html-keyboard-response","93","94385","0.0-93.0","38SKSKU7R2JZIINDRYF7TGHTH68ILH","APGX2WZ59OWDN","3WUVMVA7OBP2V5NP3991VE8MBDEZA7","","","null","","","","","","","","","",""
"741.4000000003725","","image-keyboard-response","94","95127","0.0-94.0","38SKSKU7R2JZIINDRYF7TGHTH68ILH","APGX2WZ59OWDN","3WUVMVA7OBP2V5NP3991VE8MBDEZA7","","img/set1/S4.jpg","74","4","random","74","random,structured_load,structured_incentive,structured_normal","2,3,4,2,1,2","1,2,3,4","true","","",""
"null","","html-keyboard-response","95","95479","0.0-95.0","38SKSKU7R2JZIINDRYF7TGHTH68ILH","APGX2WZ59OWDN","3WUVMVA7OBP2V5NP3991VE8MBDEZA7","","<img src=""img/set1/S4.jpg"" width=""540"" height = ""360"" style=""border:16px solid orange"">","null","","","","","","","","","",""
"null","","html-keyboard-response","96","95680","0.0-96.0","38SKSKU7R2JZIINDRYF7TGHTH68ILH","APGX2WZ59OWDN","3WUVMVA7OBP2V5NP3991VE8MBDEZA7","","","null","","","","","","","","","",""
"942.7999999988824","","image-keyboard-response","97","96624","0.0-97.0","38SKSKU7R2JZIINDRYF7TGHTH68ILH","APGX2WZ59OWDN","3WUVMVA7OBP2V5NP3991VE8MBDEZA7","","img/set1/S3.jpg","72","3","random","72","random,structured_load,structured_incentive,structured_normal","2,3,4,2,1,2","1,2,3,4","true","","",""
"null","","html-keyboard-response","98","96975","0.0-98.0","38SKSKU7R2JZIINDRYF7TGHTH68ILH","APGX2WZ59OWDN","3WUVMVA7OBP2V5NP3991VE8MBDEZA7","","<img src=""img/set1/S3.jpg"" width=""540"" height = ""360"" style=""border:16px solid orange"">","null","","","","","","","","","",""
"null","","html-keyboard-response","99","97176","0.0-99.0","38SKSKU7R2JZIINDRYF7TGHTH68ILH","APGX2WZ59OWDN","3WUVMVA7OBP2V5NP3991VE8MBDEZA7","","","null","","","","","","","","","",""
"454.90000000037253","","image-keyboard-response","100","97632","0.0-100.0","38SKSKU7R2JZIINDRYF7TGHTH68ILH","APGX2WZ59OWDN","3WUVMVA7OBP2V5NP3991VE8MBDEZA7","","img/set1/S3.jpg","72","3","random","72","random,structured_load,structured_incentive,structured_normal","2,3,4,2,1,2","1,2,3,4","true","","",""
"null","","html-keyboard-response","101","97983","0.0-101.0","38SKSKU7R2JZIINDRYF7TGHTH68ILH","APGX2WZ59OWDN","3WUVMVA7OBP2V5NP3991VE8MBDEZA7","","<img src=""img/set1/S3.jpg"" width=""540"" height = ""360"" style=""border:16px solid orange"">","null","","","","","","","","","",""
"null","","html-keyboard-response","102","98184","0.0-102.0","38SKSKU7R2JZIINDRYF7TGHTH68ILH","APGX2WZ59OWDN","3WUVMVA7OBP2V5NP3991VE8MBDEZA7","","","null","","","","","","","","","",""
"599.0999999996275","","image-keyboard-response","103","98784","0.0-103.0","38SKSKU7R2JZIINDRYF7TGHTH68ILH","APGX2WZ59OWDN","3WUVMVA7OBP2V5NP3991VE8MBDEZA7","","img/set1/S3.jpg","72","3","random","72","random,structured_load,structured_incentive,structured_normal","2,3,4,2,1,2","1,2,3,4","true","","",""
"null","","html-keyboard-response","104","99136","0.0-104.0","38SKSKU7R2JZIINDRYF7TGHTH68ILH","APGX2WZ59OWDN","3WUVMVA7OBP2V5NP3991VE8MBDEZA7","","<img src=""img/set1/S3.jpg"" width=""540"" height = ""360"" style=""border:16px solid orange"">","null","","","","","","","","","",""
"null","","html-keyboard-response","105","99337","0.0-105.0","38SKSKU7R2JZIINDRYF7TGHTH68ILH","APGX2WZ59OWDN","3WUVMVA7OBP2V5NP3991VE8MBDEZA7","","","null","","","","","","","","","",""
"606.2999999988824","","image-keyboard-response","106","99944","0.0-106.0","38SKSKU7R2JZIINDRYF7TGHTH68ILH","APGX2WZ59OWDN","3WUVMVA7OBP2V5NP3991VE8MBDEZA7","","img/set1/S4.jpg","74","4","random","74","random,structured_load,structured_incentive,structured_normal","2,3,4,2,1,2","1,2,3,4","true","","",""
"null","","html-keyboard-response","107","100296","0.0-107.0","38SKSKU7R2JZIINDRYF7TGHTH68ILH","APGX2WZ59OWDN","3WUVMVA7OBP2V5NP3991VE8MBDEZA7","","<img src=""img/set1/S4.jpg"" width=""540"" height = ""360"" style=""border:16px solid orange"">","null","","","","","","","","","",""
"null","","html-keyboard-response","108","100497","0.0-108.0","38SKSKU7R2JZIINDRYF7TGHTH68ILH","APGX2WZ59OWDN","3WUVMVA7OBP2V5NP3991VE8MBDEZA7","","","null","","","","","","","","","",""
"838.7000000011176","","image-keyboard-response","109","101336","0.0-109.0","38SKSKU7R2JZIINDRYF7TGHTH68ILH","APGX2WZ59OWDN","3WUVMVA7OBP2V5NP3991VE8MBDEZA7","","img/set1/S3.jpg","72","3","random","72","random,structured_load,structured_incentive,structured_normal","2,3,4,2,1,2","1,2,3,4","true","","",""
"null","","html-keyboard-response","110","101689","0.0-110.0","38SKSKU7R2JZIINDRYF7TGHTH68ILH","APGX2WZ59OWDN","3WUVMVA7OBP2V5NP3991VE8MBDEZA7","","<img src=""img/set1/S3.jpg"" width=""540"" height = ""360"" style=""border:16px solid orange"">","null","","","","","","","","","",""
"null","","html-keyboard-response","111","101890","0.0-111.0","38SKSKU7R2JZIINDRYF7TGHTH68ILH","APGX2WZ59OWDN","3WUVMVA7OBP2V5NP3991VE8MBDEZA7","","","null","","","","","","","","","",""
"622.3000000007451","","image-keyboard-response","112","102513","0.0-112.0","38SKSKU7R2JZIINDRYF7TGHTH68ILH","APGX2WZ59OWDN","3WUVMVA7OBP2V5NP3991VE8MBDEZA7","","img/set1/S1.jpg","83","1","random","83","random,structured_load,structured_incentive,structured_normal","2,3,4,2,1,2","1,2,3,4","true","","",""
"null","","html-keyboard-response","113","102865","0.0-113.0","38SKSKU7R2JZIINDRYF7TGHTH68ILH","APGX2WZ59OWDN","3WUVMVA7OBP2V5NP3991VE8MBDEZA7","","<img src=""img/set1/S1.jpg"" width=""540"" height = ""360"" style=""border:16px solid orange"">","null","","","","","","","","","",""
"null","","html-keyboard-response","114","103067","0.0-114.0","38SKSKU7R2JZIINDRYF7TGHTH68ILH","APGX2WZ59OWDN","3WUVMVA7OBP2V5NP3991VE8MBDEZA7","","","null","","","","","","","","","",""
"653.2999999988824","","image-keyboard-response","115","103721","0.0-115.0","38SKSKU7R2JZIINDRYF7TGHTH68ILH","APGX2WZ59OWDN","3WUVMVA7OBP2V5NP3991VE8MBDEZA7","","img/set1/S3.jpg","72","3","random","72","random,structured_load,structured_incentive,structured_normal","2,3,4,2,1,2","1,2,3,4","true","","",""
"null","","html-keyboard-response","116","104072","0.0-116.0","38SKSKU7R2JZIINDRYF7TGHTH68ILH","APGX2WZ59OWDN","3WUVMVA7OBP2V5NP3991VE8MBDEZA7","","<img src=""img/set1/S3.jpg"" width=""540"" height = ""360"" style=""border:16px solid orange"">","null","","","","","","","","","",""
"null","","html-keyboard-response","117","104274","0.0-117.0","38SKSKU7R2JZIINDRYF7TGHTH68ILH","APGX2WZ59OWDN","3WUVMVA7OBP2V5NP3991VE8MBDEZA7","","","null","","","","","","","","","",""
"710.3999999985099","","image-keyboard-response","118","104985","0.0-118.0","38SKSKU7R2JZIINDRYF7TGHTH68ILH","APGX2WZ59OWDN","3WUVMVA7OBP2V5NP3991VE8MBDEZA7","","img/set1/S1.jpg","83","1","random","83","random,structured_load,structured_incentive,structured_normal","2,3,4,2,1,2","1,2,3,4","true","","",""
"null","","html-keyboard-response","119","105336","0.0-119.0","38SKSKU7R2JZIINDRYF7TGHTH68ILH","APGX2WZ59OWDN","3WUVMVA7OBP2V5NP3991VE8MBDEZA7","","<img src=""img/set1/S1.jpg"" width=""540"" height = ""360"" style=""border:16px solid orange"">","null","","","","","","","","","",""
"null","","html-keyboard-response","120","105537","0.0-120.0","38SKSKU7R2JZIINDRYF7TGHTH68ILH","APGX2WZ59OWDN","3WUVMVA7OBP2V5NP3991VE8MBDEZA7","","","null","","","","","","","","","",""
"455.40000000037253","","image-keyboard-response","121","105993","0.0-121.0","38SKSKU7R2JZIINDRYF7TGHTH68ILH","APGX2WZ59OWDN","3WUVMVA7OBP2V5NP3991VE8MBDEZA7","","img/set1/S1.jpg","83","1","random","83","random,structured_load,structured_incentive,structured_normal","2,3,4,2,1,2","1,2,3,4","true","","",""
"null","","html-keyboard-response","122","106344","0.0-122.0","38SKSKU7R2JZIINDRYF7TGHTH68ILH","APGX2WZ59OWDN","3WUVMVA7OBP2V5NP3991VE8MBDEZA7","","<img src=""img/set1/S1.jpg"" width=""540"" height = ""360"" style=""border:16px solid orange"">","null","","","","","","","","","",""
"null","","html-keyboard-response","123","106546","0.0-123.0","38SKSKU7R2JZIINDRYF7TGHTH68ILH","APGX2WZ59OWDN","3WUVMVA7OBP2V5NP3991VE8MBDEZA7","","","null","","","","","","","","","",""
"494.59999999962747","","image-keyboard-response","124","107041","0.0-124.0","38SKSKU7R2JZIINDRYF7TGHTH68ILH","APGX2WZ59OWDN","3WUVMVA7OBP2V5NP3991VE8MBDEZA7","","img/set1/S1.jpg","83","1","random","83","random,structured_load,structured_incentive,structured_normal","2,3,4,2,1,2","1,2,3,4","true","","",""
"null","","html-keyboard-response","125","107392","0.0-125.0","38SKSKU7R2JZIINDRYF7TGHTH68ILH","APGX2WZ59OWDN","3WUVMVA7OBP2V5NP3991VE8MBDEZA7","","<img src=""img/set1/S1.jpg"" width=""540"" height = ""360"" style=""border:16px solid orange"">","null","","","","","","","","","",""
"null","","html-keyboard-response","126","107594","0.0-126.0","38SKSKU7R2JZIINDRYF7TGHTH68ILH","APGX2WZ59OWDN","3WUVMVA7OBP2V5NP3991VE8MBDEZA7","","","null","","","","","","","","","",""
"439","","image-keyboard-response","127","108033","0.0-127.0","38SKSKU7R2JZIINDRYF7TGHTH68ILH","APGX2WZ59OWDN","3WUVMVA7OBP2V5NP3991VE8MBDEZA7","","img/set1/S1.jpg","83","1","random","83","random,structured_load,structured_incentive,structured_normal","2,3,4,2,1,2","1,2,3,4","true","","",""
"null","","html-keyboard-response","128","108384","0.0-128.0","38SKSKU7R2JZIINDRYF7TGHTH68ILH","APGX2WZ59OWDN","3WUVMVA7OBP2V5NP3991VE8MBDEZA7","","<img src=""img/set1/S1.jpg"" width=""540"" height = ""360"" style=""border:16px solid orange"">","null","","","","","","","","","",""
"null","","html-keyboard-response","129","108585","0.0-129.0","38SKSKU7R2JZIINDRYF7TGHTH68ILH","APGX2WZ59OWDN","3WUVMVA7OBP2V5NP3991VE8MBDEZA7","","","null","","","","","","","","","",""
"927.2000000011176","","image-keyboard-response","130","109513","0.0-130.0","38SKSKU7R2JZIINDRYF7TGHTH68ILH","APGX2WZ59OWDN","3WUVMVA7OBP2V5NP3991VE8MBDEZA7","","img/set1/S4.jpg","74","4","random","74","random,structured_load,structured_incentive,structured_normal","2,3,4,2,1,2","1,2,3,4","true","","",""
"null","","html-keyboard-response","131","109866","0.0-131.0","38SKSKU7R2JZIINDRYF7TGHTH68ILH","APGX2WZ59OWDN","3WUVMVA7OBP2V5NP3991VE8MBDEZA7","","<img src=""img/set1/S4.jpg"" width=""540"" height = ""360"" style=""border:16px solid orange"">","null","","","","","","","","","",""
"null","","html-keyboard-response","132","110067","0.0-132.0","38SKSKU7R2JZIINDRYF7TGHTH68ILH","APGX2WZ59OWDN","3WUVMVA7OBP2V5NP3991VE8MBDEZA7","","","null","","","","","","","","","",""
"901.5","","image-keyboard-response","133","110969","0.0-133.0","38SKSKU7R2JZIINDRYF7TGHTH68ILH","APGX2WZ59OWDN","3WUVMVA7OBP2V5NP3991VE8MBDEZA7","","img/set1/S2.jpg","68","2","random","68","random,structured_load,structured_incentive,structured_normal","2,3,4,2,1,2","1,2,3,4","true","","",""
"null","","html-keyboard-response","134","111321","0.0-134.0","38SKSKU7R2JZIINDRYF7TGHTH68ILH","APGX2WZ59OWDN","3WUVMVA7OBP2V5NP3991VE8MBDEZA7","","<img src=""img/set1/S2.jpg"" width=""540"" height = ""360"" style=""border:16px solid orange"">","null","","","","","","","","","",""
"null","","html-keyboard-response","135","111522","0.0-135.0","38SKSKU7R2JZIINDRYF7TGHTH68ILH","APGX2WZ59OWDN","3WUVMVA7OBP2V5NP3991VE8MBDEZA7","","","null","","","","","","","","","",""
"1590.5","","image-keyboard-response","136","113114","0.0-136.0","38SKSKU7R2JZIINDRYF7TGHTH68ILH","APGX2WZ59OWDN","3WUVMVA7OBP2V5NP3991VE8MBDEZA7","","img/set1/S4.jpg","74","4","random","74","random,structured_load,structured_incentive,structured_normal","2,3,4,2,1,2","1,2,3,4","true","","",""
"null","","html-keyboard-response","137","113465","0.0-137.0","38SKSKU7R2JZIINDRYF7TGHTH68ILH","APGX2WZ59OWDN","3WUVMVA7OBP2V5NP3991VE8MBDEZA7","","<img src=""img/set1/S4.jpg"" width=""540"" height = ""360"" style=""border:16px solid orange"">","null","","","","","","","","","",""
"null","","html-keyboard-response","138","113666","0.0-138.0","38SKSKU7R2JZIINDRYF7TGHTH68ILH","APGX2WZ59OWDN","3WUVMVA7OBP2V5NP3991VE8MBDEZA7","","","null","","","","","","","","","",""
"887","","image-keyboard-response","139","114554","0.0-139.0","38SKSKU7R2JZIINDRYF7TGHTH68ILH","APGX2WZ59OWDN","3WUVMVA7OBP2V5NP3991VE8MBDEZA7","","img/set1/S4.jpg","74","4","random","74","random,structured_load,structured_incentive,structured_normal","2,3,4,2,1,2","1,2,3,4","true","","",""
"null","","html-keyboard-response","140","114905","0.0-140.0","38SKSKU7R2JZIINDRYF7TGHTH68ILH","APGX2WZ59OWDN","3WUVMVA7OBP2V5NP3991VE8MBDEZA7","","<img src=""img/set1/S4.jpg"" width=""540"" height = ""360"" style=""border:16px solid orange"">","null","","","","","","","","","",""
"null","","html-keyboard-response","141","115106","0.0-141.0","38SKSKU7R2JZIINDRYF7TGHTH68ILH","APGX2WZ59OWDN","3WUVMVA7OBP2V5NP3991VE8MBDEZA7","","","null","","","","","","","","","",""
"727.2999999988824","","image-keyboard-response","142","115834","0.0-142.0","38SKSKU7R2JZIINDRYF7TGHTH68ILH","APGX2WZ59OWDN","3WUVMVA7OBP2V5NP3991VE8MBDEZA7","","img/set1/S1.jpg","83","1","random","83","random,structured_load,structured_incentive,structured_normal","2,3,4,2,1,2","1,2,3,4","true","","",""
"null","","html-keyboard-response","143","116186","0.0-143.0","38SKSKU7R2JZIINDRYF7TGHTH68ILH","APGX2WZ59OWDN","3WUVMVA7OBP2V5NP3991VE8MBDEZA7","","<img src=""img/set1/S1.jpg"" width=""540"" height = ""360"" style=""border:16px solid orange"">","null","","","","","","","","","",""
"null","","html-keyboard-response","144","116387","0.0-144.0","38SKSKU7R2JZIINDRYF7TGHTH68ILH","APGX2WZ59OWDN","3WUVMVA7OBP2V5NP3991VE8MBDEZA7","","","null","","","","","","","","","",""
"1070.9000000003725","","image-keyboard-response","145","117458","0.0-145.0","38SKSKU7R2JZIINDRYF7TGHTH68ILH","APGX2WZ59OWDN","3WUVMVA7OBP2V5NP3991VE8MBDEZA7","","img/set1/S2.jpg","68","2","random","68","random,structured_load,structured_incentive,structured_normal","2,3,4,2,1,2","1,2,3,4","true","","",""
"null","","html-keyboard-response","146","117810","0.0-146.0","38SKSKU7R2JZIINDRYF7TGHTH68ILH","APGX2WZ59OWDN","3WUVMVA7OBP2V5NP3991VE8MBDEZA7","","<img src=""img/set1/S2.jpg"" width=""540"" height = ""360"" style=""border:16px solid orange"">","null","","","","","","","","","",""
"null","","html-keyboard-response","147","118011","0.0-147.0","38SKSKU7R2JZIINDRYF7TGHTH68ILH","APGX2WZ59OWDN","3WUVMVA7OBP2V5NP3991VE8MBDEZA7","","","null","","","","","","","","","",""
"694.6000000014901","","image-keyboard-response","148","118706","0.0-148.0","38SKSKU7R2JZIINDRYF7TGHTH68ILH","APGX2WZ59OWDN","3WUVMVA7OBP2V5NP3991VE8MBDEZA7","","img/set1/S4.jpg","74","4","random","74","random,structured_load,structured_incentive,structured_normal","2,3,4,2,1,2","1,2,3,4","true","","",""
"null","","html-keyboard-response","149","119058","0.0-149.0","38SKSKU7R2JZIINDRYF7TGHTH68ILH","APGX2WZ59OWDN","3WUVMVA7OBP2V5NP3991VE8MBDEZA7","","<img src=""img/set1/S4.jpg"" width=""540"" height = ""360"" style=""border:16px solid orange"">","null","","","","","","","","","",""
"null","","html-keyboard-response","150","119259","0.0-150.0","38SKSKU7R2JZIINDRYF7TGHTH68ILH","APGX2WZ59OWDN","3WUVMVA7OBP2V5NP3991VE8MBDEZA7","","","null","","","","","","","","","",""
"470.80000000074506","","image-keyboard-response","151","119730","0.0-151.0","38SKSKU7R2JZIINDRYF7TGHTH68ILH","APGX2WZ59OWDN","3WUVMVA7OBP2V5NP3991VE8MBDEZA7","","img/set1/S3.jpg","72","3","random","72","random,structured_load,structured_incentive,structured_normal","2,3,4,2,1,2","1,2,3,4","true","","",""
"null","","html-keyboard-response","152","120082","0.0-152.0","38SKSKU7R2JZIINDRYF7TGHTH68ILH","APGX2WZ59OWDN","3WUVMVA7OBP2V5NP3991VE8MBDEZA7","","<img src=""img/set1/S3.jpg"" width=""540"" height = ""360"" style=""border:16px solid orange"">","null","","","","","","","","","",""
"null","","html-keyboard-response","153","120283","0.0-153.0","38SKSKU7R2JZIINDRYF7TGHTH68ILH","APGX2WZ59OWDN","3WUVMVA7OBP2V5NP3991VE8MBDEZA7","","","null","","","","","","","","","",""
"727.1999999992549","","image-keyboard-response","154","121011","0.0-154.0","38SKSKU7R2JZIINDRYF7TGHTH68ILH","APGX2WZ59OWDN","3WUVMVA7OBP2V5NP3991VE8MBDEZA7","","img/set1/S3.jpg","72","3","random","72","random,structured_load,structured_incentive,structured_normal","2,3,4,2,1,2","1,2,3,4","true","","",""
"null","","html-keyboard-response","155","121363","0.0-155.0","38SKSKU7R2JZIINDRYF7TGHTH68ILH","APGX2WZ59OWDN","3WUVMVA7OBP2V5NP3991VE8MBDEZA7","","<img src=""img/set1/S3.jpg"" width=""540"" height = ""360"" style=""border:16px solid orange"">","null","","","","","","","","","",""
"null","","html-keyboard-response","156","121564","0.0-156.0","38SKSKU7R2JZIINDRYF7TGHTH68ILH","APGX2WZ59OWDN","3WUVMVA7OBP2V5NP3991VE8MBDEZA7","","","null","","","","","","","","","",""
"390.09999999962747","","image-keyboard-response","157","121955","0.0-157.0","38SKSKU7R2JZIINDRYF7TGHTH68ILH","APGX2WZ59OWDN","3WUVMVA7OBP2V5NP3991VE8MBDEZA7","","img/set1/S3.jpg","72","3","random","72","random,structured_load,structured_incentive,structured_normal","2,3,4,2,1,2","1,2,3,4","true","","",""
"null","","html-keyboard-response","158","122306","0.0-158.0","38SKSKU7R2JZIINDRYF7TGHTH68ILH","APGX2WZ59OWDN","3WUVMVA7OBP2V5NP3991VE8MBDEZA7","","<img src=""img/set1/S3.jpg"" width=""540"" height = ""360"" style=""border:16px solid orange"">","null","","","","","","","","","",""
"null","","html-keyboard-response","159","122507","0.0-159.0","38SKSKU7R2JZIINDRYF7TGHTH68ILH","APGX2WZ59OWDN","3WUVMVA7OBP2V5NP3991VE8MBDEZA7","","","null","","","","","","","","","",""
"574.8000000007451","","image-keyboard-response","160","123083","0.0-160.0","38SKSKU7R2JZIINDRYF7TGHTH68ILH","APGX2WZ59OWDN","3WUVMVA7OBP2V5NP3991VE8MBDEZA7","","img/set1/S1.jpg","83","1","random","83","random,structured_load,structured_incentive,structured_normal","2,3,4,2,1,2","1,2,3,4","true","","",""
"null","","html-keyboard-response","161","123434","0.0-161.0","38SKSKU7R2JZIINDRYF7TGHTH68ILH","APGX2WZ59OWDN","3WUVMVA7OBP2V5NP3991VE8MBDEZA7","","<img src=""img/set1/S1.jpg"" width=""540"" height = ""360"" style=""border:16px solid orange"">","null","","","","","","","","","",""
"null","","html-keyboard-response","162","123635","0.0-162.0","38SKSKU7R2JZIINDRYF7TGHTH68ILH","APGX2WZ59OWDN","3WUVMVA7OBP2V5NP3991VE8MBDEZA7","","","null","","","","","","","","","",""
"695","","image-keyboard-response","163","124331","0.0-163.0","38SKSKU7R2JZIINDRYF7TGHTH68ILH","APGX2WZ59OWDN","3WUVMVA7OBP2V5NP3991VE8MBDEZA7","","img/set1/S4.jpg","74","4","random","74","random,structured_load,structured_incentive,structured_normal","2,3,4,2,1,2","1,2,3,4","true","","",""
"null","","html-keyboard-response","164","124683","0.0-164.0","38SKSKU7R2JZIINDRYF7TGHTH68ILH","APGX2WZ59OWDN","3WUVMVA7OBP2V5NP3991VE8MBDEZA7","","<img src=""img/set1/S4.jpg"" width=""540"" height = ""360"" style=""border:16px solid orange"">","null","","","","","","","","","",""
"null","","html-keyboard-response","165","124884","0.0-165.0","38SKSKU7R2JZIINDRYF7TGHTH68ILH","APGX2WZ59OWDN","3WUVMVA7OBP2V5NP3991VE8MBDEZA7","","","null","","","","","","","","","",""
"430.19999999925494","","image-keyboard-response","166","125315","0.0-166.0","38SKSKU7R2JZIINDRYF7TGHTH68ILH","APGX2WZ59OWDN","3WUVMVA7OBP2V5NP3991VE8MBDEZA7","","img/set1/S4.jpg","74","4","random","74","random,structured_load,structured_incentive,structured_normal","2,3,4,2,1,2","1,2,3,4","true","","",""
"null","","html-keyboard-response","167","125668","0.0-167.0","38SKSKU7R2JZIINDRYF7TGHTH68ILH","APGX2WZ59OWDN","3WUVMVA7OBP2V5NP3991VE8MBDEZA7","","<img src=""img/set1/S4.jpg"" width=""540"" height = ""360"" style=""border:16px solid orange"">","null","","","","","","","","","",""
"null","","html-keyboard-response","168","125869","0.0-168.0","38SKSKU7R2JZIINDRYF7TGHTH68ILH","APGX2WZ59OWDN","3WUVMVA7OBP2V5NP3991VE8MBDEZA7","","","null","","","","","","","","","",""
"757.9000000003725","","image-keyboard-response","169","126627","0.0-169.0","38SKSKU7R2JZIINDRYF7TGHTH68ILH","APGX2WZ59OWDN","3WUVMVA7OBP2V5NP3991VE8MBDEZA7","","img/set1/S2.jpg","68","2","random","68","random,structured_load,structured_incentive,structured_normal","2,3,4,2,1,2","1,2,3,4","true","","",""
"null","","html-keyboard-response","170","126979","0.0-170.0","38SKSKU7R2JZIINDRYF7TGHTH68ILH","APGX2WZ59OWDN","3WUVMVA7OBP2V5NP3991VE8MBDEZA7","","<img src=""img/set1/S2.jpg"" width=""540"" height = ""360"" style=""border:16px solid orange"">","null","","","","","","","","","",""
"null","","html-keyboard-response","171","127180","0.0-171.0","38SKSKU7R2JZIINDRYF7TGHTH68ILH","APGX2WZ59OWDN","3WUVMVA7OBP2V5NP3991VE8MBDEZA7","","","null","","","","","","","","","",""
"574.8000000007451","","image-keyboard-response","172","127755","0.0-172.0","38SKSKU7R2JZIINDRYF7TGHTH68ILH","APGX2WZ59OWDN","3WUVMVA7OBP2V5NP3991VE8MBDEZA7","","img/set1/S1.jpg","83","1","random","83","random,structured_load,structured_incentive,structured_normal","2,3,4,2,1,2","1,2,3,4","true","","",""
"null","","html-keyboard-response","173","128108","0.0-173.0","38SKSKU7R2JZIINDRYF7TGHTH68ILH","APGX2WZ59OWDN","3WUVMVA7OBP2V5NP3991VE8MBDEZA7","","<img src=""img/set1/S1.jpg"" width=""540"" height = ""360"" style=""border:16px solid orange"">","null","","","","","","","","","",""
"null","","html-keyboard-response","174","128310","0.0-174.0","38SKSKU7R2JZIINDRYF7TGHTH68ILH","APGX2WZ59OWDN","3WUVMVA7OBP2V5NP3991VE8MBDEZA7","","","null","","","","","","","","","",""
"605.3999999985099","","image-keyboard-response","175","128915","0.0-175.0","38SKSKU7R2JZIINDRYF7TGHTH68ILH","APGX2WZ59OWDN","3WUVMVA7OBP2V5NP3991VE8MBDEZA7","","img/set1/S2.jpg","68","2","random","68","random,structured_load,structured_incentive,structured_normal","2,3,4,2,1,2","1,2,3,4","true","","",""
"null","","html-keyboard-response","176","129267","0.0-176.0","38SKSKU7R2JZIINDRYF7TGHTH68ILH","APGX2WZ59OWDN","3WUVMVA7OBP2V5NP3991VE8MBDEZA7","","<img src=""img/set1/S2.jpg"" width=""540"" height = ""360"" style=""border:16px solid orange"">","null","","","","","","","","","",""
"null","","html-keyboard-response","177","129468","0.0-177.0","38SKSKU7R2JZIINDRYF7TGHTH68ILH","APGX2WZ59OWDN","3WUVMVA7OBP2V5NP3991VE8MBDEZA7","","","null","","","","","","","","","",""
"694.5","","image-keyboard-response","178","130164","0.0-178.0","38SKSKU7R2JZIINDRYF7TGHTH68ILH","APGX2WZ59OWDN","3WUVMVA7OBP2V5NP3991VE8MBDEZA7","","img/set1/S4.jpg","74","4","random","74","random,structured_load,structured_incentive,structured_normal","2,3,4,2,1,2","1,2,3,4","true","","",""
"null","","html-keyboard-response","179","130516","0.0-179.0","38SKSKU7R2JZIINDRYF7TGHTH68ILH","APGX2WZ59OWDN","3WUVMVA7OBP2V5NP3991VE8MBDEZA7","","<img src=""img/set1/S4.jpg"" width=""540"" height = ""360"" style=""border:16px solid orange"">","null","","","","","","","","","",""
"null","","html-keyboard-response","180","130717","0.0-180.0","38SKSKU7R2JZIINDRYF7TGHTH68ILH","APGX2WZ59OWDN","3WUVMVA7OBP2V5NP3991VE8MBDEZA7","","","null","","","","","","","","","",""
"598.0999999996275","","image-keyboard-response","181","131316","0.0-181.0","38SKSKU7R2JZIINDRYF7TGHTH68ILH","APGX2WZ59OWDN","3WUVMVA7OBP2V5NP3991VE8MBDEZA7","","img/set1/S3.jpg","72","3","random","72","random,structured_load,structured_incentive,structured_normal","2,3,4,2,1,2","1,2,3,4","true","","",""
"null","","html-keyboard-response","182","131668","0.0-182.0","38SKSKU7R2JZIINDRYF7TGHTH68ILH","APGX2WZ59OWDN","3WUVMVA7OBP2V5NP3991VE8MBDEZA7","","<img src=""img/set1/S3.jpg"" width=""540"" height = ""360"" style=""border:16px solid orange"">","null","","","","","","","","","",""
"null","","html-keyboard-response","183","131869","0.0-183.0","38SKSKU7R2JZIINDRYF7TGHTH68ILH","APGX2WZ59OWDN","3WUVMVA7OBP2V5NP3991VE8MBDEZA7","","","null","","","","","","","","","",""
"1206.5999999996275","","image-keyboard-response","184","133076","0.0-184.0","38SKSKU7R2JZIINDRYF7TGHTH68ILH","APGX2WZ59OWDN","3WUVMVA7OBP2V5NP3991VE8MBDEZA7","","img/set1/S1.jpg","83","1","random","83","random,structured_load,structured_incentive,structured_normal","2,3,4,2,1,2","1,2,3,4","true","","",""
"null","","html-keyboard-response","185","133427","0.0-185.0","38SKSKU7R2JZIINDRYF7TGHTH68ILH","APGX2WZ59OWDN","3WUVMVA7OBP2V5NP3991VE8MBDEZA7","","<img src=""img/set1/S1.jpg"" width=""540"" height = ""360"" style=""border:16px solid orange"">","null","","","","","","","","","",""
"null","","html-keyboard-response","186","133628","0.0-186.0","38SKSKU7R2JZIINDRYF7TGHTH68ILH","APGX2WZ59OWDN","3WUVMVA7OBP2V5NP3991VE8MBDEZA7","","","null","","","","","","","","","",""
"615.5","","image-keyboard-response","187","134244","0.0-187.0","38SKSKU7R2JZIINDRYF7TGHTH68ILH","APGX2WZ59OWDN","3WUVMVA7OBP2V5NP3991VE8MBDEZA7","","img/set1/S3.jpg","72","3","random","72","random,structured_load,structured_incentive,structured_normal","2,3,4,2,1,2","1,2,3,4","true","","",""
"null","","html-keyboard-response","188","134596","0.0-188.0","38SKSKU7R2JZIINDRYF7TGHTH68ILH","APGX2WZ59OWDN","3WUVMVA7OBP2V5NP3991VE8MBDEZA7","","<img src=""img/set1/S3.jpg"" width=""540"" height = ""360"" style=""border:16px solid orange"">","null","","","","","","","","","",""
"null","","html-keyboard-response","189","134797","0.0-189.0","38SKSKU7R2JZIINDRYF7TGHTH68ILH","APGX2WZ59OWDN","3WUVMVA7OBP2V5NP3991VE8MBDEZA7","","","null","","","","","","","","","",""
"1190.7999999988824","","image-keyboard-response","190","135988","0.0-190.0","38SKSKU7R2JZIINDRYF7TGHTH68ILH","APGX2WZ59OWDN","3WUVMVA7OBP2V5NP3991VE8MBDEZA7","","img/set1/S1.jpg","83","1","random","83","random,structured_load,structured_incentive,structured_normal","2,3,4,2,1,2","1,2,3,4","true","","",""
"null","","html-keyboard-response","191","136340","0.0-191.0","38SKSKU7R2JZIINDRYF7TGHTH68ILH","APGX2WZ59OWDN","3WUVMVA7OBP2V5NP3991VE8MBDEZA7","","<img src=""img/set1/S1.jpg"" width=""540"" height = ""360"" style=""border:16px solid orange"">","null","","","","","","","","","",""
"null","","html-keyboard-response","192","136541","0.0-192.0","38SKSKU7R2JZIINDRYF7TGHTH68ILH","APGX2WZ59OWDN","3WUVMVA7OBP2V5NP3991VE8MBDEZA7","","","null","","","","","","","","","",""
"535","","image-keyboard-response","193","137076","0.0-193.0","38SKSKU7R2JZIINDRYF7TGHTH68ILH","APGX2WZ59OWDN","3WUVMVA7OBP2V5NP3991VE8MBDEZA7","","img/set1/S1.jpg","83","1","random","83","random,structured_load,structured_incentive,structured_normal","2,3,4,2,1,2","1,2,3,4","true","","",""
"null","","html-keyboard-response","194","137428","0.0-194.0","38SKSKU7R2JZIINDRYF7TGHTH68ILH","APGX2WZ59OWDN","3WUVMVA7OBP2V5NP3991VE8MBDEZA7","","<img src=""img/set1/S1.jpg"" width=""540"" height = ""360"" style=""border:16px solid orange"">","null","","","","","","","","","",""
"null","","html-keyboard-response","195","137629","0.0-195.0","38SKSKU7R2JZIINDRYF7TGHTH68ILH","APGX2WZ59OWDN","3WUVMVA7OBP2V5NP3991VE8MBDEZA7","","","null","","","","","","","","","",""
"934.5","","image-keyboard-response","196","138565","0.0-196.0","38SKSKU7R2JZIINDRYF7TGHTH68ILH","APGX2WZ59OWDN","3WUVMVA7OBP2V5NP3991VE8MBDEZA7","","img/set1/S3.jpg","72","3","random","72","random,structured_load,structured_incentive,structured_normal","2,3,4,2,1,2","1,2,3,4","true","","",""
"null","","html-keyboard-response","197","138916","0.0-197.0","38SKSKU7R2JZIINDRYF7TGHTH68ILH","APGX2WZ59OWDN","3WUVMVA7OBP2V5NP3991VE8MBDEZA7","","<img src=""img/set1/S3.jpg"" width=""540"" height = ""360"" style=""border:16px solid orange"">","null","","","","","","","","","",""
"null","","html-keyboard-response","198","139117","0.0-198.0","38SKSKU7R2JZIINDRYF7TGHTH68ILH","APGX2WZ59OWDN","3WUVMVA7OBP2V5NP3991VE8MBDEZA7","","","null","","","","","","","","","",""
"655.4000000003725","","image-keyboard-response","199","139773","0.0-199.0","38SKSKU7R2JZIINDRYF7TGHTH68ILH","APGX2WZ59OWDN","3WUVMVA7OBP2V5NP3991VE8MBDEZA7","","img/set1/S4.jpg","74","4","random","74","random,structured_load,structured_incentive,structured_normal","2,3,4,2,1,2","1,2,3,4","true","","",""
"null","","html-keyboard-response","200","140125","0.0-200.0","38SKSKU7R2JZIINDRYF7TGHTH68ILH","APGX2WZ59OWDN","3WUVMVA7OBP2V5NP3991VE8MBDEZA7","","<img src=""img/set1/S4.jpg"" width=""540"" height = ""360"" style=""border:16px solid orange"">","null","","","","","","","","","",""
"null","","html-keyboard-response","201","140326","0.0-201.0","38SKSKU7R2JZIINDRYF7TGHTH68ILH","APGX2WZ59OWDN","3WUVMVA7OBP2V5NP3991VE8MBDEZA7","","","null","","","","","","","","","",""
"750.3000000007451","","image-keyboard-response","202","141077","0.0-202.0","38SKSKU7R2JZIINDRYF7TGHTH68ILH","APGX2WZ59OWDN","3WUVMVA7OBP2V5NP3991VE8MBDEZA7","","img/set1/S1.jpg","83","1","random","83","random,structured_load,structured_incentive,structured_normal","2,3,4,2,1,2","1,2,3,4","true","","",""
"null","","html-keyboard-response","203","141429","0.0-203.0","38SKSKU7R2JZIINDRYF7TGHTH68ILH","APGX2WZ59OWDN","3WUVMVA7OBP2V5NP3991VE8MBDEZA7","","<img src=""img/set1/S1.jpg"" width=""540"" height = ""360"" style=""border:16px solid orange"">","null","","","","","","","","","",""
"null","","html-keyboard-response","204","141630","0.0-204.0","38SKSKU7R2JZIINDRYF7TGHTH68ILH","APGX2WZ59OWDN","3WUVMVA7OBP2V5NP3991VE8MBDEZA7","","","null","","","","","","","","","",""
"662.2999999988824","","image-keyboard-response","205","142293","0.0-205.0","38SKSKU7R2JZIINDRYF7TGHTH68ILH","APGX2WZ59OWDN","3WUVMVA7OBP2V5NP3991VE8MBDEZA7","","img/set1/S2.jpg","68","2","random","68","random,structured_load,structured_incentive,structured_normal","2,3,4,2,1,2","1,2,3,4","true","","",""
"null","","html-keyboard-response","206","142645","0.0-206.0","38SKSKU7R2JZIINDRYF7TGHTH68ILH","APGX2WZ59OWDN","3WUVMVA7OBP2V5NP3991VE8MBDEZA7","","<img src=""img/set1/S2.jpg"" width=""540"" height = ""360"" style=""border:16px solid orange"">","null","","","","","","","","","",""
"null","","html-keyboard-response","207","142846","0.0-207.0","38SKSKU7R2JZIINDRYF7TGHTH68ILH","APGX2WZ59OWDN","3WUVMVA7OBP2V5NP3991VE8MBDEZA7","","","null","","","","","","","","","",""
"790.5","","image-keyboard-response","208","143637","0.0-208.0","38SKSKU7R2JZIINDRYF7TGHTH68ILH","APGX2WZ59OWDN","3WUVMVA7OBP2V5NP3991VE8MBDEZA7","","img/set1/S3.jpg","72","3","random","72","random,structured_load,structured_incentive,structured_normal","2,3,4,2,1,2","1,2,3,4","true","","",""
"null","","html-keyboard-response","209","143989","0.0-209.0","38SKSKU7R2JZIINDRYF7TGHTH68ILH","APGX2WZ59OWDN","3WUVMVA7OBP2V5NP3991VE8MBDEZA7","","<img src=""img/set1/S3.jpg"" width=""540"" height = ""360"" style=""border:16px solid orange"">","null","","","","","","","","","",""
"null","","html-keyboard-response","210","144190","0.0-210.0","38SKSKU7R2JZIINDRYF7TGHTH68ILH","APGX2WZ59OWDN","3WUVMVA7OBP2V5NP3991VE8MBDEZA7","","","null","","","","","","","","","",""
"598.5","","image-keyboard-response","211","144789","0.0-211.0","38SKSKU7R2JZIINDRYF7TGHTH68ILH","APGX2WZ59OWDN","3WUVMVA7OBP2V5NP3991VE8MBDEZA7","","img/set1/S1.jpg","83","1","random","83","random,structured_load,structured_incentive,structured_normal","2,3,4,2,1,2","1,2,3,4","true","","",""
"null","","html-keyboard-response","212","145141","0.0-212.0","38SKSKU7R2JZIINDRYF7TGHTH68ILH","APGX2WZ59OWDN","3WUVMVA7OBP2V5NP3991VE8MBDEZA7","","<img src=""img/set1/S1.jpg"" width=""540"" height = ""360"" style=""border:16px solid orange"">","null","","","","","","","","","",""
"null","","html-keyboard-response","213","145342","0.0-213.0","38SKSKU7R2JZIINDRYF7TGHTH68ILH","APGX2WZ59OWDN","3WUVMVA7OBP2V5NP3991VE8MBDEZA7","","","null","","","","","","","","","",""
"502.7999999988824","","image-keyboard-response","214","145845","0.0-214.0","38SKSKU7R2JZIINDRYF7TGHTH68ILH","APGX2WZ59OWDN","3WUVMVA7OBP2V5NP3991VE8MBDEZA7","","img/set1/S4.jpg","74","4","random","74","random,structured_load,structured_incentive,structured_normal","2,3,4,2,1,2","1,2,3,4","true","","",""
"null","","html-keyboard-response","215","146197","0.0-215.0","38SKSKU7R2JZIINDRYF7TGHTH68ILH","APGX2WZ59OWDN","3WUVMVA7OBP2V5NP3991VE8MBDEZA7","","<img src=""img/set1/S4.jpg"" width=""540"" height = ""360"" style=""border:16px solid orange"">","null","","","","","","","","","",""
"null","","html-keyboard-response","216","146398","0.0-216.0","38SKSKU7R2JZIINDRYF7TGHTH68ILH","APGX2WZ59OWDN","3WUVMVA7OBP2V5NP3991VE8MBDEZA7","","","null","","","","","","","","","",""
"527.1000000014901","","image-keyboard-response","217","146926","0.0-217.0","38SKSKU7R2JZIINDRYF7TGHTH68ILH","APGX2WZ59OWDN","3WUVMVA7OBP2V5NP3991VE8MBDEZA7","","img/set1/S1.jpg","83","1","random","83","random,structured_load,structured_incentive,structured_normal","2,3,4,2,1,2","1,2,3,4","true","","",""
"null","","html-keyboard-response","218","147277","0.0-218.0","38SKSKU7R2JZIINDRYF7TGHTH68ILH","APGX2WZ59OWDN","3WUVMVA7OBP2V5NP3991VE8MBDEZA7","","<img src=""img/set1/S1.jpg"" width=""540"" height = ""360"" style=""border:16px solid orange"">","null","","","","","","","","","",""
"null","","html-keyboard-response","219","147478","0.0-219.0","38SKSKU7R2JZIINDRYF7TGHTH68ILH","APGX2WZ59OWDN","3WUVMVA7OBP2V5NP3991VE8MBDEZA7","","","null","","","","","","","","","",""
"1007.5","","image-keyboard-response","220","148486","0.0-220.0","38SKSKU7R2JZIINDRYF7TGHTH68ILH","APGX2WZ59OWDN","3WUVMVA7OBP2V5NP3991VE8MBDEZA7","","img/set1/S3.jpg","72","3","random","72","random,structured_load,structured_incentive,structured_normal","2,3,4,2,1,2","1,2,3,4","true","","",""
"null","","html-keyboard-response","221","148838","0.0-221.0","38SKSKU7R2JZIINDRYF7TGHTH68ILH","APGX2WZ59OWDN","3WUVMVA7OBP2V5NP3991VE8MBDEZA7","","<img src=""img/set1/S3.jpg"" width=""540"" height = ""360"" style=""border:16px solid orange"">","null","","","","","","","","","",""
"null","","html-keyboard-response","222","149039","0.0-222.0","38SKSKU7R2JZIINDRYF7TGHTH68ILH","APGX2WZ59OWDN","3WUVMVA7OBP2V5NP3991VE8MBDEZA7","","","null","","","","","","","","","",""
"558.3000000007451","","image-keyboard-response","223","149598","0.0-223.0","38SKSKU7R2JZIINDRYF7TGHTH68ILH","APGX2WZ59OWDN","3WUVMVA7OBP2V5NP3991VE8MBDEZA7","","img/set1/S2.jpg","68","2","random","68","random,structured_load,structured_incentive,structured_normal","2,3,4,2,1,2","1,2,3,4","true","","",""
"null","","html-keyboard-response","224","149950","0.0-224.0","38SKSKU7R2JZIINDRYF7TGHTH68ILH","APGX2WZ59OWDN","3WUVMVA7OBP2V5NP3991VE8MBDEZA7","","<img src=""img/set1/S2.jpg"" width=""540"" height = ""360"" style=""border:16px solid orange"">","null","","","","","","","","","",""
"null","","html-keyboard-response","225","150151","0.0-225.0","38SKSKU7R2JZIINDRYF7TGHTH68ILH","APGX2WZ59OWDN","3WUVMVA7OBP2V5NP3991VE8MBDEZA7","","","null","","","","","","","","","",""
"782.5","","image-keyboard-response","226","150934","0.0-226.0","38SKSKU7R2JZIINDRYF7TGHTH68ILH","APGX2WZ59OWDN","3WUVMVA7OBP2V5NP3991VE8MBDEZA7","","img/set1/S4.jpg","74","4","random","74","random,structured_load,structured_incentive,structured_normal","2,3,4,2,1,2","1,2,3,4","true","","",""
"null","","html-keyboard-response","227","151286","0.0-227.0","38SKSKU7R2JZIINDRYF7TGHTH68ILH","APGX2WZ59OWDN","3WUVMVA7OBP2V5NP3991VE8MBDEZA7","","<img src=""img/set1/S4.jpg"" width=""540"" height = ""360"" style=""border:16px solid orange"">","null","","","","","","","","","",""
"null","","html-keyboard-response","228","151487","0.0-228.0","38SKSKU7R2JZIINDRYF7TGHTH68ILH","APGX2WZ59OWDN","3WUVMVA7OBP2V5NP3991VE8MBDEZA7","","","null","","","","","","","","","",""
"574.5999999996275","","image-keyboard-response","229","152062","0.0-229.0","38SKSKU7R2JZIINDRYF7TGHTH68ILH","APGX2WZ59OWDN","3WUVMVA7OBP2V5NP3991VE8MBDEZA7","","img/set1/S4.jpg","74","4","random","74","random,structured_load,structured_incentive,structured_normal","2,3,4,2,1,2","1,2,3,4","true","","",""
"null","","html-keyboard-response","230","152414","0.0-230.0","38SKSKU7R2JZIINDRYF7TGHTH68ILH","APGX2WZ59OWDN","3WUVMVA7OBP2V5NP3991VE8MBDEZA7","","<img src=""img/set1/S4.jpg"" width=""540"" height = ""360"" style=""border:16px solid orange"">","null","","","","","","","","","",""
"null","","html-keyboard-response","231","152615","0.0-231.0","38SKSKU7R2JZIINDRYF7TGHTH68ILH","APGX2WZ59OWDN","3WUVMVA7OBP2V5NP3991VE8MBDEZA7","","","null","","","","","","","","","",""
"487","","image-keyboard-response","232","153102","0.0-232.0","38SKSKU7R2JZIINDRYF7TGHTH68ILH","APGX2WZ59OWDN","3WUVMVA7OBP2V5NP3991VE8MBDEZA7","","img/set1/S4.jpg","74","4","random","74","random,structured_load,structured_incentive,structured_normal","2,3,4,2,1,2","1,2,3,4","true","","",""
"null","","html-keyboard-response","233","153454","0.0-233.0","38SKSKU7R2JZIINDRYF7TGHTH68ILH","APGX2WZ59OWDN","3WUVMVA7OBP2V5NP3991VE8MBDEZA7","","<img src=""img/set1/S4.jpg"" width=""540"" height = ""360"" style=""border:16px solid orange"">","null","","","","","","","","","",""
"null","","html-keyboard-response","234","153655","0.0-234.0","38SKSKU7R2JZIINDRYF7TGHTH68ILH","APGX2WZ59OWDN","3WUVMVA7OBP2V5NP3991VE8MBDEZA7","","","null","","","","","","","","","",""
"726.4000000003725","","image-keyboard-response","235","154382","0.0-235.0","38SKSKU7R2JZIINDRYF7TGHTH68ILH","APGX2WZ59OWDN","3WUVMVA7OBP2V5NP3991VE8MBDEZA7","","img/set1/S2.jpg","72","2","random","68","random,structured_load,structured_incentive,structured_normal","2,3,4,2,1,2","1,2,3,4","false","","",""
"null","","html-keyboard-response","236","154734","0.0-236.0","38SKSKU7R2JZIINDRYF7TGHTH68ILH","APGX2WZ59OWDN","3WUVMVA7OBP2V5NP3991VE8MBDEZA7","","<img src=""img/set1/S2.jpg"" width=""540"" height = ""360"">","null","","","","","","","","","",""
"null","","html-keyboard-response","237","154935","0.0-237.0","38SKSKU7R2JZIINDRYF7TGHTH68ILH","APGX2WZ59OWDN","3WUVMVA7OBP2V5NP3991VE8MBDEZA7","","","null","","","","","","","","","",""
"1046.7000000011176","","image-keyboard-response","238","155983","0.0-238.0","38SKSKU7R2JZIINDRYF7TGHTH68ILH","APGX2WZ59OWDN","3WUVMVA7OBP2V5NP3991VE8MBDEZA7","","img/set1/S3.jpg","72","3","random","72","random,structured_load,structured_incentive,structured_normal","2,3,4,2,1,2","1,2,3,4","true","","",""
"null","","html-keyboard-response","239","156334","0.0-239.0","38SKSKU7R2JZIINDRYF7TGHTH68ILH","APGX2WZ59OWDN","3WUVMVA7OBP2V5NP3991VE8MBDEZA7","","<img src=""img/set1/S3.jpg"" width=""540"" height = ""360"" style=""border:16px solid orange"">","null","","","","","","","","","",""
"null","","html-keyboard-response","240","156535","0.0-240.0","38SKSKU7R2JZIINDRYF7TGHTH68ILH","APGX2WZ59OWDN","3WUVMVA7OBP2V5NP3991VE8MBDEZA7","","","null","","","","","","","","","",""
"654.8000000007451","","image-keyboard-response","241","157191","0.0-241.0","38SKSKU7R2JZIINDRYF7TGHTH68ILH","APGX2WZ59OWDN","3WUVMVA7OBP2V5NP3991VE8MBDEZA7","","img/set1/S4.jpg","74","4","random","74","random,structured_load,structured_incentive,structured_normal","2,3,4,2,1,2","1,2,3,4","true","","",""
"null","","html-keyboard-response","242","157542","0.0-242.0","38SKSKU7R2JZIINDRYF7TGHTH68ILH","APGX2WZ59OWDN","3WUVMVA7OBP2V5NP3991VE8MBDEZA7","","<img src=""img/set1/S4.jpg"" width=""540"" height = ""360"" style=""border:16px solid orange"">","null","","","","","","","","","",""
"null","","html-keyboard-response","243","157744","0.0-243.0","38SKSKU7R2JZIINDRYF7TGHTH68ILH","APGX2WZ59OWDN","3WUVMVA7OBP2V5NP3991VE8MBDEZA7","","","null","","","","","","","","","",""
"1286.8999999985099","","image-keyboard-response","244","159031","0.0-244.0","38SKSKU7R2JZIINDRYF7TGHTH68ILH","APGX2WZ59OWDN","3WUVMVA7OBP2V5NP3991VE8MBDEZA7","","img/set1/S2.jpg","68","2","random","68","random,structured_load,structured_incentive,structured_normal","2,3,4,2,1,2","1,2,3,4","true","","",""
"null","","html-keyboard-response","245","159382","0.0-245.0","38SKSKU7R2JZIINDRYF7TGHTH68ILH","APGX2WZ59OWDN","3WUVMVA7OBP2V5NP3991VE8MBDEZA7","","<img src=""img/set1/S2.jpg"" width=""540"" height = ""360"" style=""border:16px solid orange"">","null","","","","","","","","","",""
"null","","html-keyboard-response","246","159583","0.0-246.0","38SKSKU7R2JZIINDRYF7TGHTH68ILH","APGX2WZ59OWDN","3WUVMVA7OBP2V5NP3991VE8MBDEZA7","","","null","","","","","","","","","",""
"711.3000000007451","","image-keyboard-response","247","160295","0.0-247.0","38SKSKU7R2JZIINDRYF7TGHTH68ILH","APGX2WZ59OWDN","3WUVMVA7OBP2V5NP3991VE8MBDEZA7","","img/set1/S1.jpg","83","1","random","83","random,structured_load,structured_incentive,structured_normal","2,3,4,2,1,2","1,2,3,4","true","","",""
"null","","html-keyboard-response","248","160646","0.0-248.0","38SKSKU7R2JZIINDRYF7TGHTH68ILH","APGX2WZ59OWDN","3WUVMVA7OBP2V5NP3991VE8MBDEZA7","","<img src=""img/set1/S1.jpg"" width=""540"" height = ""360"" style=""border:16px solid orange"">","null","","","","","","","","","",""
"null","","html-keyboard-response","249","160848","0.0-249.0","38SKSKU7R2JZIINDRYF7TGHTH68ILH","APGX2WZ59OWDN","3WUVMVA7OBP2V5NP3991VE8MBDEZA7","","","null","","","","","","","","","",""
"630.7999999988824","","image-keyboard-response","250","161479","0.0-250.0","38SKSKU7R2JZIINDRYF7TGHTH68ILH","APGX2WZ59OWDN","3WUVMVA7OBP2V5NP3991VE8MBDEZA7","","img/set1/S2.jpg","68","2","random","68","random,structured_load,structured_incentive,structured_normal","2,3,4,2,1,2","1,2,3,4","true","","",""
"null","","html-keyboard-response","251","161831","0.0-251.0","38SKSKU7R2JZIINDRYF7TGHTH68ILH","APGX2WZ59OWDN","3WUVMVA7OBP2V5NP3991VE8MBDEZA7","","<img src=""img/set1/S2.jpg"" width=""540"" height = ""360"" style=""border:16px solid orange"">","null","","","","","","","","","",""
"null","","html-keyboard-response","252","162032","0.0-252.0","38SKSKU7R2JZIINDRYF7TGHTH68ILH","APGX2WZ59OWDN","3WUVMVA7OBP2V5NP3991VE8MBDEZA7","","","null","","","","","","","","","",""
"934.5999999996275","","image-keyboard-response","253","162967","0.0-253.0","38SKSKU7R2JZIINDRYF7TGHTH68ILH","APGX2WZ59OWDN","3WUVMVA7OBP2V5NP3991VE8MBDEZA7","","img/set1/S3.jpg","72","3","random","72","random,structured_load,structured_incentive,structured_normal","2,3,4,2,1,2","1,2,3,4","true","","",""
"null","","html-keyboard-response","254","163318","0.0-254.0","38SKSKU7R2JZIINDRYF7TGHTH68ILH","APGX2WZ59OWDN","3WUVMVA7OBP2V5NP3991VE8MBDEZA7","","<img src=""img/set1/S3.jpg"" width=""540"" height = ""360"" style=""border:16px solid orange"">","null","","","","","","","","","",""
"null","","html-keyboard-response","255","163519","0.0-255.0","38SKSKU7R2JZIINDRYF7TGHTH68ILH","APGX2WZ59OWDN","3WUVMVA7OBP2V5NP3991VE8MBDEZA7","","","null","","","","","","","","","",""
"631.6000000014901","","image-keyboard-response","256","164152","0.0-256.0","38SKSKU7R2JZIINDRYF7TGHTH68ILH","APGX2WZ59OWDN","3WUVMVA7OBP2V5NP3991VE8MBDEZA7","","img/set1/S4.jpg","74","4","random","74","random,structured_load,structured_incentive,structured_normal","2,3,4,2,1,2","1,2,3,4","true","","",""
"null","","html-keyboard-response","257","164503","0.0-257.0","38SKSKU7R2JZIINDRYF7TGHTH68ILH","APGX2WZ59OWDN","3WUVMVA7OBP2V5NP3991VE8MBDEZA7","","<img src=""img/set1/S4.jpg"" width=""540"" height = ""360"" style=""border:16px solid orange"">","null","","","","","","","","","",""
"null","","html-keyboard-response","258","164704","0.0-258.0","38SKSKU7R2JZIINDRYF7TGHTH68ILH","APGX2WZ59OWDN","3WUVMVA7OBP2V5NP3991VE8MBDEZA7","","","null","","","","","","","","","",""
"1007","","image-keyboard-response","259","165712","0.0-259.0","38SKSKU7R2JZIINDRYF7TGHTH68ILH","APGX2WZ59OWDN","3WUVMVA7OBP2V5NP3991VE8MBDEZA7","","img/set1/S1.jpg","83","1","random","83","random,structured_load,structured_incentive,structured_normal","2,3,4,2,1,2","1,2,3,4","true","","",""
"null","","html-keyboard-response","260","166063","0.0-260.0","38SKSKU7R2JZIINDRYF7TGHTH68ILH","APGX2WZ59OWDN","3WUVMVA7OBP2V5NP3991VE8MBDEZA7","","<img src=""img/set1/S1.jpg"" width=""540"" height = ""360"" style=""border:16px solid orange"">","null","","","","","","","","","",""
"null","","html-keyboard-response","261","166265","0.0-261.0","38SKSKU7R2JZIINDRYF7TGHTH68ILH","APGX2WZ59OWDN","3WUVMVA7OBP2V5NP3991VE8MBDEZA7","","","null","","","","","","","","","",""
"702.5","","image-keyboard-response","262","166968","0.0-262.0","38SKSKU7R2JZIINDRYF7TGHTH68ILH","APGX2WZ59OWDN","3WUVMVA7OBP2V5NP3991VE8MBDEZA7","","img/set1/S3.jpg","72","3","random","72","random,structured_load,structured_incentive,structured_normal","2,3,4,2,1,2","1,2,3,4","true","","",""
"null","","html-keyboard-response","263","167320","0.0-263.0","38SKSKU7R2JZIINDRYF7TGHTH68ILH","APGX2WZ59OWDN","3WUVMVA7OBP2V5NP3991VE8MBDEZA7","","<img src=""img/set1/S3.jpg"" width=""540"" height = ""360"" style=""border:16px solid orange"">","null","","","","","","","","","",""
"null","","html-keyboard-response","264","167521","0.0-264.0","38SKSKU7R2JZIINDRYF7TGHTH68ILH","APGX2WZ59OWDN","3WUVMVA7OBP2V5NP3991VE8MBDEZA7","","","null","","","","","","","","","",""
"606.3000000007451","","image-keyboard-response","265","168128","0.0-265.0","38SKSKU7R2JZIINDRYF7TGHTH68ILH","APGX2WZ59OWDN","3WUVMVA7OBP2V5NP3991VE8MBDEZA7","","img/set1/S4.jpg","74","4","random","74","random,structured_load,structured_incentive,structured_normal","2,3,4,2,1,2","1,2,3,4","true","","",""
"null","","html-keyboard-response","266","168480","0.0-266.0","38SKSKU7R2JZIINDRYF7TGHTH68ILH","APGX2WZ59OWDN","3WUVMVA7OBP2V5NP3991VE8MBDEZA7","","<img src=""img/set1/S4.jpg"" width=""540"" height = ""360"" style=""border:16px solid orange"">","null","","","","","","","","","",""
"null","","html-keyboard-response","267","168681","0.0-267.0","38SKSKU7R2JZIINDRYF7TGHTH68ILH","APGX2WZ59OWDN","3WUVMVA7OBP2V5NP3991VE8MBDEZA7","","","null","","","","","","","","","",""
"566.3000000007451","","image-keyboard-response","268","169248","0.0-268.0","38SKSKU7R2JZIINDRYF7TGHTH68ILH","APGX2WZ59OWDN","3WUVMVA7OBP2V5NP3991VE8MBDEZA7","","img/set1/S2.jpg","68","2","random","68","random,structured_load,structured_incentive,structured_normal","2,3,4,2,1,2","1,2,3,4","true","","",""
"null","","html-keyboard-response","269","169600","0.0-269.0","38SKSKU7R2JZIINDRYF7TGHTH68ILH","APGX2WZ59OWDN","3WUVMVA7OBP2V5NP3991VE8MBDEZA7","","<img src=""img/set1/S2.jpg"" width=""540"" height = ""360"" style=""border:16px solid orange"">","null","","","","","","","","","",""
"null","","html-keyboard-response","270","169801","0.0-270.0","38SKSKU7R2JZIINDRYF7TGHTH68ILH","APGX2WZ59OWDN","3WUVMVA7OBP2V5NP3991VE8MBDEZA7","","","null","","","","","","","","","",""
"958.4000000003725","","image-keyboard-response","271","170760","0.0-271.0","38SKSKU7R2JZIINDRYF7TGHTH68ILH","APGX2WZ59OWDN","3WUVMVA7OBP2V5NP3991VE8MBDEZA7","","img/set1/S3.jpg","72","3","random","72","random,structured_load,structured_incentive,structured_normal","2,3,4,2,1,2","1,2,3,4","true","","",""
"null","","html-keyboard-response","272","171111","0.0-272.0","38SKSKU7R2JZIINDRYF7TGHTH68ILH","APGX2WZ59OWDN","3WUVMVA7OBP2V5NP3991VE8MBDEZA7","","<img src=""img/set1/S3.jpg"" width=""540"" height = ""360"" style=""border:16px solid orange"">","null","","","","","","","","","",""
"null","","html-keyboard-response","273","171312","0.0-273.0","38SKSKU7R2JZIINDRYF7TGHTH68ILH","APGX2WZ59OWDN","3WUVMVA7OBP2V5NP3991VE8MBDEZA7","","","null","","","","","","","","","",""
"1023.0999999996275","","image-keyboard-response","274","172336","0.0-274.0","38SKSKU7R2JZIINDRYF7TGHTH68ILH","APGX2WZ59OWDN","3WUVMVA7OBP2V5NP3991VE8MBDEZA7","","img/set1/S1.jpg","83","1","random","83","random,structured_load,structured_incentive,structured_normal","2,3,4,2,1,2","1,2,3,4","true","","",""
"null","","html-keyboard-response","275","172687","0.0-275.0","38SKSKU7R2JZIINDRYF7TGHTH68ILH","APGX2WZ59OWDN","3WUVMVA7OBP2V5NP3991VE8MBDEZA7","","<img src=""img/set1/S1.jpg"" width=""540"" height = ""360"" style=""border:16px solid orange"">","null","","","","","","","","","",""
"null","","html-keyboard-response","276","172888","0.0-276.0","38SKSKU7R2JZIINDRYF7TGHTH68ILH","APGX2WZ59OWDN","3WUVMVA7OBP2V5NP3991VE8MBDEZA7","","","null","","","","","","","","","",""
"847.2000000011176","","image-keyboard-response","277","173736","0.0-277.0","38SKSKU7R2JZIINDRYF7TGHTH68ILH","APGX2WZ59OWDN","3WUVMVA7OBP2V5NP3991VE8MBDEZA7","","img/set1/S2.jpg","68","2","random","68","random,structured_load,structured_incentive,structured_normal","2,3,4,2,1,2","1,2,3,4","true","","",""
"null","","html-keyboard-response","278","174087","0.0-278.0","38SKSKU7R2JZIINDRYF7TGHTH68ILH","APGX2WZ59OWDN","3WUVMVA7OBP2V5NP3991VE8MBDEZA7","","<img src=""img/set1/S2.jpg"" width=""540"" height = ""360"" style=""border:16px solid orange"">","null","","","","","","","","","",""
"null","","html-keyboard-response","279","174288","0.0-279.0","38SKSKU7R2JZIINDRYF7TGHTH68ILH","APGX2WZ59OWDN","3WUVMVA7OBP2V5NP3991VE8MBDEZA7","","","null","","","","","","","","","",""
"639.4000000003725","","image-keyboard-response","280","174928","0.0-280.0","38SKSKU7R2JZIINDRYF7TGHTH68ILH","APGX2WZ59OWDN","3WUVMVA7OBP2V5NP3991VE8MBDEZA7","","img/set1/S2.jpg","68","2","random","68","random,structured_load,structured_incentive,structured_normal","2,3,4,2,1,2","1,2,3,4","true","","",""
"null","","html-keyboard-response","281","175279","0.0-281.0","38SKSKU7R2JZIINDRYF7TGHTH68ILH","APGX2WZ59OWDN","3WUVMVA7OBP2V5NP3991VE8MBDEZA7","","<img src=""img/set1/S2.jpg"" width=""540"" height = ""360"" style=""border:16px solid orange"">","null","","","","","","","","","",""
"null","","html-keyboard-response","282","175480","0.0-282.0","38SKSKU7R2JZIINDRYF7TGHTH68ILH","APGX2WZ59OWDN","3WUVMVA7OBP2V5NP3991VE8MBDEZA7","","","null","","","","","","","","","",""
"871.6999999992549","","image-keyboard-response","283","176352","0.0-283.0","38SKSKU7R2JZIINDRYF7TGHTH68ILH","APGX2WZ59OWDN","3WUVMVA7OBP2V5NP3991VE8MBDEZA7","","img/set1/S3.jpg","72","3","random","72","random,structured_load,structured_incentive,structured_normal","2,3,4,2,1,2","1,2,3,4","true","","",""
"null","","html-keyboard-response","284","176704","0.0-284.0","38SKSKU7R2JZIINDRYF7TGHTH68ILH","APGX2WZ59OWDN","3WUVMVA7OBP2V5NP3991VE8MBDEZA7","","<img src=""img/set1/S3.jpg"" width=""540"" height = ""360"" style=""border:16px solid orange"">","null","","","","","","","","","",""
"null","","html-keyboard-response","285","176906","0.0-285.0","38SKSKU7R2JZIINDRYF7TGHTH68ILH","APGX2WZ59OWDN","3WUVMVA7OBP2V5NP3991VE8MBDEZA7","","","null","","","","","","","","","",""
"693.9000000003725","","image-keyboard-response","286","177601","0.0-286.0","38SKSKU7R2JZIINDRYF7TGHTH68ILH","APGX2WZ59OWDN","3WUVMVA7OBP2V5NP3991VE8MBDEZA7","","img/set1/S2.jpg","83","2","random","68","random,structured_load,structured_incentive,structured_normal","2,3,4,2,1,2","1,2,3,4","false","","",""
"null","","html-keyboard-response","287","177952","0.0-287.0","38SKSKU7R2JZIINDRYF7TGHTH68ILH","APGX2WZ59OWDN","3WUVMVA7OBP2V5NP3991VE8MBDEZA7","","<img src=""img/set1/S2.jpg"" width=""540"" height = ""360"">","null","","","","","","","","","",""
"null","","html-keyboard-response","288","178153","0.0-288.0","38SKSKU7R2JZIINDRYF7TGHTH68ILH","APGX2WZ59OWDN","3WUVMVA7OBP2V5NP3991VE8MBDEZA7","","","null","","","","","","","","","",""
"1151.5","","image-keyboard-response","289","179305","0.0-289.0","38SKSKU7R2JZIINDRYF7TGHTH68ILH","APGX2WZ59OWDN","3WUVMVA7OBP2V5NP3991VE8MBDEZA7","","img/set1/S3.jpg","72","3","random","72","random,structured_load,structured_incentive,structured_normal","2,3,4,2,1,2","1,2,3,4","true","","",""
"null","","html-keyboard-response","290","179656","0.0-290.0","38SKSKU7R2JZIINDRYF7TGHTH68ILH","APGX2WZ59OWDN","3WUVMVA7OBP2V5NP3991VE8MBDEZA7","","<img src=""img/set1/S3.jpg"" width=""540"" height = ""360"" style=""border:16px solid orange"">","null","","","","","","","","","",""
"null","","html-keyboard-response","291","179858","0.0-291.0","38SKSKU7R2JZIINDRYF7TGHTH68ILH","APGX2WZ59OWDN","3WUVMVA7OBP2V5NP3991VE8MBDEZA7","","","null","","","","","","","","","",""
"542.2999999988824","","image-keyboard-response","292","180401","0.0-292.0","38SKSKU7R2JZIINDRYF7TGHTH68ILH","APGX2WZ59OWDN","3WUVMVA7OBP2V5NP3991VE8MBDEZA7","","img/set1/S1.jpg","83","1","random","83","random,structured_load,structured_incentive,structured_normal","2,3,4,2,1,2","1,2,3,4","true","","",""
"null","","html-keyboard-response","293","180753","0.0-293.0","38SKSKU7R2JZIINDRYF7TGHTH68ILH","APGX2WZ59OWDN","3WUVMVA7OBP2V5NP3991VE8MBDEZA7","","<img src=""img/set1/S1.jpg"" width=""540"" height = ""360"" style=""border:16px solid orange"">","null","","","","","","","","","",""
"null","","html-keyboard-response","294","180954","0.0-294.0","38SKSKU7R2JZIINDRYF7TGHTH68ILH","APGX2WZ59OWDN","3WUVMVA7OBP2V5NP3991VE8MBDEZA7","","","null","","","","","","","","","",""
"414.2999999988824","","image-keyboard-response","295","181369","0.0-295.0","38SKSKU7R2JZIINDRYF7TGHTH68ILH","APGX2WZ59OWDN","3WUVMVA7OBP2V5NP3991VE8MBDEZA7","","img/set1/S2.jpg","68","2","random","68","random,structured_load,structured_incentive,structured_normal","2,3,4,2,1,2","1,2,3,4","true","","",""
"null","","html-keyboard-response","296","181721","0.0-296.0","38SKSKU7R2JZIINDRYF7TGHTH68ILH","APGX2WZ59OWDN","3WUVMVA7OBP2V5NP3991VE8MBDEZA7","","<img src=""img/set1/S2.jpg"" width=""540"" height = ""360"" style=""border:16px solid orange"">","null","","","","","","","","","",""
"null","","html-keyboard-response","297","181922","0.0-297.0","38SKSKU7R2JZIINDRYF7TGHTH68ILH","APGX2WZ59OWDN","3WUVMVA7OBP2V5NP3991VE8MBDEZA7","","","null","","","","","","","","","",""
"486.40000000037253","","image-keyboard-response","298","182409","0.0-298.0","38SKSKU7R2JZIINDRYF7TGHTH68ILH","APGX2WZ59OWDN","3WUVMVA7OBP2V5NP3991VE8MBDEZA7","","img/set1/S2.jpg","68","2","random","68","random,structured_load,structured_incentive,structured_normal","2,3,4,2,1,2","1,2,3,4","true","","",""
"null","","html-keyboard-response","299","182761","0.0-299.0","38SKSKU7R2JZIINDRYF7TGHTH68ILH","APGX2WZ59OWDN","3WUVMVA7OBP2V5NP3991VE8MBDEZA7","","<img src=""img/set1/S2.jpg"" width=""540"" height = ""360"" style=""border:16px solid orange"">","null","","","","","","","","","",""
"null","","html-keyboard-response","300","182962","0.0-300.0","38SKSKU7R2JZIINDRYF7TGHTH68ILH","APGX2WZ59OWDN","3WUVMVA7OBP2V5NP3991VE8MBDEZA7","","","null","","","","","","","","","",""
"526.1000000014901","","image-keyboard-response","301","183489","0.0-301.0","38SKSKU7R2JZIINDRYF7TGHTH68ILH","APGX2WZ59OWDN","3WUVMVA7OBP2V5NP3991VE8MBDEZA7","","img/set1/S4.jpg","74","4","random","74","random,structured_load,structured_incentive,structured_normal","2,3,4,2,1,2","1,2,3,4","true","","",""
"null","","html-keyboard-response","302","183840","0.0-302.0","38SKSKU7R2JZIINDRYF7TGHTH68ILH","APGX2WZ59OWDN","3WUVMVA7OBP2V5NP3991VE8MBDEZA7","","<img src=""img/set1/S4.jpg"" width=""540"" height = ""360"" style=""border:16px solid orange"">","null","","","","","","","","","",""
"null","","html-keyboard-response","303","184041","0.0-303.0","38SKSKU7R2JZIINDRYF7TGHTH68ILH","APGX2WZ59OWDN","3WUVMVA7OBP2V5NP3991VE8MBDEZA7","","","null","","","","","","","","","",""
"1111.5","","image-keyboard-response","304","185153","0.0-304.0","38SKSKU7R2JZIINDRYF7TGHTH68ILH","APGX2WZ59OWDN","3WUVMVA7OBP2V5NP3991VE8MBDEZA7","","img/set1/S3.jpg","72","3","random","72","random,structured_load,structured_incentive,structured_normal","2,3,4,2,1,2","1,2,3,4","true","","",""
"null","","html-keyboard-response","305","185505","0.0-305.0","38SKSKU7R2JZIINDRYF7TGHTH68ILH","APGX2WZ59OWDN","3WUVMVA7OBP2V5NP3991VE8MBDEZA7","","<img src=""img/set1/S3.jpg"" width=""540"" height = ""360"" style=""border:16px solid orange"">","null","","","","","","","","","",""
"null","","html-keyboard-response","306","185706","0.0-306.0","38SKSKU7R2JZIINDRYF7TGHTH68ILH","APGX2WZ59OWDN","3WUVMVA7OBP2V5NP3991VE8MBDEZA7","","","null","","","","","","","","","",""
"374.2999999988824","","image-keyboard-response","307","186081","0.0-307.0","38SKSKU7R2JZIINDRYF7TGHTH68ILH","APGX2WZ59OWDN","3WUVMVA7OBP2V5NP3991VE8MBDEZA7","","img/set1/S3.jpg","72","3","random","72","random,structured_load,structured_incentive,structured_normal","2,3,4,2,1,2","1,2,3,4","true","","",""
"null","","html-keyboard-response","308","186433","0.0-308.0","38SKSKU7R2JZIINDRYF7TGHTH68ILH","APGX2WZ59OWDN","3WUVMVA7OBP2V5NP3991VE8MBDEZA7","","<img src=""img/set1/S3.jpg"" width=""540"" height = ""360"" style=""border:16px solid orange"">","null","","","","","","","","","",""
"null","","html-keyboard-response","309","186634","0.0-309.0","38SKSKU7R2JZIINDRYF7TGHTH68ILH","APGX2WZ59OWDN","3WUVMVA7OBP2V5NP3991VE8MBDEZA7","","","null","","","","","","","","","",""
"575.0999999996275","","image-keyboard-response","310","187210","0.0-310.0","38SKSKU7R2JZIINDRYF7TGHTH68ILH","APGX2WZ59OWDN","3WUVMVA7OBP2V5NP3991VE8MBDEZA7","","img/set1/S4.jpg","74","4","random","74","random,structured_load,structured_incentive,structured_normal","2,3,4,2,1,2","1,2,3,4","true","","",""
"null","","html-keyboard-response","311","187561","0.0-311.0","38SKSKU7R2JZIINDRYF7TGHTH68ILH","APGX2WZ59OWDN","3WUVMVA7OBP2V5NP3991VE8MBDEZA7","","<img src=""img/set1/S4.jpg"" width=""540"" height = ""360"" style=""border:16px solid orange"">","null","","","","","","","","","",""
"null","","html-keyboard-response","312","187762","0.0-312.0","38SKSKU7R2JZIINDRYF7TGHTH68ILH","APGX2WZ59OWDN","3WUVMVA7OBP2V5NP3991VE8MBDEZA7","","","null","","","","","","","","","",""
"551.1999999992549","","image-keyboard-response","313","188314","0.0-313.0","38SKSKU7R2JZIINDRYF7TGHTH68ILH","APGX2WZ59OWDN","3WUVMVA7OBP2V5NP3991VE8MBDEZA7","","img/set1/S4.jpg","74","4","random","74","random,structured_load,structured_incentive,structured_normal","2,3,4,2,1,2","1,2,3,4","true","","",""
"null","","html-keyboard-response","314","188665","0.0-314.0","38SKSKU7R2JZIINDRYF7TGHTH68ILH","APGX2WZ59OWDN","3WUVMVA7OBP2V5NP3991VE8MBDEZA7","","<img src=""img/set1/S4.jpg"" width=""540"" height = ""360"" style=""border:16px solid orange"">","null","","","","","","","","","",""
"null","","html-keyboard-response","315","188866","0.0-315.0","38SKSKU7R2JZIINDRYF7TGHTH68ILH","APGX2WZ59OWDN","3WUVMVA7OBP2V5NP3991VE8MBDEZA7","","","null","","","","","","","","","",""
"783.5","","image-keyboard-response","316","189650","0.0-316.0","38SKSKU7R2JZIINDRYF7TGHTH68ILH","APGX2WZ59OWDN","3WUVMVA7OBP2V5NP3991VE8MBDEZA7","","img/set1/S3.jpg","72","3","random","72","random,structured_load,structured_incentive,structured_normal","2,3,4,2,1,2","1,2,3,4","true","","",""
"null","","html-keyboard-response","317","190001","0.0-317.0","38SKSKU7R2JZIINDRYF7TGHTH68ILH","APGX2WZ59OWDN","3WUVMVA7OBP2V5NP3991VE8MBDEZA7","","<img src=""img/set1/S3.jpg"" width=""540"" height = ""360"" style=""border:16px solid orange"">","null","","","","","","","","","",""
"null","","html-keyboard-response","318","190202","0.0-318.0","38SKSKU7R2JZIINDRYF7TGHTH68ILH","APGX2WZ59OWDN","3WUVMVA7OBP2V5NP3991VE8MBDEZA7","","","null","","","","","","","","","",""
"879","","image-keyboard-response","319","191082","0.0-319.0","38SKSKU7R2JZIINDRYF7TGHTH68ILH","APGX2WZ59OWDN","3WUVMVA7OBP2V5NP3991VE8MBDEZA7","","img/set1/S2.jpg","68","2","random","68","random,structured_load,structured_incentive,structured_normal","2,3,4,2,1,2","1,2,3,4","true","","",""
"null","","html-keyboard-response","320","191433","0.0-320.0","38SKSKU7R2JZIINDRYF7TGHTH68ILH","APGX2WZ59OWDN","3WUVMVA7OBP2V5NP3991VE8MBDEZA7","","<img src=""img/set1/S2.jpg"" width=""540"" height = ""360"" style=""border:16px solid orange"">","null","","","","","","","","","",""
"null","","html-keyboard-response","321","191634","0.0-321.0","38SKSKU7R2JZIINDRYF7TGHTH68ILH","APGX2WZ59OWDN","3WUVMVA7OBP2V5NP3991VE8MBDEZA7","","","null","","","","","","","","","",""
"559.5999999996275","","image-keyboard-response","322","192194","0.0-322.0","38SKSKU7R2JZIINDRYF7TGHTH68ILH","APGX2WZ59OWDN","3WUVMVA7OBP2V5NP3991VE8MBDEZA7","","img/set1/S1.jpg","83","1","random","83","random,structured_load,structured_incentive,structured_normal","2,3,4,2,1,2","1,2,3,4","true","","",""
"null","","html-keyboard-response","323","192546","0.0-323.0","38SKSKU7R2JZIINDRYF7TGHTH68ILH","APGX2WZ59OWDN","3WUVMVA7OBP2V5NP3991VE8MBDEZA7","","<img src=""img/set1/S1.jpg"" width=""540"" height = ""360"" style=""border:16px solid orange"">","null","","","","","","","","","",""
"null","","html-keyboard-response","324","192747","0.0-324.0","38SKSKU7R2JZIINDRYF7TGHTH68ILH","APGX2WZ59OWDN","3WUVMVA7OBP2V5NP3991VE8MBDEZA7","","","null","","","","","","","","","",""
"622.5999999996275","","image-keyboard-response","325","193370","0.0-325.0","38SKSKU7R2JZIINDRYF7TGHTH68ILH","APGX2WZ59OWDN","3WUVMVA7OBP2V5NP3991VE8MBDEZA7","","img/set1/S4.jpg","74","4","random","74","random,structured_load,structured_incentive,structured_normal","2,3,4,2,1,2","1,2,3,4","true","","",""
"null","","html-keyboard-response","326","193722","0.0-326.0","38SKSKU7R2JZIINDRYF7TGHTH68ILH","APGX2WZ59OWDN","3WUVMVA7OBP2V5NP3991VE8MBDEZA7","","<img src=""img/set1/S4.jpg"" width=""540"" height = ""360"" style=""border:16px solid orange"">","null","","","","","","","","","",""
"null","","html-keyboard-response","327","193923","0.0-327.0","38SKSKU7R2JZIINDRYF7TGHTH68ILH","APGX2WZ59OWDN","3WUVMVA7OBP2V5NP3991VE8MBDEZA7","","","null","","","","","","","","","",""
"470.69999999925494","","image-keyboard-response","328","194394","0.0-328.0","38SKSKU7R2JZIINDRYF7TGHTH68ILH","APGX2WZ59OWDN","3WUVMVA7OBP2V5NP3991VE8MBDEZA7","","img/set1/S4.jpg","74","4","random","74","random,structured_load,structured_incentive,structured_normal","2,3,4,2,1,2","1,2,3,4","true","","",""
"null","","html-keyboard-response","329","194746","0.0-329.0","38SKSKU7R2JZIINDRYF7TGHTH68ILH","APGX2WZ59OWDN","3WUVMVA7OBP2V5NP3991VE8MBDEZA7","","<img src=""img/set1/S4.jpg"" width=""540"" height = ""360"" style=""border:16px solid orange"">","null","","","","","","","","","",""
"null","","html-keyboard-response","330","194947","0.0-330.0","38SKSKU7R2JZIINDRYF7TGHTH68ILH","APGX2WZ59OWDN","3WUVMVA7OBP2V5NP3991VE8MBDEZA7","","","null","","","","","","","","","",""
"591","","image-keyboard-response","331","195539","0.0-331.0","38SKSKU7R2JZIINDRYF7TGHTH68ILH","APGX2WZ59OWDN","3WUVMVA7OBP2V5NP3991VE8MBDEZA7","","img/set1/S1.jpg","83","1","random","83","random,structured_load,structured_incentive,structured_normal","2,3,4,2,1,2","1,2,3,4","true","","",""
"null","","html-keyboard-response","332","195890","0.0-332.0","38SKSKU7R2JZIINDRYF7TGHTH68ILH","APGX2WZ59OWDN","3WUVMVA7OBP2V5NP3991VE8MBDEZA7","","<img src=""img/set1/S1.jpg"" width=""540"" height = ""360"" style=""border:16px solid orange"">","null","","","","","","","","","",""
"null","","html-keyboard-response","333","196091","0.0-333.0","38SKSKU7R2JZIINDRYF7TGHTH68ILH","APGX2WZ59OWDN","3WUVMVA7OBP2V5NP3991VE8MBDEZA7","","","null","","","","","","","","","",""
"999.0999999996275","","image-keyboard-response","334","197091","0.0-334.0","38SKSKU7R2JZIINDRYF7TGHTH68ILH","APGX2WZ59OWDN","3WUVMVA7OBP2V5NP3991VE8MBDEZA7","","img/set1/S3.jpg","72","3","random","72","random,structured_load,structured_incentive,structured_normal","2,3,4,2,1,2","1,2,3,4","true","","",""
"null","","html-keyboard-response","335","197442","0.0-335.0","38SKSKU7R2JZIINDRYF7TGHTH68ILH","APGX2WZ59OWDN","3WUVMVA7OBP2V5NP3991VE8MBDEZA7","","<img src=""img/set1/S3.jpg"" width=""540"" height = ""360"" style=""border:16px solid orange"">","null","","","","","","","","","",""
"null","","html-keyboard-response","336","197643","0.0-336.0","38SKSKU7R2JZIINDRYF7TGHTH68ILH","APGX2WZ59OWDN","3WUVMVA7OBP2V5NP3991VE8MBDEZA7","","","null","","","","","","","","","",""
"615.1999999992549","","image-keyboard-response","337","198259","0.0-337.0","38SKSKU7R2JZIINDRYF7TGHTH68ILH","APGX2WZ59OWDN","3WUVMVA7OBP2V5NP3991VE8MBDEZA7","","img/set1/S4.jpg","74","4","random","74","random,structured_load,structured_incentive,structured_normal","2,3,4,2,1,2","1,2,3,4","true","","",""
"null","","html-keyboard-response","338","198611","0.0-338.0","38SKSKU7R2JZIINDRYF7TGHTH68ILH","APGX2WZ59OWDN","3WUVMVA7OBP2V5NP3991VE8MBDEZA7","","<img src=""img/set1/S4.jpg"" width=""540"" height = ""360"" style=""border:16px solid orange"">","null","","","","","","","","","",""
"null","","html-keyboard-response","339","198812","0.0-339.0","38SKSKU7R2JZIINDRYF7TGHTH68ILH","APGX2WZ59OWDN","3WUVMVA7OBP2V5NP3991VE8MBDEZA7","","","null","","","","","","","","","",""
"518.5","","image-keyboard-response","340","199331","0.0-340.0","38SKSKU7R2JZIINDRYF7TGHTH68ILH","APGX2WZ59OWDN","3WUVMVA7OBP2V5NP3991VE8MBDEZA7","","img/set1/S3.jpg","72","3","random","72","random,structured_load,structured_incentive,structured_normal","2,3,4,2,1,2","1,2,3,4","true","","",""
"null","","html-keyboard-response","341","199683","0.0-341.0","38SKSKU7R2JZIINDRYF7TGHTH68ILH","APGX2WZ59OWDN","3WUVMVA7OBP2V5NP3991VE8MBDEZA7","","<img src=""img/set1/S3.jpg"" width=""540"" height = ""360"" style=""border:16px solid orange"">","null","","","","","","","","","",""
"null","","html-keyboard-response","342","199884","0.0-342.0","38SKSKU7R2JZIINDRYF7TGHTH68ILH","APGX2WZ59OWDN","3WUVMVA7OBP2V5NP3991VE8MBDEZA7","","","null","","","","","","","","","",""
"414.69999999925494","","image-keyboard-response","343","200299","0.0-343.0","38SKSKU7R2JZIINDRYF7TGHTH68ILH","APGX2WZ59OWDN","3WUVMVA7OBP2V5NP3991VE8MBDEZA7","","img/set1/S4.jpg","74","4","random","74","random,structured_load,structured_incentive,structured_normal","2,3,4,2,1,2","1,2,3,4","true","","",""
"null","","html-keyboard-response","344","200651","0.0-344.0","38SKSKU7R2JZIINDRYF7TGHTH68ILH","APGX2WZ59OWDN","3WUVMVA7OBP2V5NP3991VE8MBDEZA7","","<img src=""img/set1/S4.jpg"" width=""540"" height = ""360"" style=""border:16px solid orange"">","null","","","","","","","","","",""
"null","","html-keyboard-response","345","200852","0.0-345.0","38SKSKU7R2JZIINDRYF7TGHTH68ILH","APGX2WZ59OWDN","3WUVMVA7OBP2V5NP3991VE8MBDEZA7","","","null","","","","","","","","","",""
"974.5999999996275","","image-keyboard-response","346","201827","0.0-346.0","38SKSKU7R2JZIINDRYF7TGHTH68ILH","APGX2WZ59OWDN","3WUVMVA7OBP2V5NP3991VE8MBDEZA7","","img/set1/S1.jpg","83","1","random","83","random,structured_load,structured_incentive,structured_normal","2,3,4,2,1,2","1,2,3,4","true","","",""
"null","","html-keyboard-response","347","202178","0.0-347.0","38SKSKU7R2JZIINDRYF7TGHTH68ILH","APGX2WZ59OWDN","3WUVMVA7OBP2V5NP3991VE8MBDEZA7","","<img src=""img/set1/S1.jpg"" width=""540"" height = ""360"" style=""border:16px solid orange"">","null","","","","","","","","","",""
"null","","html-keyboard-response","348","202380","0.0-348.0","38SKSKU7R2JZIINDRYF7TGHTH68ILH","APGX2WZ59OWDN","3WUVMVA7OBP2V5NP3991VE8MBDEZA7","","","null","","","","","","","","","",""
"631.1999999992549","","image-keyboard-response","349","203011","0.0-349.0","38SKSKU7R2JZIINDRYF7TGHTH68ILH","APGX2WZ59OWDN","3WUVMVA7OBP2V5NP3991VE8MBDEZA7","","img/set1/S3.jpg","72","3","random","72","random,structured_load,structured_incentive,structured_normal","2,3,4,2,1,2","1,2,3,4","true","","",""
"null","","html-keyboard-response","350","203362","0.0-350.0","38SKSKU7R2JZIINDRYF7TGHTH68ILH","APGX2WZ59OWDN","3WUVMVA7OBP2V5NP3991VE8MBDEZA7","","<img src=""img/set1/S3.jpg"" width=""540"" height = ""360"" style=""border:16px solid orange"">","null","","","","","","","","","",""
"null","","html-keyboard-response","351","203564","0.0-351.0","38SKSKU7R2JZIINDRYF7TGHTH68ILH","APGX2WZ59OWDN","3WUVMVA7OBP2V5NP3991VE8MBDEZA7","","","null","","","","","","","","","",""
"607.3000000007451","","image-keyboard-response","352","204172","0.0-352.0","38SKSKU7R2JZIINDRYF7TGHTH68ILH","APGX2WZ59OWDN","3WUVMVA7OBP2V5NP3991VE8MBDEZA7","","img/set1/S4.jpg","74","4","random","74","random,structured_load,structured_incentive,structured_normal","2,3,4,2,1,2","1,2,3,4","true","","",""
"null","","html-keyboard-response","353","204522","0.0-353.0","38SKSKU7R2JZIINDRYF7TGHTH68ILH","APGX2WZ59OWDN","3WUVMVA7OBP2V5NP3991VE8MBDEZA7","","<img src=""img/set1/S4.jpg"" width=""540"" height = ""360"" style=""border:16px solid orange"">","null","","","","","","","","","",""
"null","","html-keyboard-response","354","204724","0.0-354.0","38SKSKU7R2JZIINDRYF7TGHTH68ILH","APGX2WZ59OWDN","3WUVMVA7OBP2V5NP3991VE8MBDEZA7","","","null","","","","","","","","","",""
"775.5999999996275","","image-keyboard-response","355","205500","0.0-355.0","38SKSKU7R2JZIINDRYF7TGHTH68ILH","APGX2WZ59OWDN","3WUVMVA7OBP2V5NP3991VE8MBDEZA7","","img/set1/S3.jpg","72","3","random","72","random,structured_load,structured_incentive,structured_normal","2,3,4,2,1,2","1,2,3,4","true","","",""
"null","","html-keyboard-response","356","205852","0.0-356.0","38SKSKU7R2JZIINDRYF7TGHTH68ILH","APGX2WZ59OWDN","3WUVMVA7OBP2V5NP3991VE8MBDEZA7","","<img src=""img/set1/S3.jpg"" width=""540"" height = ""360"" style=""border:16px solid orange"">","null","","","","","","","","","",""
"null","","html-keyboard-response","357","206053","0.0-357.0","38SKSKU7R2JZIINDRYF7TGHTH68ILH","APGX2WZ59OWDN","3WUVMVA7OBP2V5NP3991VE8MBDEZA7","","","null","","","","","","","","","",""
"526.3999999985099","","image-keyboard-response","358","206580","0.0-358.0","38SKSKU7R2JZIINDRYF7TGHTH68ILH","APGX2WZ59OWDN","3WUVMVA7OBP2V5NP3991VE8MBDEZA7","","img/set1/S3.jpg","72","3","random","72","random,structured_load,structured_incentive,structured_normal","2,3,4,2,1,2","1,2,3,4","true","","",""
"null","","html-keyboard-response","359","206931","0.0-359.0","38SKSKU7R2JZIINDRYF7TGHTH68ILH","APGX2WZ59OWDN","3WUVMVA7OBP2V5NP3991VE8MBDEZA7","","<img src=""img/set1/S3.jpg"" width=""540"" height = ""360"" style=""border:16px solid orange"">","null","","","","","","","","","",""
"null","","html-keyboard-response","360","207133","0.0-360.0","38SKSKU7R2JZIINDRYF7TGHTH68ILH","APGX2WZ59OWDN","3WUVMVA7OBP2V5NP3991VE8MBDEZA7","","","null","","","","","","","","","",""
"422.5","","image-keyboard-response","361","207556","0.0-361.0","38SKSKU7R2JZIINDRYF7TGHTH68ILH","APGX2WZ59OWDN","3WUVMVA7OBP2V5NP3991VE8MBDEZA7","","img/set1/S3.jpg","72","3","random","72","random,structured_load,structured_incentive,structured_normal","2,3,4,2,1,2","1,2,3,4","true","","",""
"null","","html-keyboard-response","362","207907","0.0-362.0","38SKSKU7R2JZIINDRYF7TGHTH68ILH","APGX2WZ59OWDN","3WUVMVA7OBP2V5NP3991VE8MBDEZA7","","<img src=""img/set1/S3.jpg"" width=""540"" height = ""360"" style=""border:16px solid orange"">","null","","","","","","","","","",""
"null","","html-keyboard-response","363","208108","0.0-363.0","38SKSKU7R2JZIINDRYF7TGHTH68ILH","APGX2WZ59OWDN","3WUVMVA7OBP2V5NP3991VE8MBDEZA7","","","null","","","","","","","","","",""
"623.2000000011176","","image-keyboard-response","364","208732","0.0-364.0","38SKSKU7R2JZIINDRYF7TGHTH68ILH","APGX2WZ59OWDN","3WUVMVA7OBP2V5NP3991VE8MBDEZA7","","img/set1/S4.jpg","74","4","random","74","random,structured_load,structured_incentive,structured_normal","2,3,4,2,1,2","1,2,3,4","true","","",""
"null","","html-keyboard-response","365","209083","0.0-365.0","38SKSKU7R2JZIINDRYF7TGHTH68ILH","APGX2WZ59OWDN","3WUVMVA7OBP2V5NP3991VE8MBDEZA7","","<img src=""img/set1/S4.jpg"" width=""540"" height = ""360"" style=""border:16px solid orange"">","null","","","","","","","","","",""
"null","","html-keyboard-response","366","209284","0.0-366.0","38SKSKU7R2JZIINDRYF7TGHTH68ILH","APGX2WZ59OWDN","3WUVMVA7OBP2V5NP3991VE8MBDEZA7","","","null","","","","","","","","","",""
"1031.6000000014901","","image-keyboard-response","367","210317","0.0-367.0","38SKSKU7R2JZIINDRYF7TGHTH68ILH","APGX2WZ59OWDN","3WUVMVA7OBP2V5NP3991VE8MBDEZA7","","img/set1/S3.jpg","72","3","random","72","random,structured_load,structured_incentive,structured_normal","2,3,4,2,1,2","1,2,3,4","true","","",""
"null","","html-keyboard-response","368","210668","0.0-368.0","38SKSKU7R2JZIINDRYF7TGHTH68ILH","APGX2WZ59OWDN","3WUVMVA7OBP2V5NP3991VE8MBDEZA7","","<img src=""img/set1/S3.jpg"" width=""540"" height = ""360"" style=""border:16px solid orange"">","null","","","","","","","","","",""
"null","","html-keyboard-response","369","210869","0.0-369.0","38SKSKU7R2JZIINDRYF7TGHTH68ILH","APGX2WZ59OWDN","3WUVMVA7OBP2V5NP3991VE8MBDEZA7","","","null","","","","","","","","","",""
"695","","image-keyboard-response","370","211564","0.0-370.0","38SKSKU7R2JZIINDRYF7TGHTH68ILH","APGX2WZ59OWDN","3WUVMVA7OBP2V5NP3991VE8MBDEZA7","","img/set1/S2.jpg","68","2","random","68","random,structured_load,structured_incentive,structured_normal","2,3,4,2,1,2","1,2,3,4","true","","",""
"null","","html-keyboard-response","371","211916","0.0-371.0","38SKSKU7R2JZIINDRYF7TGHTH68ILH","APGX2WZ59OWDN","3WUVMVA7OBP2V5NP3991VE8MBDEZA7","","<img src=""img/set1/S2.jpg"" width=""540"" height = ""360"" style=""border:16px solid orange"">","null","","","","","","","","","",""
"null","","html-keyboard-response","372","212117","0.0-372.0","38SKSKU7R2JZIINDRYF7TGHTH68ILH","APGX2WZ59OWDN","3WUVMVA7OBP2V5NP3991VE8MBDEZA7","","","null","","","","","","","","","",""
"647","","image-keyboard-response","373","212765","0.0-373.0","38SKSKU7R2JZIINDRYF7TGHTH68ILH","APGX2WZ59OWDN","3WUVMVA7OBP2V5NP3991VE8MBDEZA7","","img/set1/S1.jpg","83","1","random","83","random,structured_load,structured_incentive,structured_normal","2,3,4,2,1,2","1,2,3,4","true","","",""
"null","","html-keyboard-response","374","213116","0.0-374.0","38SKSKU7R2JZIINDRYF7TGHTH68ILH","APGX2WZ59OWDN","3WUVMVA7OBP2V5NP3991VE8MBDEZA7","","<img src=""img/set1/S1.jpg"" width=""540"" height = ""360"" style=""border:16px solid orange"">","null","","","","","","","","","",""
"null","","html-keyboard-response","375","213317","0.0-375.0","38SKSKU7R2JZIINDRYF7TGHTH68ILH","APGX2WZ59OWDN","3WUVMVA7OBP2V5NP3991VE8MBDEZA7","","","null","","","","","","","","","",""
"631.1999999992549","","image-keyboard-response","376","213949","0.0-376.0","38SKSKU7R2JZIINDRYF7TGHTH68ILH","APGX2WZ59OWDN","3WUVMVA7OBP2V5NP3991VE8MBDEZA7","","img/set1/S4.jpg","74","4","random","74","random,structured_load,structured_incentive,structured_normal","2,3,4,2,1,2","1,2,3,4","true","","",""
"null","","html-keyboard-response","377","214301","0.0-377.0","38SKSKU7R2JZIINDRYF7TGHTH68ILH","APGX2WZ59OWDN","3WUVMVA7OBP2V5NP3991VE8MBDEZA7","","<img src=""img/set1/S4.jpg"" width=""540"" height = ""360"" style=""border:16px solid orange"">","null","","","","","","","","","",""
"null","","html-keyboard-response","378","214502","0.0-378.0","38SKSKU7R2JZIINDRYF7TGHTH68ILH","APGX2WZ59OWDN","3WUVMVA7OBP2V5NP3991VE8MBDEZA7","","","null","","","","","","","","","",""
"534.5999999996275","","image-keyboard-response","379","215037","0.0-379.0","38SKSKU7R2JZIINDRYF7TGHTH68ILH","APGX2WZ59OWDN","3WUVMVA7OBP2V5NP3991VE8MBDEZA7","","img/set1/S4.jpg","74","4","random","74","random,structured_load,structured_incentive,structured_normal","2,3,4,2,1,2","1,2,3,4","true","","",""
"null","","html-keyboard-response","380","215389","0.0-380.0","38SKSKU7R2JZIINDRYF7TGHTH68ILH","APGX2WZ59OWDN","3WUVMVA7OBP2V5NP3991VE8MBDEZA7","","<img src=""img/set1/S4.jpg"" width=""540"" height = ""360"" style=""border:16px solid orange"">","null","","","","","","","","","",""
"null","","html-keyboard-response","381","215590","0.0-381.0","38SKSKU7R2JZIINDRYF7TGHTH68ILH","APGX2WZ59OWDN","3WUVMVA7OBP2V5NP3991VE8MBDEZA7","","","null","","","","","","","","","",""
"510.6000000014901","","image-keyboard-response","382","216101","0.0-382.0","38SKSKU7R2JZIINDRYF7TGHTH68ILH","APGX2WZ59OWDN","3WUVMVA7OBP2V5NP3991VE8MBDEZA7","","img/set1/S4.jpg","74","4","random","74","random,structured_load,structured_incentive,structured_normal","2,3,4,2,1,2","1,2,3,4","true","","",""
"null","","html-keyboard-response","383","216452","0.0-383.0","38SKSKU7R2JZIINDRYF7TGHTH68ILH","APGX2WZ59OWDN","3WUVMVA7OBP2V5NP3991VE8MBDEZA7","","<img src=""img/set1/S4.jpg"" width=""540"" height = ""360"" style=""border:16px solid orange"">","null","","","","","","","","","",""
"null","","html-keyboard-response","384","216653","0.0-384.0","38SKSKU7R2JZIINDRYF7TGHTH68ILH","APGX2WZ59OWDN","3WUVMVA7OBP2V5NP3991VE8MBDEZA7","","","null","","","","","","","","","",""
"495.1000000014901","","image-keyboard-response","385","217149","0.0-385.0","38SKSKU7R2JZIINDRYF7TGHTH68ILH","APGX2WZ59OWDN","3WUVMVA7OBP2V5NP3991VE8MBDEZA7","","img/set1/S4.jpg","74","4","random","74","random,structured_load,structured_incentive,structured_normal","2,3,4,2,1,2","1,2,3,4","true","","",""
"null","","html-keyboard-response","386","217501","0.0-386.0","38SKSKU7R2JZIINDRYF7TGHTH68ILH","APGX2WZ59OWDN","3WUVMVA7OBP2V5NP3991VE8MBDEZA7","","<img src=""img/set1/S4.jpg"" width=""540"" height = ""360"" style=""border:16px solid orange"">","null","","","","","","","","","",""
"null","","html-keyboard-response","387","217702","0.0-387.0","38SKSKU7R2JZIINDRYF7TGHTH68ILH","APGX2WZ59OWDN","3WUVMVA7OBP2V5NP3991VE8MBDEZA7","","","null","","","","","","","","","",""
