"rt","url","trial_type","trial_index","time_elapsed","internal_node_id","view_history","stimulus","key_press","state","test_part","correct_response","order_block","order_chunk","correct","responses","bonus"
"8410.699999988079","consent.html","external-html","0","8745","0.0-0.0","","","","","","","","","","",""
"86311","","instructions","1","95063","0.0-1.0","[{""page_index"":0,""viewing_time"":1900},{""page_index"":1,""viewing_time"":24685.899999976158},{""page_index"":2,""viewing_time"":12476.800000011921},{""page_index"":3,""viewing_time"":25857.599999964237},{""page_index"":4,""viewing_time"":7463.5},{""page_index"":5,""viewing_time"":8505.300000011921},{""page_index"":6,""viewing_time"":5419.5}]","","","","","","","","","",""
"7139.799999952316","","instructions","2","102204","0.0-2.0","[{""page_index"":0,""viewing_time"":7139.299999952316}]","","","","","","","","","",""
"3823.7000000476837","","instructions","3","106028","0.0-3.0","[{""page_index"":0,""viewing_time"":3823.300000011921}]","","","","","","","","","",""
"856","","image-keyboard-response","4","106886","0.0-4.0","","img/set1/S2.jpg","83","2","random","68","random,structured_load,structured_incentive,structured_normal","3,4,2,1,2,3","false","",""
"null","","html-keyboard-response","5","107243","0.0-5.0","","<img src=""img/set1/S2.jpg"" width=""540"" height = ""360"">","null","","","","","","","",""
"null","","html-keyboard-response","6","107446","0.0-6.0","","","null","","","","","","","",""
"1598.4000000357628","","image-keyboard-response","7","109047","0.0-7.0","","img/set1/S2.jpg","72","2","random","68","random,structured_load,structured_incentive,structured_normal","3,4,2,1,2,3","false","",""
"null","","html-keyboard-response","8","109402","0.0-8.0","","<img src=""img/set1/S2.jpg"" width=""540"" height = ""360"">","null","","","","","","","",""
"null","","html-keyboard-response","9","109605","0.0-9.0","","","null","","","","","","","",""
"662.8999999761581","","image-keyboard-response","10","110269","0.0-10.0","","img/set1/S1.jpg","68","1","random","83","random,structured_load,structured_incentive,structured_normal","3,4,2,1,2,3","false","",""
"null","","html-keyboard-response","11","110625","0.0-11.0","","<img src=""img/set1/S1.jpg"" width=""540"" height = ""360"">","null","","","","","","","",""
"null","","html-keyboard-response","12","110830","0.0-12.0","","","null","","","","","","","",""
"1142.6000000238419","","image-keyboard-response","13","111974","0.0-13.0","","img/set1/S3.jpg","74","3","random","72","random,structured_load,structured_incentive,structured_normal","3,4,2,1,2,3","false","",""
"null","","html-keyboard-response","14","112328","0.0-14.0","","<img src=""img/set1/S3.jpg"" width=""540"" height = ""360"">","null","","","","","","","",""
"null","","html-keyboard-response","15","112534","0.0-15.0","","","null","","","","","","","",""
"591","","image-keyboard-response","16","113126","0.0-16.0","","img/set1/S4.jpg","83","4","random","74","random,structured_load,structured_incentive,structured_normal","3,4,2,1,2,3","false","",""
"null","","html-keyboard-response","17","113483","0.0-17.0","","<img src=""img/set1/S4.jpg"" width=""540"" height = ""360"">","null","","","","","","","",""
"null","","html-keyboard-response","18","113688","0.0-18.0","","","null","","","","","","","",""
"980.3999999761581","","image-keyboard-response","19","114669","0.0-19.0","","img/set1/S3.jpg","83","3","random","72","random,structured_load,structured_incentive,structured_normal","3,4,2,1,2,3","false","",""
"null","","html-keyboard-response","20","115025","0.0-20.0","","<img src=""img/set1/S3.jpg"" width=""540"" height = ""360"">","null","","","","","","","",""
"null","","html-keyboard-response","21","115230","0.0-21.0","","","null","","","","","","","",""
"982.5","","image-keyboard-response","22","116214","0.0-22.0","","img/set1/S2.jpg","68","2","random","68","random,structured_load,structured_incentive,structured_normal","3,4,2,1,2,3","true","",""
"null","","html-keyboard-response","23","116569","0.0-23.0","","<img src=""img/set1/S2.jpg"" width=""540"" height = ""360"" style=""border:16px solid orange"">","null","","","","","","","",""
"null","","html-keyboard-response","24","116774","0.0-24.0","","","null","","","","","","","",""
"869.5","","image-keyboard-response","25","117645","0.0-25.0","","img/set1/S3.jpg","68","3","random","72","random,structured_load,structured_incentive,structured_normal","3,4,2,1,2,3","false","",""
"null","","html-keyboard-response","26","117999","0.0-26.0","","<img src=""img/set1/S3.jpg"" width=""540"" height = ""360"">","null","","","","","","","",""
"null","","html-keyboard-response","27","118202","0.0-27.0","","","null","","","","","","","",""
"818.3999999761581","","image-keyboard-response","28","119022","0.0-28.0","","img/set1/S4.jpg","68","4","random","74","random,structured_load,structured_incentive,structured_normal","3,4,2,1,2,3","false","",""
"null","","html-keyboard-response","29","119375","0.0-29.0","","<img src=""img/set1/S4.jpg"" width=""540"" height = ""360"">","null","","","","","","","",""
"null","","html-keyboard-response","30","119578","0.0-30.0","","","null","","","","","","","",""
"546.1999999880791","","image-keyboard-response","31","120126","0.0-31.0","","img/set1/S1.jpg","68","1","random","83","random,structured_load,structured_incentive,structured_normal","3,4,2,1,2,3","false","",""
"null","","html-keyboard-response","32","120482","0.0-32.0","","<img src=""img/set1/S1.jpg"" width=""540"" height = ""360"">","null","","","","","","","",""
"null","","html-keyboard-response","33","120687","0.0-33.0","","","null","","","","","","","",""
"685.4000000357628","","image-keyboard-response","34","121373","0.0-34.0","","img/set1/S1.jpg","68","1","random","83","random,structured_load,structured_incentive,structured_normal","3,4,2,1,2,3","false","",""
"null","","html-keyboard-response","35","121730","0.0-35.0","","<img src=""img/set1/S1.jpg"" width=""540"" height = ""360"">","null","","","","","","","",""
"null","","html-keyboard-response","36","121934","0.0-36.0","","","null","","","","","","","",""
"693.4000000357628","","image-keyboard-response","37","122629","0.0-37.0","","img/set1/S1.jpg","72","1","random","83","random,structured_load,structured_incentive,structured_normal","3,4,2,1,2,3","false","",""
"null","","html-keyboard-response","38","122985","0.0-38.0","","<img src=""img/set1/S1.jpg"" width=""540"" height = ""360"">","null","","","","","","","",""
"null","","html-keyboard-response","39","123188","0.0-39.0","","","null","","","","","","","",""
"1167.9000000357628","","image-keyboard-response","40","124357","0.0-40.0","","img/set1/S4.jpg","74","4","random","74","random,structured_load,structured_incentive,structured_normal","3,4,2,1,2,3","true","",""
"null","","html-keyboard-response","41","124714","0.0-41.0","","<img src=""img/set1/S4.jpg"" width=""540"" height = ""360"" style=""border:16px solid orange"">","null","","","","","","","",""
"null","","html-keyboard-response","42","124918","0.0-42.0","","","null","","","","","","","",""
"1150","","image-keyboard-response","43","126070","0.0-43.0","","img/set1/S3.jpg","83","3","random","72","random,structured_load,structured_incentive,structured_normal","3,4,2,1,2,3","false","",""
"null","","html-keyboard-response","44","126426","0.0-44.0","","<img src=""img/set1/S3.jpg"" width=""540"" height = ""360"">","null","","","","","","","",""
"null","","html-keyboard-response","45","126631","0.0-45.0","","","null","","","","","","","",""
"1269.3999999761581","","image-keyboard-response","46","127902","0.0-46.0","","img/set1/S4.jpg","72","4","random","74","random,structured_load,structured_incentive,structured_normal","3,4,2,1,2,3","false","",""
"null","","html-keyboard-response","47","128256","0.0-47.0","","<img src=""img/set1/S4.jpg"" width=""540"" height = ""360"">","null","","","","","","","",""
"null","","html-keyboard-response","48","128459","0.0-48.0","","","null","","","","","","","",""
"1072.3999999761581","","image-keyboard-response","49","129533","0.0-49.0","","img/set1/S2.jpg","68","2","random","68","random,structured_load,structured_incentive,structured_normal","3,4,2,1,2,3","true","",""
"null","","html-keyboard-response","50","129887","0.0-50.0","","<img src=""img/set1/S2.jpg"" width=""540"" height = ""360"" style=""border:16px solid orange"">","null","","","","","","","",""
"null","","html-keyboard-response","51","130092","0.0-51.0","","","null","","","","","","","",""
"615.5","","image-keyboard-response","52","130709","0.0-52.0","","img/set1/S3.jpg","74","3","random","72","random,structured_load,structured_incentive,structured_normal","3,4,2,1,2,3","false","",""
"null","","html-keyboard-response","53","131064","0.0-53.0","","<img src=""img/set1/S3.jpg"" width=""540"" height = ""360"">","null","","","","","","","",""
"null","","html-keyboard-response","54","131271","0.0-54.0","","","null","","","","","","","",""
"1108.8999999761581","","image-keyboard-response","55","132381","0.0-55.0","","img/set1/S2.jpg","68","2","random","68","random,structured_load,structured_incentive,structured_normal","3,4,2,1,2,3","true","",""
"null","","html-keyboard-response","56","132735","0.0-56.0","","<img src=""img/set1/S2.jpg"" width=""540"" height = ""360"" style=""border:16px solid orange"">","null","","","","","","","",""
"null","","html-keyboard-response","57","132941","0.0-57.0","","","null","","","","","","","",""
"784.1999999880791","","image-keyboard-response","58","133726","0.0-58.0","","img/set1/S1.jpg","74","1","random","83","random,structured_load,structured_incentive,structured_normal","3,4,2,1,2,3","false","",""
"null","","html-keyboard-response","59","134082","0.0-59.0","","<img src=""img/set1/S1.jpg"" width=""540"" height = ""360"">","null","","","","","","","",""
"null","","html-keyboard-response","60","134287","0.0-60.0","","","null","","","","","","","",""
"733.1000000238419","","image-keyboard-response","61","135021","0.0-61.0","","img/set1/S1.jpg","83","1","random","83","random,structured_load,structured_incentive,structured_normal","3,4,2,1,2,3","true","",""
"null","","html-keyboard-response","62","135377","0.0-62.0","","<img src=""img/set1/S1.jpg"" width=""540"" height = ""360"" style=""border:16px solid orange"">","null","","","","","","","",""
"null","","html-keyboard-response","63","135582","0.0-63.0","","","null","","","","","","","",""
"1149.9000000357628","","image-keyboard-response","64","136733","0.0-64.0","","img/set1/S4.jpg","72","4","random","74","random,structured_load,structured_incentive,structured_normal","3,4,2,1,2,3","false","",""
"null","","html-keyboard-response","65","137089","0.0-65.0","","<img src=""img/set1/S4.jpg"" width=""540"" height = ""360"">","null","","","","","","","",""
"null","","html-keyboard-response","66","137294","0.0-66.0","","","null","","","","","","","",""
"765","","image-keyboard-response","67","138061","0.0-67.0","","img/set1/S4.jpg","68","4","random","74","random,structured_load,structured_incentive,structured_normal","3,4,2,1,2,3","false","",""
"null","","html-keyboard-response","68","138414","0.0-68.0","","<img src=""img/set1/S4.jpg"" width=""540"" height = ""360"">","null","","","","","","","",""
"null","","html-keyboard-response","69","138618","0.0-69.0","","","null","","","","","","","",""
"1088.2000000476837","","image-keyboard-response","70","139709","0.0-70.0","","img/set1/S1.jpg","83","1","random","83","random,structured_load,structured_incentive,structured_normal","3,4,2,1,2,3","true","",""
"null","","html-keyboard-response","71","140063","0.0-71.0","","<img src=""img/set1/S1.jpg"" width=""540"" height = ""360"" style=""border:16px solid orange"">","null","","","","","","","",""
"null","","html-keyboard-response","72","140267","0.0-72.0","","","null","","","","","","","",""
"848.9000000357628","","image-keyboard-response","73","141117","0.0-73.0","","img/set1/S4.jpg","74","4","random","74","random,structured_load,structured_incentive,structured_normal","3,4,2,1,2,3","true","",""
"null","","html-keyboard-response","74","141474","0.0-74.0","","<img src=""img/set1/S4.jpg"" width=""540"" height = ""360"" style=""border:16px solid orange"">","null","","","","","","","",""
"null","","html-keyboard-response","75","141677","0.0-75.0","","","null","","","","","","","",""
"942.5","","image-keyboard-response","76","142620","0.0-76.0","","img/set1/S2.jpg","68","2","random","68","random,structured_load,structured_incentive,structured_normal","3,4,2,1,2,3","true","",""
"null","","html-keyboard-response","77","142976","0.0-77.0","","<img src=""img/set1/S2.jpg"" width=""540"" height = ""360"" style=""border:16px solid orange"">","null","","","","","","","",""
"null","","html-keyboard-response","78","143180","0.0-78.0","","","null","","","","","","","",""
"631.2999999523163","","image-keyboard-response","79","143813","0.0-79.0","","img/set1/S2.jpg","68","2","random","68","random,structured_load,structured_incentive,structured_normal","3,4,2,1,2,3","true","",""
"null","","html-keyboard-response","80","144167","0.0-80.0","","<img src=""img/set1/S2.jpg"" width=""540"" height = ""360"" style=""border:16px solid orange"">","null","","","","","","","",""
"null","","html-keyboard-response","81","144370","0.0-81.0","","","null","","","","","","","",""
"553.8000000119209","","image-keyboard-response","82","144925","0.0-82.0","","img/set1/S2.jpg","68","2","random","68","random,structured_load,structured_incentive,structured_normal","3,4,2,1,2,3","true","",""
"null","","html-keyboard-response","83","145280","0.0-83.0","","<img src=""img/set1/S2.jpg"" width=""540"" height = ""360"" style=""border:16px solid orange"">","null","","","","","","","",""
"null","","html-keyboard-response","84","145485","0.0-84.0","","","null","","","","","","","",""
"566.1000000238419","","image-keyboard-response","85","146053","0.0-85.0","","img/set1/S4.jpg","74","4","random","74","random,structured_load,structured_incentive,structured_normal","3,4,2,1,2,3","true","",""
"null","","html-keyboard-response","86","146407","0.0-86.0","","<img src=""img/set1/S4.jpg"" width=""540"" height = ""360"" style=""border:16px solid orange"">","null","","","","","","","",""
"null","","html-keyboard-response","87","146611","0.0-87.0","","","null","","","","","","","",""
"440.30000001192093","","image-keyboard-response","88","147052","0.0-88.0","","img/set1/S4.jpg","74","4","random","74","random,structured_load,structured_incentive,structured_normal","3,4,2,1,2,3","true","",""
"null","","html-keyboard-response","89","147407","0.0-89.0","","<img src=""img/set1/S4.jpg"" width=""540"" height = ""360"" style=""border:16px solid orange"">","null","","","","","","","",""
"null","","html-keyboard-response","90","147609","0.0-90.0","","","null","","","","","","","",""
"705.8999999761581","","image-keyboard-response","91","148316","0.0-91.0","","img/set1/S2.jpg","68","2","random","68","random,structured_load,structured_incentive,structured_normal","3,4,2,1,2,3","true","",""
"null","","html-keyboard-response","92","148672","0.0-92.0","","<img src=""img/set1/S2.jpg"" width=""540"" height = ""360"" style=""border:16px solid orange"">","null","","","","","","","",""
"null","","html-keyboard-response","93","148875","0.0-93.0","","","null","","","","","","","",""
"751.5","","image-keyboard-response","94","149628","0.0-94.0","","img/set1/S4.jpg","74","4","random","74","random,structured_load,structured_incentive,structured_normal","3,4,2,1,2,3","true","",""
"null","","html-keyboard-response","95","149984","0.0-95.0","","<img src=""img/set1/S4.jpg"" width=""540"" height = ""360"" style=""border:16px solid orange"">","null","","","","","","","",""
"null","","html-keyboard-response","96","150187","0.0-96.0","","","null","","","","","","","",""
"1129","","image-keyboard-response","97","151317","0.0-97.0","","img/set1/S1.jpg","72","1","random","83","random,structured_load,structured_incentive,structured_normal","3,4,2,1,2,3","false","",""
"null","","html-keyboard-response","98","151673","0.0-98.0","","<img src=""img/set1/S1.jpg"" width=""540"" height = ""360"">","null","","","","","","","",""
"null","","html-keyboard-response","99","151876","0.0-99.0","","","null","","","","","","","",""
"815","","image-keyboard-response","100","152692","0.0-100.0","","img/set1/S4.jpg","74","4","random","74","random,structured_load,structured_incentive,structured_normal","3,4,2,1,2,3","true","",""
"null","","html-keyboard-response","101","153049","0.0-101.0","","<img src=""img/set1/S4.jpg"" width=""540"" height = ""360"" style=""border:16px solid orange"">","null","","","","","","","",""
"null","","html-keyboard-response","102","153254","0.0-102.0","","","null","","","","","","","",""
"733.4000000357628","","image-keyboard-response","103","153988","0.0-103.0","","img/set1/S2.jpg","68","2","random","68","random,structured_load,structured_incentive,structured_normal","3,4,2,1,2,3","true","",""
"null","","html-keyboard-response","104","154344","0.0-104.0","","<img src=""img/set1/S2.jpg"" width=""540"" height = ""360"" style=""border:16px solid orange"">","null","","","","","","","",""
"null","","html-keyboard-response","105","154547","0.0-105.0","","","null","","","","","","","",""
"608","","image-keyboard-response","106","155156","0.0-106.0","","img/set1/S4.jpg","68","4","random","74","random,structured_load,structured_incentive,structured_normal","3,4,2,1,2,3","false","",""
"null","","html-keyboard-response","107","155510","0.0-107.0","","<img src=""img/set1/S4.jpg"" width=""540"" height = ""360"">","null","","","","","","","",""
"null","","html-keyboard-response","108","155713","0.0-108.0","","","null","","","","","","","",""
"1259.9000000357628","","image-keyboard-response","109","156975","0.0-109.0","","img/set1/S1.jpg","83","1","random","83","random,structured_load,structured_incentive,structured_normal","3,4,2,1,2,3","true","",""
"null","","html-keyboard-response","110","157331","0.0-110.0","","<img src=""img/set1/S1.jpg"" width=""540"" height = ""360"" style=""border:16px solid orange"">","null","","","","","","","",""
"null","","html-keyboard-response","111","157537","0.0-111.0","","","null","","","","","","","",""
"1018.1000000238419","","image-keyboard-response","112","158556","0.0-112.0","","img/set1/S3.jpg","72","3","random","72","random,structured_load,structured_incentive,structured_normal","3,4,2,1,2,3","true","",""
"null","","html-keyboard-response","113","158912","0.0-113.0","","<img src=""img/set1/S3.jpg"" width=""540"" height = ""360"" style=""border:16px solid orange"">","null","","","","","","","",""
"null","","html-keyboard-response","114","159115","0.0-114.0","","","null","","","","","","","",""
"720","","image-keyboard-response","115","159836","0.0-115.0","","img/set1/S4.jpg","74","4","random","74","random,structured_load,structured_incentive,structured_normal","3,4,2,1,2,3","true","",""
"null","","html-keyboard-response","116","160193","0.0-116.0","","<img src=""img/set1/S4.jpg"" width=""540"" height = ""360"" style=""border:16px solid orange"">","null","","","","","","","",""
"null","","html-keyboard-response","117","160398","0.0-117.0","","","null","","","","","","","",""
"622.0999999642372","","image-keyboard-response","118","161021","0.0-118.0","","img/set1/S3.jpg","72","3","random","72","random,structured_load,structured_incentive,structured_normal","3,4,2,1,2,3","true","",""
"null","","html-keyboard-response","119","161377","0.0-119.0","","<img src=""img/set1/S3.jpg"" width=""540"" height = ""360"" style=""border:16px solid orange"">","null","","","","","","","",""
"null","","html-keyboard-response","120","161582","0.0-120.0","","","null","","","","","","","",""
"557.3999999761581","","image-keyboard-response","121","162140","0.0-121.0","","img/set1/S4.jpg","74","4","random","74","random,structured_load,structured_incentive,structured_normal","3,4,2,1,2,3","true","",""
"null","","html-keyboard-response","122","162493","0.0-122.0","","<img src=""img/set1/S4.jpg"" width=""540"" height = ""360"" style=""border:16px solid orange"">","null","","","","","","","",""
"null","","html-keyboard-response","123","162696","0.0-123.0","","","null","","","","","","","",""
"458.5999999642372","","image-keyboard-response","124","163156","0.0-124.0","","img/set1/S3.jpg","72","3","random","72","random,structured_load,structured_incentive,structured_normal","3,4,2,1,2,3","true","",""
"null","","html-keyboard-response","125","163509","0.0-125.0","","<img src=""img/set1/S3.jpg"" width=""540"" height = ""360"" style=""border:16px solid orange"">","null","","","","","","","",""
"null","","html-keyboard-response","126","163712","0.0-126.0","","","null","","","","","","","",""
"491.10000002384186","","image-keyboard-response","127","164205","0.0-127.0","","img/set1/S3.jpg","72","3","random","72","random,structured_load,structured_incentive,structured_normal","3,4,2,1,2,3","true","",""
"null","","html-keyboard-response","128","164560","0.0-128.0","","<img src=""img/set1/S3.jpg"" width=""540"" height = ""360"" style=""border:16px solid orange"">","null","","","","","","","",""
"null","","html-keyboard-response","129","164763","0.0-129.0","","","null","","","","","","","",""
"776.5","","image-keyboard-response","130","165540","0.0-130.0","","img/set1/S4.jpg","74","4","random","74","random,structured_load,structured_incentive,structured_normal","3,4,2,1,2,3","true","",""
"null","","html-keyboard-response","131","165895","0.0-131.0","","<img src=""img/set1/S4.jpg"" width=""540"" height = ""360"" style=""border:16px solid orange"">","null","","","","","","","",""
"null","","html-keyboard-response","132","166098","0.0-132.0","","","null","","","","","","","",""
"1049.699999988079","","image-keyboard-response","133","167149","0.0-133.0","","img/set1/S1.jpg","83","1","random","83","random,structured_load,structured_incentive,structured_normal","3,4,2,1,2,3","true","",""
"null","","html-keyboard-response","134","167503","0.0-134.0","","<img src=""img/set1/S1.jpg"" width=""540"" height = ""360"" style=""border:16px solid orange"">","null","","","","","","","",""
"null","","html-keyboard-response","135","167706","0.0-135.0","","","null","","","","","","","",""
"625.6000000238419","","image-keyboard-response","136","168333","0.0-136.0","","img/set1/S2.jpg","68","2","random","68","random,structured_load,structured_incentive,structured_normal","3,4,2,1,2,3","true","",""
"null","","html-keyboard-response","137","168687","0.0-137.0","","<img src=""img/set1/S2.jpg"" width=""540"" height = ""360"" style=""border:16px solid orange"">","null","","","","","","","",""
"null","","html-keyboard-response","138","168890","0.0-138.0","","","null","","","","","","","",""
"1040.199999988079","","image-keyboard-response","139","169932","0.0-139.0","","img/set1/S1.jpg","83","1","random","83","random,structured_load,structured_incentive,structured_normal","3,4,2,1,2,3","true","",""
"null","","html-keyboard-response","140","170287","0.0-140.0","","<img src=""img/set1/S1.jpg"" width=""540"" height = ""360"" style=""border:16px solid orange"">","null","","","","","","","",""
"null","","html-keyboard-response","141","170492","0.0-141.0","","","null","","","","","","","",""
"903.9000000357628","","image-keyboard-response","142","171396","0.0-142.0","","img/set1/S4.jpg","74","4","random","74","random,structured_load,structured_incentive,structured_normal","3,4,2,1,2,3","true","",""
"null","","html-keyboard-response","143","171752","0.0-143.0","","<img src=""img/set1/S4.jpg"" width=""540"" height = ""360"" style=""border:16px solid orange"">","null","","","","","","","",""
"null","","html-keyboard-response","144","171955","0.0-144.0","","","null","","","","","","","",""
"560.0999999642372","","image-keyboard-response","145","172517","0.0-145.0","","img/set1/S3.jpg","72","3","random","72","random,structured_load,structured_incentive,structured_normal","3,4,2,1,2,3","true","",""
"null","","html-keyboard-response","146","172874","0.0-146.0","","<img src=""img/set1/S3.jpg"" width=""540"" height = ""360"" style=""border:16px solid orange"">","null","","","","","","","",""
"null","","html-keyboard-response","147","173080","0.0-147.0","","","null","","","","","","","",""
"1012","","image-keyboard-response","148","174093","0.0-148.0","","img/set1/S1.jpg","83","1","random","83","random,structured_load,structured_incentive,structured_normal","3,4,2,1,2,3","true","",""
"null","","html-keyboard-response","149","174450","0.0-149.0","","<img src=""img/set1/S1.jpg"" width=""540"" height = ""360"" style=""border:16px solid orange"">","null","","","","","","","",""
"null","","html-keyboard-response","150","174654","0.0-150.0","","","null","","","","","","","",""
"645.1999999880791","","image-keyboard-response","151","175301","0.0-151.0","","img/set1/S4.jpg","74","4","random","74","random,structured_load,structured_incentive,structured_normal","3,4,2,1,2,3","true","",""
"null","","html-keyboard-response","152","175657","0.0-152.0","","<img src=""img/set1/S4.jpg"" width=""540"" height = ""360"" style=""border:16px solid orange"">","null","","","","","","","",""
"null","","html-keyboard-response","153","175862","0.0-153.0","","","null","","","","","","","",""
"1046.199999988079","","image-keyboard-response","154","176909","0.0-154.0","","img/set1/S3.jpg","74","3","random","72","random,structured_load,structured_incentive,structured_normal","3,4,2,1,2,3","false","",""
"null","","html-keyboard-response","155","177267","0.0-155.0","","<img src=""img/set1/S3.jpg"" width=""540"" height = ""360"">","null","","","","","","","",""
"null","","html-keyboard-response","156","177469","0.0-156.0","","","null","","","","","","","",""
"742.1999999880791","","image-keyboard-response","157","178212","0.0-157.0","","img/set1/S1.jpg","83","1","random","83","random,structured_load,structured_incentive,structured_normal","3,4,2,1,2,3","true","",""
"null","","html-keyboard-response","158","178567","0.0-158.0","","<img src=""img/set1/S1.jpg"" width=""540"" height = ""360"" style=""border:16px solid orange"">","null","","","","","","","",""
"null","","html-keyboard-response","159","178770","0.0-159.0","","","null","","","","","","","",""
"409.39999997615814","","image-keyboard-response","160","179180","0.0-160.0","","img/set1/S1.jpg","83","1","random","83","random,structured_load,structured_incentive,structured_normal","3,4,2,1,2,3","true","",""
"null","","html-keyboard-response","161","179536","0.0-161.0","","<img src=""img/set1/S1.jpg"" width=""540"" height = ""360"" style=""border:16px solid orange"">","null","","","","","","","",""
"null","","html-keyboard-response","162","179739","0.0-162.0","","","null","","","","","","","",""
"639.5","","image-keyboard-response","163","180380","0.0-163.0","","img/set1/S2.jpg","68","2","random","68","random,structured_load,structured_incentive,structured_normal","3,4,2,1,2,3","true","",""
"null","","html-keyboard-response","164","180736","0.0-164.0","","<img src=""img/set1/S2.jpg"" width=""540"" height = ""360"" style=""border:16px solid orange"">","null","","","","","","","",""
"null","","html-keyboard-response","165","180940","0.0-165.0","","","null","","","","","","","",""
"854.3000000119209","","image-keyboard-response","166","181796","0.0-166.0","","img/set1/S4.jpg","74","4","random","74","random,structured_load,structured_incentive,structured_normal","3,4,2,1,2,3","true","",""
"null","","html-keyboard-response","167","182152","0.0-167.0","","<img src=""img/set1/S4.jpg"" width=""540"" height = ""360"" style=""border:16px solid orange"">","null","","","","","","","",""
"null","","html-keyboard-response","168","182353","0.0-168.0","","","null","","","","","","","",""
"753.1999999880791","","image-keyboard-response","169","183108","0.0-169.0","","img/set1/S1.jpg","83","1","random","83","random,structured_load,structured_incentive,structured_normal","3,4,2,1,2,3","true","",""
"null","","html-keyboard-response","170","183462","0.0-170.0","","<img src=""img/set1/S1.jpg"" width=""540"" height = ""360"" style=""border:16px solid orange"">","null","","","","","","","",""
"null","","html-keyboard-response","171","183667","0.0-171.0","","","null","","","","","","","",""
"710.6999999880791","","image-keyboard-response","172","184380","0.0-172.0","","img/set1/S3.jpg","72","3","random","72","random,structured_load,structured_incentive,structured_normal","3,4,2,1,2,3","true","",""
"null","","html-keyboard-response","173","184735","0.0-173.0","","<img src=""img/set1/S3.jpg"" width=""540"" height = ""360"" style=""border:16px solid orange"">","null","","","","","","","",""
"null","","html-keyboard-response","174","184940","0.0-174.0","","","null","","","","","","","",""
"654","","image-keyboard-response","175","185596","0.0-175.0","","img/set1/S2.jpg","68","2","random","68","random,structured_load,structured_incentive,structured_normal","3,4,2,1,2,3","true","",""
"null","","html-keyboard-response","176","185950","0.0-176.0","","<img src=""img/set1/S2.jpg"" width=""540"" height = ""360"" style=""border:16px solid orange"">","null","","","","","","","",""
"null","","html-keyboard-response","177","186152","0.0-177.0","","","null","","","","","","","",""
"585.9000000357628","","image-keyboard-response","178","186740","0.0-178.0","","img/set1/S2.jpg","68","2","random","68","random,structured_load,structured_incentive,structured_normal","3,4,2,1,2,3","true","",""
"null","","html-keyboard-response","179","187094","0.0-179.0","","<img src=""img/set1/S2.jpg"" width=""540"" height = ""360"" style=""border:16px solid orange"">","null","","","","","","","",""
"null","","html-keyboard-response","180","187297","0.0-180.0","","","null","","","","","","","",""
"952.8999999761581","","image-keyboard-response","181","188252","0.0-181.0","","img/set1/S1.jpg","83","1","random","83","random,structured_load,structured_incentive,structured_normal","3,4,2,1,2,3","true","",""
"null","","html-keyboard-response","182","188608","0.0-182.0","","<img src=""img/set1/S1.jpg"" width=""540"" height = ""360"" style=""border:16px solid orange"">","null","","","","","","","",""
"null","","html-keyboard-response","183","188812","0.0-183.0","","","null","","","","","","","",""
"703.5999999642372","","image-keyboard-response","184","189517","0.0-184.0","","img/set1/S3.jpg","74","3","random","72","random,structured_load,structured_incentive,structured_normal","3,4,2,1,2,3","false","",""
"null","","html-keyboard-response","185","189875","0.0-185.0","","<img src=""img/set1/S3.jpg"" width=""540"" height = ""360"">","null","","","","","","","",""
"null","","html-keyboard-response","186","190077","0.0-186.0","","","null","","","","","","","",""
"798","","image-keyboard-response","187","190877","0.0-187.0","","img/set1/S1.jpg","83","1","random","83","random,structured_load,structured_incentive,structured_normal","3,4,2,1,2,3","true","",""
"null","","html-keyboard-response","188","191233","0.0-188.0","","<img src=""img/set1/S1.jpg"" width=""540"" height = ""360"" style=""border:16px solid orange"">","null","","","","","","","",""
"null","","html-keyboard-response","189","191439","0.0-189.0","","","null","","","","","","","",""
"461.80000001192093","","image-keyboard-response","190","191902","0.0-190.0","","img/set1/S1.jpg","83","1","random","83","random,structured_load,structured_incentive,structured_normal","3,4,2,1,2,3","true","",""
"null","","html-keyboard-response","191","192259","0.0-191.0","","<img src=""img/set1/S1.jpg"" width=""540"" height = ""360"" style=""border:16px solid orange"">","null","","","","","","","",""
"null","","html-keyboard-response","192","192463","0.0-192.0","","","null","","","","","","","",""
"715.3000000119209","","image-keyboard-response","193","193180","0.0-193.0","","img/set1/S3.jpg","72","3","random","72","random,structured_load,structured_incentive,structured_normal","3,4,2,1,2,3","true","",""
"null","","html-keyboard-response","194","193536","0.0-194.0","","<img src=""img/set1/S3.jpg"" width=""540"" height = ""360"" style=""border:16px solid orange"">","null","","","","","","","",""
"null","","html-keyboard-response","195","193740","0.0-195.0","","","null","","","","","","","",""
"501.89999997615814","","image-keyboard-response","196","194243","0.0-196.0","","img/set1/S4.jpg","74","4","random","74","random,structured_load,structured_incentive,structured_normal","3,4,2,1,2,3","true","",""
"null","","html-keyboard-response","197","194598","0.0-197.0","","<img src=""img/set1/S4.jpg"" width=""540"" height = ""360"" style=""border:16px solid orange"">","null","","","","","","","",""
"null","","html-keyboard-response","198","194802","0.0-198.0","","","null","","","","","","","",""
"1120.7000000476837","","image-keyboard-response","199","195924","0.0-199.0","","img/set1/S3.jpg","72","3","random","72","random,structured_load,structured_incentive,structured_normal","3,4,2,1,2,3","true","",""
"null","","html-keyboard-response","200","196281","0.0-200.0","","<img src=""img/set1/S3.jpg"" width=""540"" height = ""360"" style=""border:16px solid orange"">","null","","","","","","","",""
"null","","html-keyboard-response","201","196486","0.0-201.0","","","null","","","","","","","",""
"725.6999999880791","","image-keyboard-response","202","197213","0.0-202.0","","img/set1/S2.jpg","68","2","random","68","random,structured_load,structured_incentive,structured_normal","3,4,2,1,2,3","true","",""
"null","","html-keyboard-response","203","197566","0.0-203.0","","<img src=""img/set1/S2.jpg"" width=""540"" height = ""360"" style=""border:16px solid orange"">","null","","","","","","","",""
"null","","html-keyboard-response","204","197769","0.0-204.0","","","null","","","","","","","",""
"793.5999999642372","","image-keyboard-response","205","198564","0.0-205.0","","img/set1/S1.jpg","83","1","random","83","random,structured_load,structured_incentive,structured_normal","3,4,2,1,2,3","true","",""
"null","","html-keyboard-response","206","198919","0.0-206.0","","<img src=""img/set1/S1.jpg"" width=""540"" height = ""360"" style=""border:16px solid orange"">","null","","","","","","","",""
"null","","html-keyboard-response","207","199122","0.0-207.0","","","null","","","","","","","",""
"958.1999999880791","","image-keyboard-response","208","200081","0.0-208.0","","img/set1/S3.jpg","72","3","random","72","random,structured_load,structured_incentive,structured_normal","3,4,2,1,2,3","true","",""
"null","","html-keyboard-response","209","200438","0.0-209.0","","<img src=""img/set1/S3.jpg"" width=""540"" height = ""360"" style=""border:16px solid orange"">","null","","","","","","","",""
"null","","html-keyboard-response","210","200643","0.0-210.0","","","null","","","","","","","",""
"695.6999999880791","","image-keyboard-response","211","201339","0.0-211.0","","img/set1/S2.jpg","68","2","random","68","random,structured_load,structured_incentive,structured_normal","3,4,2,1,2,3","true","",""
"null","","html-keyboard-response","212","201693","0.0-212.0","","<img src=""img/set1/S2.jpg"" width=""540"" height = ""360"" style=""border:16px solid orange"">","null","","","","","","","",""
"null","","html-keyboard-response","213","201897","0.0-213.0","","","null","","","","","","","",""
"473.0999999642372","","image-keyboard-response","214","202371","0.0-214.0","","img/set1/S2.jpg","68","2","random","68","random,structured_load,structured_incentive,structured_normal","3,4,2,1,2,3","true","",""
"null","","html-keyboard-response","215","202726","0.0-215.0","","<img src=""img/set1/S2.jpg"" width=""540"" height = ""360"" style=""border:16px solid orange"">","null","","","","","","","",""
"null","","html-keyboard-response","216","202930","0.0-216.0","","","null","","","","","","","",""
"392","","image-keyboard-response","217","203323","0.0-217.0","","img/set1/S2.jpg","68","2","random","68","random,structured_load,structured_incentive,structured_normal","3,4,2,1,2,3","true","",""
"null","","html-keyboard-response","218","203678","0.0-218.0","","<img src=""img/set1/S2.jpg"" width=""540"" height = ""360"" style=""border:16px solid orange"">","null","","","","","","","",""
"null","","html-keyboard-response","219","203882","0.0-219.0","","","null","","","","","","","",""
"704","","image-keyboard-response","220","204587","0.0-220.0","","img/set1/S3.jpg","72","3","random","72","random,structured_load,structured_incentive,structured_normal","3,4,2,1,2,3","true","",""
"null","","html-keyboard-response","221","204942","0.0-221.0","","<img src=""img/set1/S3.jpg"" width=""540"" height = ""360"" style=""border:16px solid orange"">","null","","","","","","","",""
"null","","html-keyboard-response","222","205147","0.0-222.0","","","null","","","","","","","",""
"743","","image-keyboard-response","223","205891","0.0-223.0","","img/set1/S1.jpg","83","1","random","83","random,structured_load,structured_incentive,structured_normal","3,4,2,1,2,3","true","",""
"null","","html-keyboard-response","224","206244","0.0-224.0","","<img src=""img/set1/S1.jpg"" width=""540"" height = ""360"" style=""border:16px solid orange"">","null","","","","","","","",""
"null","","html-keyboard-response","225","206447","0.0-225.0","","","null","","","","","","","",""
"491","","image-keyboard-response","226","206939","0.0-226.0","","img/set1/S1.jpg","83","1","random","83","random,structured_load,structured_incentive,structured_normal","3,4,2,1,2,3","true","",""
"null","","html-keyboard-response","227","207295","0.0-227.0","","<img src=""img/set1/S1.jpg"" width=""540"" height = ""360"" style=""border:16px solid orange"">","null","","","","","","","",""
"null","","html-keyboard-response","228","207498","0.0-228.0","","","null","","","","","","","",""
"705.5","","image-keyboard-response","229","208204","0.0-229.0","","img/set1/S2.jpg","68","2","random","68","random,structured_load,structured_incentive,structured_normal","3,4,2,1,2,3","true","",""
"null","","html-keyboard-response","230","208560","0.0-230.0","","<img src=""img/set1/S2.jpg"" width=""540"" height = ""360"" style=""border:16px solid orange"">","null","","","","","","","",""
"null","","html-keyboard-response","231","208764","0.0-231.0","","","null","","","","","","","",""
"510.30000001192093","","image-keyboard-response","232","209276","0.0-232.0","","img/set1/S1.jpg","68","1","random","83","random,structured_load,structured_incentive,structured_normal","3,4,2,1,2,3","false","",""
"null","","html-keyboard-response","233","209632","0.0-233.0","","<img src=""img/set1/S1.jpg"" width=""540"" height = ""360"">","null","","","","","","","",""
"null","","html-keyboard-response","234","209838","0.0-234.0","","","null","","","","","","","",""
"523.6999999880791","","image-keyboard-response","235","210363","0.0-235.0","","img/set1/S1.jpg","83","1","random","83","random,structured_load,structured_incentive,structured_normal","3,4,2,1,2,3","true","",""
"null","","html-keyboard-response","236","210718","0.0-236.0","","<img src=""img/set1/S1.jpg"" width=""540"" height = ""360"" style=""border:16px solid orange"">","null","","","","","","","",""
"null","","html-keyboard-response","237","210923","0.0-237.0","","","null","","","","","","","",""
"446.7000000476837","","image-keyboard-response","238","211371","0.0-238.0","","img/set1/S1.jpg","83","1","random","83","random,structured_load,structured_incentive,structured_normal","3,4,2,1,2,3","true","",""
"null","","html-keyboard-response","239","211724","0.0-239.0","","<img src=""img/set1/S1.jpg"" width=""540"" height = ""360"" style=""border:16px solid orange"">","null","","","","","","","",""
"null","","html-keyboard-response","240","211927","0.0-240.0","","","null","","","","","","","",""
"427.2999999523163","","image-keyboard-response","241","212356","0.0-241.0","","img/set1/S1.jpg","83","1","random","83","random,structured_load,structured_incentive,structured_normal","3,4,2,1,2,3","true","",""
"null","","html-keyboard-response","242","212711","0.0-242.0","","<img src=""img/set1/S1.jpg"" width=""540"" height = ""360"" style=""border:16px solid orange"">","null","","","","","","","",""
"null","","html-keyboard-response","243","212914","0.0-243.0","","","null","","","","","","","",""
"591.1000000238419","","image-keyboard-response","244","213507","0.0-244.0","","img/set1/S2.jpg","68","2","random","68","random,structured_load,structured_incentive,structured_normal","3,4,2,1,2,3","true","",""
"null","","html-keyboard-response","245","213860","0.0-245.0","","<img src=""img/set1/S2.jpg"" width=""540"" height = ""360"" style=""border:16px solid orange"">","null","","","","","","","",""
"null","","html-keyboard-response","246","214063","0.0-246.0","","","null","","","","","","","",""
"666.9000000357628","","image-keyboard-response","247","214731","0.0-247.0","","img/set1/S3.jpg","72","3","random","72","random,structured_load,structured_incentive,structured_normal","3,4,2,1,2,3","true","",""
"null","","html-keyboard-response","248","215084","0.0-248.0","","<img src=""img/set1/S3.jpg"" width=""540"" height = ""360"" style=""border:16px solid orange"">","null","","","","","","","",""
"null","","html-keyboard-response","249","215290","0.0-249.0","","","null","","","","","","","",""
"369","","image-keyboard-response","250","215660","0.0-250.0","","img/set1/S3.jpg","72","3","random","72","random,structured_load,structured_incentive,structured_normal","3,4,2,1,2,3","true","",""
"null","","html-keyboard-response","251","216014","0.0-251.0","","<img src=""img/set1/S3.jpg"" width=""540"" height = ""360"" style=""border:16px solid orange"">","null","","","","","","","",""
"null","","html-keyboard-response","252","216217","0.0-252.0","","","null","","","","","","","",""
"370.60000002384186","","image-keyboard-response","253","216589","0.0-253.0","","img/set1/S3.jpg","72","3","random","72","random,structured_load,structured_incentive,structured_normal","3,4,2,1,2,3","true","",""
"null","","html-keyboard-response","254","216945","0.0-254.0","","<img src=""img/set1/S3.jpg"" width=""540"" height = ""360"" style=""border:16px solid orange"">","null","","","","","","","",""
"null","","html-keyboard-response","255","217150","0.0-255.0","","","null","","","","","","","",""
"691.6000000238419","","image-keyboard-response","256","217843","0.0-256.0","","img/set1/S2.jpg","68","2","random","68","random,structured_load,structured_incentive,structured_normal","3,4,2,1,2,3","true","",""
"null","","html-keyboard-response","257","218196","0.0-257.0","","<img src=""img/set1/S2.jpg"" width=""540"" height = ""360"" style=""border:16px solid orange"">","null","","","","","","","",""
"null","","html-keyboard-response","258","218399","0.0-258.0","","","null","","","","","","","",""
"490.39999997615814","","image-keyboard-response","259","218891","0.0-259.0","","img/set1/S2.jpg","68","2","random","68","random,structured_load,structured_incentive,structured_normal","3,4,2,1,2,3","true","",""
"null","","html-keyboard-response","260","219247","0.0-260.0","","<img src=""img/set1/S2.jpg"" width=""540"" height = ""360"" style=""border:16px solid orange"">","null","","","","","","","",""
"null","","html-keyboard-response","261","219450","0.0-261.0","","","null","","","","","","","",""
"631.6999999880791","","image-keyboard-response","262","220083","0.0-262.0","","img/set1/S4.jpg","74","4","random","74","random,structured_load,structured_incentive,structured_normal","3,4,2,1,2,3","true","",""
"null","","html-keyboard-response","263","220437","0.0-263.0","","<img src=""img/set1/S4.jpg"" width=""540"" height = ""360"" style=""border:16px solid orange"">","null","","","","","","","",""
"null","","html-keyboard-response","264","220640","0.0-264.0","","","null","","","","","","","",""
"577.3000000119209","","image-keyboard-response","265","221218","0.0-265.0","","img/set1/S2.jpg","68","2","random","68","random,structured_load,structured_incentive,structured_normal","3,4,2,1,2,3","true","",""
"null","","html-keyboard-response","266","221575","0.0-266.0","","<img src=""img/set1/S2.jpg"" width=""540"" height = ""360"" style=""border:16px solid orange"">","null","","","","","","","",""
"null","","html-keyboard-response","267","221777","0.0-267.0","","","null","","","","","","","",""
"632.5999999642372","","image-keyboard-response","268","222411","0.0-268.0","","img/set1/S1.jpg","83","1","random","83","random,structured_load,structured_incentive,structured_normal","3,4,2,1,2,3","true","",""
"null","","html-keyboard-response","269","222765","0.0-269.0","","<img src=""img/set1/S1.jpg"" width=""540"" height = ""360"" style=""border:16px solid orange"">","null","","","","","","","",""
"null","","html-keyboard-response","270","222968","0.0-270.0","","","null","","","","","","","",""
"618.5","","image-keyboard-response","271","223588","0.0-271.0","","img/set1/S3.jpg","72","3","random","72","random,structured_load,structured_incentive,structured_normal","3,4,2,1,2,3","true","",""
"null","","html-keyboard-response","272","223943","0.0-272.0","","<img src=""img/set1/S3.jpg"" width=""540"" height = ""360"" style=""border:16px solid orange"">","null","","","","","","","",""
"null","","html-keyboard-response","273","224146","0.0-273.0","","","null","","","","","","","",""
"503.4000000357628","","image-keyboard-response","274","224651","0.0-274.0","","img/set1/S3.jpg","72","3","random","72","random,structured_load,structured_incentive,structured_normal","3,4,2,1,2,3","true","",""
"null","","html-keyboard-response","275","225006","0.0-275.0","","<img src=""img/set1/S3.jpg"" width=""540"" height = ""360"" style=""border:16px solid orange"">","null","","","","","","","",""
"null","","html-keyboard-response","276","225209","0.0-276.0","","","null","","","","","","","",""
"929.7000000476837","","image-keyboard-response","277","226139","0.0-277.0","","img/set1/S2.jpg","83","2","random","68","random,structured_load,structured_incentive,structured_normal","3,4,2,1,2,3","false","",""
"null","","html-keyboard-response","278","226495","0.0-278.0","","<img src=""img/set1/S2.jpg"" width=""540"" height = ""360"">","null","","","","","","","",""
"null","","html-keyboard-response","279","226700","0.0-279.0","","","null","","","","","","","",""
"814.6000000238419","","image-keyboard-response","280","227516","0.0-280.0","","img/set1/S3.jpg","72","3","random","72","random,structured_load,structured_incentive,structured_normal","3,4,2,1,2,3","true","",""
"null","","html-keyboard-response","281","227873","0.0-281.0","","<img src=""img/set1/S3.jpg"" width=""540"" height = ""360"" style=""border:16px solid orange"">","null","","","","","","","",""
"null","","html-keyboard-response","282","228075","0.0-282.0","","","null","","","","","","","",""
"750.2999999523163","","image-keyboard-response","283","228827","0.0-283.0","","img/set1/S1.jpg","83","1","random","83","random,structured_load,structured_incentive,structured_normal","3,4,2,1,2,3","true","",""
"null","","html-keyboard-response","284","229183","0.0-284.0","","<img src=""img/set1/S1.jpg"" width=""540"" height = ""360"" style=""border:16px solid orange"">","null","","","","","","","",""
"null","","html-keyboard-response","285","229388","0.0-285.0","","","null","","","","","","","",""
"773.8000000119209","","image-keyboard-response","286","230163","0.0-286.0","","img/set1/S3.jpg","72","3","random","72","random,structured_load,structured_incentive,structured_normal","3,4,2,1,2,3","true","",""
"null","","html-keyboard-response","287","230518","0.0-287.0","","<img src=""img/set1/S3.jpg"" width=""540"" height = ""360"" style=""border:16px solid orange"">","null","","","","","","","",""
"null","","html-keyboard-response","288","230723","0.0-288.0","","","null","","","","","","","",""
"694.5","","image-keyboard-response","289","231419","0.0-289.0","","img/set1/S4.jpg","74","4","random","74","random,structured_load,structured_incentive,structured_normal","3,4,2,1,2,3","true","",""
"null","","html-keyboard-response","290","231773","0.0-290.0","","<img src=""img/set1/S4.jpg"" width=""540"" height = ""360"" style=""border:16px solid orange"">","null","","","","","","","",""
"null","","html-keyboard-response","291","231977","0.0-291.0","","","null","","","","","","","",""
"648.6000000238419","","image-keyboard-response","292","232627","0.0-292.0","","img/set1/S2.jpg","68","2","random","68","random,structured_load,structured_incentive,structured_normal","3,4,2,1,2,3","true","",""
"null","","html-keyboard-response","293","232982","0.0-293.0","","<img src=""img/set1/S2.jpg"" width=""540"" height = ""360"" style=""border:16px solid orange"">","null","","","","","","","",""
"null","","html-keyboard-response","294","233185","0.0-294.0","","","null","","","","","","","",""
"1890.4000000357628","","image-keyboard-response","295","235077","0.0-295.0","","img/set1/S3.jpg","72","3","random","72","random,structured_load,structured_incentive,structured_normal","3,4,2,1,2,3","true","",""
"null","","html-keyboard-response","296","235431","0.0-296.0","","<img src=""img/set1/S3.jpg"" width=""540"" height = ""360"" style=""border:16px solid orange"">","null","","","","","","","",""
"null","","html-keyboard-response","297","235635","0.0-297.0","","","null","","","","","","","",""
"581.9000000357628","","image-keyboard-response","298","236218","0.0-298.0","","img/set1/S2.jpg","68","2","random","68","random,structured_load,structured_incentive,structured_normal","3,4,2,1,2,3","true","",""
"null","","html-keyboard-response","299","236575","0.0-299.0","","<img src=""img/set1/S2.jpg"" width=""540"" height = ""360"" style=""border:16px solid orange"">","null","","","","","","","",""
"null","","html-keyboard-response","300","236778","0.0-300.0","","","null","","","","","","","",""
"591.2000000476837","","image-keyboard-response","301","237370","0.0-301.0","","img/set1/S4.jpg","74","4","random","74","random,structured_load,structured_incentive,structured_normal","3,4,2,1,2,3","true","",""
"null","","html-keyboard-response","302","237725","0.0-302.0","","<img src=""img/set1/S4.jpg"" width=""540"" height = ""360"" style=""border:16px solid orange"">","null","","","","","","","",""
"null","","html-keyboard-response","303","237931","0.0-303.0","","","null","","","","","","","",""
"631.2999999523163","","image-keyboard-response","304","238564","0.0-304.0","","img/set1/S4.jpg","74","4","random","74","random,structured_load,structured_incentive,structured_normal","3,4,2,1,2,3","true","",""
"null","","html-keyboard-response","305","238920","0.0-305.0","","<img src=""img/set1/S4.jpg"" width=""540"" height = ""360"" style=""border:16px solid orange"">","null","","","","","","","",""
"null","","html-keyboard-response","306","239123","0.0-306.0","","","null","","","","","","","",""
"432.10000002384186","","image-keyboard-response","307","239556","0.0-307.0","","img/set1/S4.jpg","74","4","random","74","random,structured_load,structured_incentive,structured_normal","3,4,2,1,2,3","true","",""
"null","","html-keyboard-response","308","239912","0.0-308.0","","<img src=""img/set1/S4.jpg"" width=""540"" height = ""360"" style=""border:16px solid orange"">","null","","","","","","","",""
"null","","html-keyboard-response","309","240115","0.0-309.0","","","null","","","","","","","",""
"856.7000000476837","","image-keyboard-response","310","240973","0.0-310.0","","img/set1/S1.jpg","83","1","random","83","random,structured_load,structured_incentive,structured_normal","3,4,2,1,2,3","true","",""
"null","","html-keyboard-response","311","241329","0.0-311.0","","<img src=""img/set1/S1.jpg"" width=""540"" height = ""360"" style=""border:16px solid orange"">","null","","","","","","","",""
"null","","html-keyboard-response","312","241532","0.0-312.0","","","null","","","","","","","",""
"709.1999999880791","","image-keyboard-response","313","242242","0.0-313.0","","img/set1/S4.jpg","74","4","random","74","random,structured_load,structured_incentive,structured_normal","3,4,2,1,2,3","true","",""
"null","","html-keyboard-response","314","242598","0.0-314.0","","<img src=""img/set1/S4.jpg"" width=""540"" height = ""360"" style=""border:16px solid orange"">","null","","","","","","","",""
"null","","html-keyboard-response","315","242803","0.0-315.0","","","null","","","","","","","",""
"805.6999999880791","","image-keyboard-response","316","243610","0.0-316.0","","img/set1/S3.jpg","72","3","random","72","random,structured_load,structured_incentive,structured_normal","3,4,2,1,2,3","true","",""
"null","","html-keyboard-response","317","243964","0.0-317.0","","<img src=""img/set1/S3.jpg"" width=""540"" height = ""360"" style=""border:16px solid orange"">","null","","","","","","","",""
"null","","html-keyboard-response","318","244167","0.0-318.0","","","null","","","","","","","",""
"593.6000000238419","","image-keyboard-response","319","244762","0.0-319.0","","img/set1/S4.jpg","74","4","random","74","random,structured_load,structured_incentive,structured_normal","3,4,2,1,2,3","true","",""
"null","","html-keyboard-response","320","245117","0.0-320.0","","<img src=""img/set1/S4.jpg"" width=""540"" height = ""360"" style=""border:16px solid orange"">","null","","","","","","","",""
"null","","html-keyboard-response","321","245322","0.0-321.0","","","null","","","","","","","",""
"982.8000000119209","","image-keyboard-response","322","246306","0.0-322.0","","img/set1/S1.jpg","83","1","random","83","random,structured_load,structured_incentive,structured_normal","3,4,2,1,2,3","true","",""
"null","","html-keyboard-response","323","246662","0.0-323.0","","<img src=""img/set1/S1.jpg"" width=""540"" height = ""360"" style=""border:16px solid orange"">","null","","","","","","","",""
"null","","html-keyboard-response","324","246867","0.0-324.0","","","null","","","","","","","",""
"702.1000000238419","","image-keyboard-response","325","247570","0.0-325.0","","img/set1/S2.jpg","68","2","random","68","random,structured_load,structured_incentive,structured_normal","3,4,2,1,2,3","true","",""
"null","","html-keyboard-response","326","247922","0.0-326.0","","<img src=""img/set1/S2.jpg"" width=""540"" height = ""360"" style=""border:16px solid orange"">","null","","","","","","","",""
"null","","html-keyboard-response","327","248127","0.0-327.0","","","null","","","","","","","",""
"1041.699999988079","","image-keyboard-response","328","249170","0.0-328.0","","img/set1/S4.jpg","74","4","random","74","random,structured_load,structured_incentive,structured_normal","3,4,2,1,2,3","true","",""
"null","","html-keyboard-response","329","249525","0.0-329.0","","<img src=""img/set1/S4.jpg"" width=""540"" height = ""360"" style=""border:16px solid orange"">","null","","","","","","","",""
"null","","html-keyboard-response","330","249728","0.0-330.0","","","null","","","","","","","",""
"1065.5999999642372","","image-keyboard-response","331","250795","0.0-331.0","","img/set1/S1.jpg","83","1","random","83","random,structured_load,structured_incentive,structured_normal","3,4,2,1,2,3","true","",""
"null","","html-keyboard-response","332","251151","0.0-332.0","","<img src=""img/set1/S1.jpg"" width=""540"" height = ""360"" style=""border:16px solid orange"">","null","","","","","","","",""
"null","","html-keyboard-response","333","251354","0.0-333.0","","","null","","","","","","","",""
"737.2999999523163","","image-keyboard-response","334","252092","0.0-334.0","","img/set1/S3.jpg","72","3","random","72","random,structured_load,structured_incentive,structured_normal","3,4,2,1,2,3","true","",""
"null","","html-keyboard-response","335","252449","0.0-335.0","","<img src=""img/set1/S3.jpg"" width=""540"" height = ""360"" style=""border:16px solid orange"">","null","","","","","","","",""
"null","","html-keyboard-response","336","252654","0.0-336.0","","","null","","","","","","","",""
"644","","image-keyboard-response","337","253299","0.0-337.0","","img/set1/S4.jpg","74","4","random","74","random,structured_load,structured_incentive,structured_normal","3,4,2,1,2,3","true","",""
"null","","html-keyboard-response","338","253652","0.0-338.0","","<img src=""img/set1/S4.jpg"" width=""540"" height = ""360"" style=""border:16px solid orange"">","null","","","","","","","",""
"null","","html-keyboard-response","339","253858","0.0-339.0","","","null","","","","","","","",""
"750.8999999761581","","image-keyboard-response","340","254610","0.0-340.0","","img/set1/S2.jpg","68","2","random","68","random,structured_load,structured_incentive,structured_normal","3,4,2,1,2,3","true","",""
"null","","html-keyboard-response","341","254964","0.0-341.0","","<img src=""img/set1/S2.jpg"" width=""540"" height = ""360"" style=""border:16px solid orange"">","null","","","","","","","",""
"null","","html-keyboard-response","342","255167","0.0-342.0","","","null","","","","","","","",""
"842","","image-keyboard-response","343","256010","0.0-343.0","","img/set1/S4.jpg","74","4","random","74","random,structured_load,structured_incentive,structured_normal","3,4,2,1,2,3","true","",""
"null","","html-keyboard-response","344","256368","0.0-344.0","","<img src=""img/set1/S4.jpg"" width=""540"" height = ""360"" style=""border:16px solid orange"">","null","","","","","","","",""
"null","","html-keyboard-response","345","256572","0.0-345.0","","","null","","","","","","","",""
"1139.6000000238419","","image-keyboard-response","346","257714","0.0-346.0","","img/set1/S2.jpg","68","2","random","68","random,structured_load,structured_incentive,structured_normal","3,4,2,1,2,3","true","",""
"null","","html-keyboard-response","347","258070","0.0-347.0","","<img src=""img/set1/S2.jpg"" width=""540"" height = ""360"" style=""border:16px solid orange"">","null","","","","","","","",""
"null","","html-keyboard-response","348","258273","0.0-348.0","","","null","","","","","","","",""
"728","","image-keyboard-response","349","259002","0.0-349.0","","img/set1/S3.jpg","72","3","random","72","random,structured_load,structured_incentive,structured_normal","3,4,2,1,2,3","true","",""
"null","","html-keyboard-response","350","259358","0.0-350.0","","<img src=""img/set1/S3.jpg"" width=""540"" height = ""360"" style=""border:16px solid orange"">","null","","","","","","","",""
"null","","html-keyboard-response","351","259562","0.0-351.0","","","null","","","","","","","",""
"430.80000001192093","","image-keyboard-response","352","259993","0.0-352.0","","img/set1/S3.jpg","72","3","random","72","random,structured_load,structured_incentive,structured_normal","3,4,2,1,2,3","true","",""
"null","","html-keyboard-response","353","260349","0.0-353.0","","<img src=""img/set1/S3.jpg"" width=""540"" height = ""360"" style=""border:16px solid orange"">","null","","","","","","","",""
"null","","html-keyboard-response","354","260554","0.0-354.0","","","null","","","","","","","",""
"375.30000001192093","","image-keyboard-response","355","260931","0.0-355.0","","img/set1/S3.jpg","72","3","random","72","random,structured_load,structured_incentive,structured_normal","3,4,2,1,2,3","true","",""
"null","","html-keyboard-response","356","261286","0.0-356.0","","<img src=""img/set1/S3.jpg"" width=""540"" height = ""360"" style=""border:16px solid orange"">","null","","","","","","","",""
"null","","html-keyboard-response","357","261489","0.0-357.0","","","null","","","","","","","",""
"679.3999999761581","","image-keyboard-response","358","262170","0.0-358.0","","img/set1/S2.jpg","68","2","random","68","random,structured_load,structured_incentive,structured_normal","3,4,2,1,2,3","true","",""
"null","","html-keyboard-response","359","262526","0.0-359.0","","<img src=""img/set1/S2.jpg"" width=""540"" height = ""360"" style=""border:16px solid orange"">","null","","","","","","","",""
"null","","html-keyboard-response","360","262731","0.0-360.0","","","null","","","","","","","",""
"645","","image-keyboard-response","361","263378","0.0-361.0","","img/set1/S4.jpg","74","4","random","74","random,structured_load,structured_incentive,structured_normal","3,4,2,1,2,3","true","",""
"null","","html-keyboard-response","362","263733","0.0-362.0","","<img src=""img/set1/S4.jpg"" width=""540"" height = ""360"" style=""border:16px solid orange"">","null","","","","","","","",""
"null","","html-keyboard-response","363","263939","0.0-363.0","","","null","","","","","","","",""
"3699.099999964237","","html-keyboard-response","364","267639","0.0-364.0","","<p class=""center-content"">You have completed a block! </p><p class=""center-content"">Press any key on the keyboard to continue, </p><p class=""center-content"">or wait for the automatic progression to the next block after one minute.</p>","32","","","","","","","",""
"4352.900000035763","","instructions","365","271992","0.0-365.0","[{""page_index"":0,""viewing_time"":4352.100000023842}]","","","","","","","","","",""
"33145.30000001192","","instructions","366","305138","0.0-366.0","[{""page_index"":0,""viewing_time"":31021.80000001192},{""page_index"":1,""viewing_time"":2123.100000023842}]","","","","","","","","","",""
"756.6999999880791","","image-keyboard-response","367","305896","0.0-367.0","","img/set2/S1.jpg","83","1","structured_load","83","random,structured_load,structured_incentive,structured_normal","3,4,2,1,2,3","true","",""
"null","","html-keyboard-response","368","306252","0.0-368.0","","<img src=""img/set2/S1.jpg"" width=""540"" height = ""360"" style=""border:16px solid orange"">","null","","","","","","","",""
"null","","html-keyboard-response","369","306457","0.0-369.0","","","null","","","","","","","",""
"414.19999998807907","","image-keyboard-response","370","306872","0.0-370.0","","img/set2/S1.jpg","83","1","structured_load","83","random,structured_load,structured_incentive,structured_normal","3,4,2,1,2,3","true","",""
"null","","html-keyboard-response","371","307225","0.0-371.0","","<img src=""img/set2/S1.jpg"" width=""540"" height = ""360"" style=""border:16px solid orange"">","null","","","","","","","",""
"null","","html-keyboard-response","372","307428","0.0-372.0","","","null","","","","","","","",""
"626.8000000119209","","image-keyboard-response","373","308056","0.0-373.0","","img/set2/S2.jpg","68","2","structured_load","68","random,structured_load,structured_incentive,structured_normal","3,4,2,1,2,3","true","",""
"null","","html-keyboard-response","374","308410","0.0-374.0","","<img src=""img/set2/S2.jpg"" width=""540"" height = ""360"" style=""border:16px solid orange"">","null","","","","","","","",""
"null","","html-keyboard-response","375","308613","0.0-375.0","","","null","","","","","","","",""
"603.3000000119209","","image-keyboard-response","376","309217","0.0-376.0","","img/set2/S3.jpg","72","3","structured_load","72","random,structured_load,structured_incentive,structured_normal","3,4,2,1,2,3","true","",""
"null","","html-keyboard-response","377","309570","0.0-377.0","","<img src=""img/set2/S3.jpg"" width=""540"" height = ""360"" style=""border:16px solid orange"">","null","","","","","","","",""
"null","","html-keyboard-response","378","309773","0.0-378.0","","","null","","","","","","","",""
"729.8000000119209","","image-keyboard-response","379","310504","0.0-379.0","","img/set2/S4.jpg","74","4","structured_load","74","random,structured_load,structured_incentive,structured_normal","3,4,2,1,2,3","true","",""
"null","","html-keyboard-response","380","310859","0.0-380.0","","<img src=""img/set2/S4.jpg"" width=""540"" height = ""360"" style=""border:16px solid orange"">","null","","","","","","","",""
"null","","html-keyboard-response","381","311063","0.0-381.0","","","null","","","","","","","",""
"1143.300000011921","","image-keyboard-response","382","312208","0.0-382.0","","img/set2/S2.jpg","68","2","structured_load","68","random,structured_load,structured_incentive,structured_normal","3,4,2,1,2,3","true","",""
"null","","html-keyboard-response","383","312563","0.0-383.0","","<img src=""img/set2/S2.jpg"" width=""540"" height = ""360"" style=""border:16px solid orange"">","null","","","","","","","",""
"null","","html-keyboard-response","384","312769","0.0-384.0","","","null","","","","","","","",""
"446.30000001192093","","image-keyboard-response","385","313216","0.0-385.0","","img/set2/S2.jpg","68","2","structured_load","68","random,structured_load,structured_incentive,structured_normal","3,4,2,1,2,3","true","",""
"null","","html-keyboard-response","386","313573","0.0-386.0","","<img src=""img/set2/S2.jpg"" width=""540"" height = ""360"" style=""border:16px solid orange"">","null","","","","","","","",""
"null","","html-keyboard-response","387","313777","0.0-387.0","","","null","","","","","","","",""
"589.6999999880791","","image-keyboard-response","388","314367","0.0-388.0","","img/set2/S1.jpg","83","1","structured_load","83","random,structured_load,structured_incentive,structured_normal","3,4,2,1,2,3","true","",""
"null","","html-keyboard-response","389","314723","0.0-389.0","","<img src=""img/set2/S1.jpg"" width=""540"" height = ""360"" style=""border:16px solid orange"">","null","","","","","","","",""
"null","","html-keyboard-response","390","314928","0.0-390.0","","","null","","","","","","","",""
"462.89999997615814","","image-keyboard-response","391","315392","0.0-391.0","","img/set2/S1.jpg","83","1","structured_load","83","random,structured_load,structured_incentive,structured_normal","3,4,2,1,2,3","true","",""
"null","","html-keyboard-response","392","315747","0.0-392.0","","<img src=""img/set2/S1.jpg"" width=""540"" height = ""360"" style=""border:16px solid orange"">","null","","","","","","","",""
"null","","html-keyboard-response","393","315950","0.0-393.0","","","null","","","","","","","",""
"968.5999999642372","","image-keyboard-response","394","316920","0.0-394.0","","img/set2/S3.jpg","74","3","structured_load","72","random,structured_load,structured_incentive,structured_normal","3,4,2,1,2,3","false","",""
"null","","html-keyboard-response","395","317274","0.0-395.0","","<img src=""img/set2/S3.jpg"" width=""540"" height = ""360"">","null","","","","","","","",""
"null","","html-keyboard-response","396","317476","0.0-396.0","","","null","","","","","","","",""
"948","","image-keyboard-response","397","318426","0.0-397.0","","img/set2/S4.jpg","74","4","structured_load","74","random,structured_load,structured_incentive,structured_normal","3,4,2,1,2,3","true","",""
"null","","html-keyboard-response","398","318783","0.0-398.0","","<img src=""img/set2/S4.jpg"" width=""540"" height = ""360"" style=""border:16px solid orange"">","null","","","","","","","",""
"null","","html-keyboard-response","399","318986","0.0-399.0","","","null","","","","","","","",""
"468.5","","image-keyboard-response","400","319455","0.0-400.0","","img/set2/S3.jpg","72","3","structured_load","72","random,structured_load,structured_incentive,structured_normal","3,4,2,1,2,3","true","",""
"null","","html-keyboard-response","401","319810","0.0-401.0","","<img src=""img/set2/S3.jpg"" width=""540"" height = ""360"" style=""border:16px solid orange"">","null","","","","","","","",""
"null","","html-keyboard-response","402","320018","0.0-402.0","","","null","","","","","","","",""
"636.3999999761581","","image-keyboard-response","403","320655","0.0-403.0","","img/set2/S4.jpg","74","4","structured_load","74","random,structured_load,structured_incentive,structured_normal","3,4,2,1,2,3","true","",""
"null","","html-keyboard-response","404","321011","0.0-404.0","","<img src=""img/set2/S4.jpg"" width=""540"" height = ""360"" style=""border:16px solid orange"">","null","","","","","","","",""
"null","","html-keyboard-response","405","321215","0.0-405.0","","","null","","","","","","","",""
"671.7999999523163","","image-keyboard-response","406","321888","0.0-406.0","","img/set2/S1.jpg","83","1","structured_load","83","random,structured_load,structured_incentive,structured_normal","3,4,2,1,2,3","true","",""
"null","","html-keyboard-response","407","322242","0.0-407.0","","<img src=""img/set2/S1.jpg"" width=""540"" height = ""360"" style=""border:16px solid orange"">","null","","","","","","","",""
"null","","html-keyboard-response","408","322447","0.0-408.0","","","null","","","","","","","",""
"439.30000001192093","","image-keyboard-response","409","322887","0.0-409.0","","img/set2/S1.jpg","83","1","structured_load","83","random,structured_load,structured_incentive,structured_normal","3,4,2,1,2,3","true","",""
"null","","html-keyboard-response","410","323241","0.0-410.0","","<img src=""img/set2/S1.jpg"" width=""540"" height = ""360"" style=""border:16px solid orange"">","null","","","","","","","",""
"null","","html-keyboard-response","411","323443","0.0-411.0","","","null","","","","","","","",""
"763.5","","image-keyboard-response","412","324208","0.0-412.0","","img/set2/S3.jpg","72","3","structured_load","72","random,structured_load,structured_incentive,structured_normal","3,4,2,1,2,3","true","",""
"null","","html-keyboard-response","413","324564","0.0-413.0","","<img src=""img/set2/S3.jpg"" width=""540"" height = ""360"" style=""border:16px solid orange"">","null","","","","","","","",""
"null","","html-keyboard-response","414","324767","0.0-414.0","","","null","","","","","","","",""
"743.6000000238419","","image-keyboard-response","415","325512","0.0-415.0","","img/set2/S4.jpg","74","4","structured_load","74","random,structured_load,structured_incentive,structured_normal","3,4,2,1,2,3","true","",""
"null","","html-keyboard-response","416","325869","0.0-416.0","","<img src=""img/set2/S4.jpg"" width=""540"" height = ""360"" style=""border:16px solid orange"">","null","","","","","","","",""
"null","","html-keyboard-response","417","326073","0.0-417.0","","","null","","","","","","","",""
"701.3000000119209","","image-keyboard-response","418","326776","0.0-418.0","","img/set2/S2.jpg","68","2","structured_load","68","random,structured_load,structured_incentive,structured_normal","3,4,2,1,2,3","true","",""
"null","","html-keyboard-response","419","327131","0.0-419.0","","<img src=""img/set2/S2.jpg"" width=""540"" height = ""360"" style=""border:16px solid orange"">","null","","","","","","","",""
"null","","html-keyboard-response","420","327333","0.0-420.0","","","null","","","","","","","",""
"393.2000000476837","","image-keyboard-response","421","327727","0.0-421.0","","img/set2/S2.jpg","68","2","structured_load","68","random,structured_load,structured_incentive,structured_normal","3,4,2,1,2,3","true","",""
"null","","html-keyboard-response","422","328082","0.0-422.0","","<img src=""img/set2/S2.jpg"" width=""540"" height = ""360"" style=""border:16px solid orange"">","null","","","","","","","",""
"null","","html-keyboard-response","423","328285","0.0-423.0","","","null","","","","","","","",""
"1161.699999988079","","image-keyboard-response","424","329448","0.0-424.0","","img/set2/S3.jpg","72","3","structured_load","72","random,structured_load,structured_incentive,structured_normal","3,4,2,1,2,3","true","",""
"null","","html-keyboard-response","425","329800","0.0-425.0","","<img src=""img/set2/S3.jpg"" width=""540"" height = ""360"" style=""border:16px solid orange"">","null","","","","","","","",""
"null","","html-keyboard-response","426","330004","0.0-426.0","","","null","","","","","","","",""
"466.80000001192093","","image-keyboard-response","427","330472","0.0-427.0","","img/set2/S4.jpg","74","4","structured_load","74","random,structured_load,structured_incentive,structured_normal","3,4,2,1,2,3","true","",""
"null","","html-keyboard-response","428","330827","0.0-428.0","","<img src=""img/set2/S4.jpg"" width=""540"" height = ""360"" style=""border:16px solid orange"">","null","","","","","","","",""
"null","","html-keyboard-response","429","331032","0.0-429.0","","","null","","","","","","","",""
"734.4000000357628","","image-keyboard-response","430","331768","0.0-430.0","","img/set2/S1.jpg","83","1","structured_load","83","random,structured_load,structured_incentive,structured_normal","3,4,2,1,2,3","true","",""
"null","","html-keyboard-response","431","332123","0.0-431.0","","<img src=""img/set2/S1.jpg"" width=""540"" height = ""360"" style=""border:16px solid orange"">","null","","","","","","","",""
"null","","html-keyboard-response","432","332325","0.0-432.0","","","null","","","","","","","",""
"393.10000002384186","","image-keyboard-response","433","332719","0.0-433.0","","img/set2/S1.jpg","83","1","structured_load","83","random,structured_load,structured_incentive,structured_normal","3,4,2,1,2,3","true","",""
"null","","html-keyboard-response","434","333074","0.0-434.0","","<img src=""img/set2/S1.jpg"" width=""540"" height = ""360"" style=""border:16px solid orange"">","null","","","","","","","",""
"null","","html-keyboard-response","435","333277","0.0-435.0","","","null","","","","","","","",""
"null","","image-keyboard-response","436","335783","0.0-436.0","","img/set2/S3.jpg","null","3","structured_load","72","random,structured_load,structured_incentive,structured_normal","3,4,2,1,2,3","false","",""
"null","","html-keyboard-response","437","336140","0.0-437.0","","<img src=""img/set2/S3.jpg"" width=""540"" height = ""360"">","null","","","","","","","",""
"null","","html-keyboard-response","438","336342","0.0-438.0","","","null","","","","","","","",""
"945.8999999761581","","image-keyboard-response","439","337289","0.0-439.0","","img/set2/S4.jpg","74","4","structured_load","74","random,structured_load,structured_incentive,structured_normal","3,4,2,1,2,3","true","",""
"null","","html-keyboard-response","440","337643","0.0-440.0","","<img src=""img/set2/S4.jpg"" width=""540"" height = ""360"" style=""border:16px solid orange"">","null","","","","","","","",""
"null","","html-keyboard-response","441","337846","0.0-441.0","","","null","","","","","","","",""
"1674.6000000238419","","image-keyboard-response","442","339522","0.0-442.0","","img/set2/S3.jpg","72","3","structured_load","72","random,structured_load,structured_incentive,structured_normal","3,4,2,1,2,3","true","",""
"null","","html-keyboard-response","443","339878","0.0-443.0","","<img src=""img/set2/S3.jpg"" width=""540"" height = ""360"" style=""border:16px solid orange"">","null","","","","","","","",""
"null","","html-keyboard-response","444","340080","0.0-444.0","","","null","","","","","","","",""
"729.5","","image-keyboard-response","445","340811","0.0-445.0","","img/set2/S4.jpg","74","4","structured_load","74","random,structured_load,structured_incentive,structured_normal","3,4,2,1,2,3","true","",""
"null","","html-keyboard-response","446","341166","0.0-446.0","","<img src=""img/set2/S4.jpg"" width=""540"" height = ""360"" style=""border:16px solid orange"">","null","","","","","","","",""
"null","","html-keyboard-response","447","341369","0.0-447.0","","","null","","","","","","","",""
"1726.6000000238419","","image-keyboard-response","448","343097","0.0-448.0","","img/set2/S2.jpg","68","2","structured_load","68","random,structured_load,structured_incentive,structured_normal","3,4,2,1,2,3","true","",""
"null","","html-keyboard-response","449","343453","0.0-449.0","","<img src=""img/set2/S2.jpg"" width=""540"" height = ""360"" style=""border:16px solid orange"">","null","","","","","","","",""
"null","","html-keyboard-response","450","343659","0.0-450.0","","","null","","","","","","","",""
"596.0999999642372","","image-keyboard-response","451","344257","0.0-451.0","","img/set2/S2.jpg","68","2","structured_load","68","random,structured_load,structured_incentive,structured_normal","3,4,2,1,2,3","true","",""
"null","","html-keyboard-response","452","344612","0.0-452.0","","<img src=""img/set2/S2.jpg"" width=""540"" height = ""360"" style=""border:16px solid orange"">","null","","","","","","","",""
"null","","html-keyboard-response","453","344817","0.0-453.0","","","null","","","","","","","",""
"1302.7999999523163","","image-keyboard-response","454","346121","0.0-454.0","","img/set2/S3.jpg","74","3","structured_load","72","random,structured_load,structured_incentive,structured_normal","3,4,2,1,2,3","false","",""
"null","","html-keyboard-response","455","346478","0.0-455.0","","<img src=""img/set2/S3.jpg"" width=""540"" height = ""360"">","null","","","","","","","",""
"null","","html-keyboard-response","456","346680","0.0-456.0","","","null","","","","","","","",""
"null","","image-keyboard-response","457","349184","0.0-457.0","","img/set2/S4.jpg","null","4","structured_load","74","random,structured_load,structured_incentive,structured_normal","3,4,2,1,2,3","false","",""
"null","","html-keyboard-response","458","349541","0.0-458.0","","<img src=""img/set2/S4.jpg"" width=""540"" height = ""360"">","null","","","","","","","",""
"null","","html-keyboard-response","459","349746","0.0-459.0","","","null","","","","","","","",""
"43.69999998807907","","image-keyboard-response","460","349791","0.0-460.0","","img/set2/S1.jpg","74","1","structured_load","83","random,structured_load,structured_incentive,structured_normal","3,4,2,1,2,3","false","",""
"null","","html-keyboard-response","461","350146","0.0-461.0","","<img src=""img/set2/S1.jpg"" width=""540"" height = ""360"">","null","","","","","","","",""
"null","","html-keyboard-response","462","350349","0.0-462.0","","","null","","","","","","","",""
"566.5","","image-keyboard-response","463","350917","0.0-463.0","","img/set2/S1.jpg","83","1","structured_load","83","random,structured_load,structured_incentive,structured_normal","3,4,2,1,2,3","true","",""
"null","","html-keyboard-response","464","351272","0.0-464.0","","<img src=""img/set2/S1.jpg"" width=""540"" height = ""360"" style=""border:16px solid orange"">","null","","","","","","","",""
"null","","html-keyboard-response","465","351475","0.0-465.0","","","null","","","","","","","",""
"559.8999999761581","","image-keyboard-response","466","352037","0.0-466.0","","img/set2/S1.jpg","83","1","structured_load","83","random,structured_load,structured_incentive,structured_normal","3,4,2,1,2,3","true","",""
"null","","html-keyboard-response","467","352393","0.0-467.0","","<img src=""img/set2/S1.jpg"" width=""540"" height = ""360"" style=""border:16px solid orange"">","null","","","","","","","",""
"null","","html-keyboard-response","468","352596","0.0-468.0","","","null","","","","","","","",""
"721.1000000238419","","image-keyboard-response","469","353318","0.0-469.0","","img/set2/S2.jpg","68","2","structured_load","68","random,structured_load,structured_incentive,structured_normal","3,4,2,1,2,3","true","",""
"null","","html-keyboard-response","470","353675","0.0-470.0","","<img src=""img/set2/S2.jpg"" width=""540"" height = ""360"" style=""border:16px solid orange"">","null","","","","","","","",""
"null","","html-keyboard-response","471","353879","0.0-471.0","","","null","","","","","","","",""
"668.9000000357628","","image-keyboard-response","472","354549","0.0-472.0","","img/set2/S1.jpg","83","1","structured_load","83","random,structured_load,structured_incentive,structured_normal","3,4,2,1,2,3","true","",""
"null","","html-keyboard-response","473","354904","0.0-473.0","","<img src=""img/set2/S1.jpg"" width=""540"" height = ""360"" style=""border:16px solid orange"">","null","","","","","","","",""
"null","","html-keyboard-response","474","355109","0.0-474.0","","","null","","","","","","","",""
"830.3000000119209","","image-keyboard-response","475","355940","0.0-475.0","","img/set2/S2.jpg","68","2","structured_load","68","random,structured_load,structured_incentive,structured_normal","3,4,2,1,2,3","true","",""
"null","","html-keyboard-response","476","356293","0.0-476.0","","<img src=""img/set2/S2.jpg"" width=""540"" height = ""360"" style=""border:16px solid orange"">","null","","","","","","","",""
"null","","html-keyboard-response","477","356499","0.0-477.0","","","null","","","","","","","",""
"856.3000000119209","","image-keyboard-response","478","357356","0.0-478.0","","img/set2/S1.jpg","83","1","structured_load","83","random,structured_load,structured_incentive,structured_normal","3,4,2,1,2,3","true","",""
"null","","html-keyboard-response","479","357713","0.0-479.0","","<img src=""img/set2/S1.jpg"" width=""540"" height = ""360"" style=""border:16px solid orange"">","null","","","","","","","",""
"null","","html-keyboard-response","480","357919","0.0-480.0","","","null","","","","","","","",""
"1797.6000000238419","","image-keyboard-response","481","359718","0.0-481.0","","img/set2/S3.jpg","72","3","structured_load","72","random,structured_load,structured_incentive,structured_normal","3,4,2,1,2,3","true","",""
"null","","html-keyboard-response","482","360073","0.0-482.0","","<img src=""img/set2/S3.jpg"" width=""540"" height = ""360"" style=""border:16px solid orange"">","null","","","","","","","",""
"null","","html-keyboard-response","483","360276","0.0-483.0","","","null","","","","","","","",""
"663.8000000119209","","image-keyboard-response","484","360941","0.0-484.0","","img/set2/S4.jpg","74","4","structured_load","74","random,structured_load,structured_incentive,structured_normal","3,4,2,1,2,3","true","",""
"null","","html-keyboard-response","485","361295","0.0-485.0","","<img src=""img/set2/S4.jpg"" width=""540"" height = ""360"" style=""border:16px solid orange"">","null","","","","","","","",""
"null","","html-keyboard-response","486","361500","0.0-486.0","","","null","","","","","","","",""
"null","","image-keyboard-response","487","364006","0.0-487.0","","img/set2/S1.jpg","null","1","structured_load","83","random,structured_load,structured_incentive,structured_normal","3,4,2,1,2,3","false","",""
"null","","html-keyboard-response","488","364362","0.0-488.0","","<img src=""img/set2/S1.jpg"" width=""540"" height = ""360"">","null","","","","","","","",""
"null","","html-keyboard-response","489","364565","0.0-489.0","","","null","","","","","","","",""
"null","","image-keyboard-response","490","367071","0.0-490.0","","img/set2/S3.jpg","null","3","structured_load","72","random,structured_load,structured_incentive,structured_normal","3,4,2,1,2,3","false","",""
"null","","html-keyboard-response","491","367427","0.0-491.0","","<img src=""img/set2/S3.jpg"" width=""540"" height = ""360"">","null","","","","","","","",""
"null","","html-keyboard-response","492","367630","0.0-492.0","","","null","","","","","","","",""
"978.6999999880791","","image-keyboard-response","493","368610","0.0-493.0","","img/set2/S4.jpg","74","4","structured_load","74","random,structured_load,structured_incentive,structured_normal","3,4,2,1,2,3","true","",""
"null","","html-keyboard-response","494","368965","0.0-494.0","","<img src=""img/set2/S4.jpg"" width=""540"" height = ""360"" style=""border:16px solid orange"">","null","","","","","","","",""
"null","","html-keyboard-response","495","369171","0.0-495.0","","","null","","","","","","","",""
"null","","image-keyboard-response","496","371676","0.0-496.0","","img/set2/S3.jpg","null","3","structured_load","72","random,structured_load,structured_incentive,structured_normal","3,4,2,1,2,3","false","",""
"null","","html-keyboard-response","497","372030","0.0-497.0","","<img src=""img/set2/S3.jpg"" width=""540"" height = ""360"">","null","","","","","","","",""
"null","","html-keyboard-response","498","372234","0.0-498.0","","","null","","","","","","","",""
"919.1000000238419","","image-keyboard-response","499","373154","0.0-499.0","","img/set2/S4.jpg","74","4","structured_load","74","random,structured_load,structured_incentive,structured_normal","3,4,2,1,2,3","true","",""
"null","","html-keyboard-response","500","373510","0.0-500.0","","<img src=""img/set2/S4.jpg"" width=""540"" height = ""360"" style=""border:16px solid orange"">","null","","","","","","","",""
"null","","html-keyboard-response","501","373714","0.0-501.0","","","null","","","","","","","",""
"838.3000000119209","","image-keyboard-response","502","374554","0.0-502.0","","img/set2/S3.jpg","72","3","structured_load","72","random,structured_load,structured_incentive,structured_normal","3,4,2,1,2,3","true","",""
"null","","html-keyboard-response","503","374910","0.0-503.0","","<img src=""img/set2/S3.jpg"" width=""540"" height = ""360"" style=""border:16px solid orange"">","null","","","","","","","",""
"null","","html-keyboard-response","504","375113","0.0-504.0","","","null","","","","","","","",""
"735.5","","image-keyboard-response","505","375850","0.0-505.0","","img/set2/S4.jpg","74","4","structured_load","74","random,structured_load,structured_incentive,structured_normal","3,4,2,1,2,3","true","",""
"null","","html-keyboard-response","506","376204","0.0-506.0","","<img src=""img/set2/S4.jpg"" width=""540"" height = ""360"" style=""border:16px solid orange"">","null","","","","","","","",""
"null","","html-keyboard-response","507","376407","0.0-507.0","","","null","","","","","","","",""
"736.8999999761581","","image-keyboard-response","508","377146","0.0-508.0","","img/set2/S1.jpg","83","1","structured_load","83","random,structured_load,structured_incentive,structured_normal","3,4,2,1,2,3","true","",""
"null","","html-keyboard-response","509","377502","0.0-509.0","","<img src=""img/set2/S1.jpg"" width=""540"" height = ""360"" style=""border:16px solid orange"">","null","","","","","","","",""
"null","","html-keyboard-response","510","377707","0.0-510.0","","","null","","","","","","","",""
"null","","image-keyboard-response","511","380213","0.0-511.0","","img/set2/S1.jpg","null","1","structured_load","83","random,structured_load,structured_incentive,structured_normal","3,4,2,1,2,3","false","",""
"null","","html-keyboard-response","512","380569","0.0-512.0","","<img src=""img/set2/S1.jpg"" width=""540"" height = ""360"">","null","","","","","","","",""
"null","","html-keyboard-response","513","380773","0.0-513.0","","","null","","","","","","","",""
"1010.1999999880791","","image-keyboard-response","514","381784","0.0-514.0","","img/set2/S1.jpg","83","1","structured_load","83","random,structured_load,structured_incentive,structured_normal","3,4,2,1,2,3","true","",""
"null","","html-keyboard-response","515","382140","0.0-515.0","","<img src=""img/set2/S1.jpg"" width=""540"" height = ""360"" style=""border:16px solid orange"">","null","","","","","","","",""
"null","","html-keyboard-response","516","382345","0.0-516.0","","","null","","","","","","","",""
"532.6000000238419","","image-keyboard-response","517","382880","0.0-517.0","","img/set2/S1.jpg","83","1","structured_load","83","random,structured_load,structured_incentive,structured_normal","3,4,2,1,2,3","true","",""
"null","","html-keyboard-response","518","383234","0.0-518.0","","<img src=""img/set2/S1.jpg"" width=""540"" height = ""360"" style=""border:16px solid orange"">","null","","","","","","","",""
"null","","html-keyboard-response","519","383437","0.0-519.0","","","null","","","","","","","",""
"1617.8999999761581","","image-keyboard-response","520","385056","0.0-520.0","","img/set2/S2.jpg","68","2","structured_load","68","random,structured_load,structured_incentive,structured_normal","3,4,2,1,2,3","true","",""
"null","","html-keyboard-response","521","385412","0.0-521.0","","<img src=""img/set2/S2.jpg"" width=""540"" height = ""360"" style=""border:16px solid orange"">","null","","","","","","","",""
"null","","html-keyboard-response","522","385617","0.0-522.0","","","null","","","","","","","",""
"1780.800000011921","","image-keyboard-response","523","387399","0.0-523.0","","img/set2/S3.jpg","72","3","structured_load","72","random,structured_load,structured_incentive,structured_normal","3,4,2,1,2,3","true","",""
"null","","html-keyboard-response","524","387756","0.0-524.0","","<img src=""img/set2/S3.jpg"" width=""540"" height = ""360"" style=""border:16px solid orange"">","null","","","","","","","",""
"null","","html-keyboard-response","525","387959","0.0-525.0","","","null","","","","","","","",""
"607.2000000476837","","image-keyboard-response","526","388567","0.0-526.0","","img/set2/S4.jpg","74","4","structured_load","74","random,structured_load,structured_incentive,structured_normal","3,4,2,1,2,3","true","",""
"null","","html-keyboard-response","527","388923","0.0-527.0","","<img src=""img/set2/S4.jpg"" width=""540"" height = ""360"" style=""border:16px solid orange"">","null","","","","","","","",""
"null","","html-keyboard-response","528","389126","0.0-528.0","","","null","","","","","","","",""
"888","","image-keyboard-response","529","390015","0.0-529.0","","img/set2/S1.jpg","83","1","structured_load","83","random,structured_load,structured_incentive,structured_normal","3,4,2,1,2,3","true","",""
"null","","html-keyboard-response","530","390372","0.0-530.0","","<img src=""img/set2/S1.jpg"" width=""540"" height = ""360"" style=""border:16px solid orange"">","null","","","","","","","",""
"null","","html-keyboard-response","531","390576","0.0-531.0","","","null","","","","","","","",""
"2037.3999999761581","","image-keyboard-response","532","392615","0.0-532.0","","img/set2/S1.jpg","68","1","structured_load","83","random,structured_load,structured_incentive,structured_normal","3,4,2,1,2,3","false","",""
"null","","html-keyboard-response","533","392969","0.0-533.0","","<img src=""img/set2/S1.jpg"" width=""540"" height = ""360"">","null","","","","","","","",""
"null","","html-keyboard-response","534","393171","0.0-534.0","","","null","","","","","","","",""
"642.6000000238419","","image-keyboard-response","535","393815","0.0-535.0","","img/set2/S2.jpg","68","2","structured_load","68","random,structured_load,structured_incentive,structured_normal","3,4,2,1,2,3","true","",""
"null","","html-keyboard-response","536","394170","0.0-536.0","","<img src=""img/set2/S2.jpg"" width=""540"" height = ""360"" style=""border:16px solid orange"">","null","","","","","","","",""
"null","","html-keyboard-response","537","394373","0.0-537.0","","","null","","","","","","","",""
"null","","image-keyboard-response","538","396878","0.0-538.0","","img/set2/S3.jpg","null","3","structured_load","72","random,structured_load,structured_incentive,structured_normal","3,4,2,1,2,3","false","",""
"null","","html-keyboard-response","539","397233","0.0-539.0","","<img src=""img/set2/S3.jpg"" width=""540"" height = ""360"">","null","","","","","","","",""
"null","","html-keyboard-response","540","397438","0.0-540.0","","","null","","","","","","","",""
"2106.399999976158","","image-keyboard-response","541","399546","0.0-541.0","","img/set2/S4.jpg","74","4","structured_load","74","random,structured_load,structured_incentive,structured_normal","3,4,2,1,2,3","true","",""
"null","","html-keyboard-response","542","399902","0.0-542.0","","<img src=""img/set2/S4.jpg"" width=""540"" height = ""360"" style=""border:16px solid orange"">","null","","","","","","","",""
"null","","html-keyboard-response","543","400107","0.0-543.0","","","null","","","","","","","",""
"661.1000000238419","","image-keyboard-response","544","400769","0.0-544.0","","img/set2/S3.jpg","72","3","structured_load","72","random,structured_load,structured_incentive,structured_normal","3,4,2,1,2,3","true","",""
"null","","html-keyboard-response","545","401124","0.0-545.0","","<img src=""img/set2/S3.jpg"" width=""540"" height = ""360"" style=""border:16px solid orange"">","null","","","","","","","",""
"null","","html-keyboard-response","546","401327","0.0-546.0","","","null","","","","","","","",""
"null","","image-keyboard-response","547","403833","0.0-547.0","","img/set2/S4.jpg","null","4","structured_load","74","random,structured_load,structured_incentive,structured_normal","3,4,2,1,2,3","false","",""
"null","","html-keyboard-response","548","404189","0.0-548.0","","<img src=""img/set2/S4.jpg"" width=""540"" height = ""360"">","null","","","","","","","",""
"null","","html-keyboard-response","549","404393","0.0-549.0","","","null","","","","","","","",""
"1489.3999999761581","","image-keyboard-response","550","405884","0.0-550.0","","img/set2/S2.jpg","68","2","structured_load","68","random,structured_load,structured_incentive,structured_normal","3,4,2,1,2,3","true","",""
"null","","html-keyboard-response","551","406238","0.0-551.0","","<img src=""img/set2/S2.jpg"" width=""540"" height = ""360"" style=""border:16px solid orange"">","null","","","","","","","",""
"null","","html-keyboard-response","552","406442","0.0-552.0","","","null","","","","","","","",""
"null","","image-keyboard-response","553","408947","0.0-553.0","","img/set2/S3.jpg","null","3","structured_load","72","random,structured_load,structured_incentive,structured_normal","3,4,2,1,2,3","false","",""
"null","","html-keyboard-response","554","409304","0.0-554.0","","<img src=""img/set2/S3.jpg"" width=""540"" height = ""360"">","null","","","","","","","",""
"null","","html-keyboard-response","555","409506","0.0-555.0","","","null","","","","","","","",""
"null","","image-keyboard-response","556","412012","0.0-556.0","","img/set2/S4.jpg","null","4","structured_load","74","random,structured_load,structured_incentive,structured_normal","3,4,2,1,2,3","false","",""
"null","","html-keyboard-response","557","412368","0.0-557.0","","<img src=""img/set2/S4.jpg"" width=""540"" height = ""360"">","null","","","","","","","",""
"null","","html-keyboard-response","558","412571","0.0-558.0","","","null","","","","","","","",""
"1726.7999999523163","","image-keyboard-response","559","414299","0.0-559.0","","img/set2/S3.jpg","72","3","structured_load","72","random,structured_load,structured_incentive,structured_normal","3,4,2,1,2,3","true","",""
"null","","html-keyboard-response","560","414653","0.0-560.0","","<img src=""img/set2/S3.jpg"" width=""540"" height = ""360"" style=""border:16px solid orange"">","null","","","","","","","",""
"null","","html-keyboard-response","561","414858","0.0-561.0","","","null","","","","","","","",""
"543.7999999523163","","image-keyboard-response","562","415403","0.0-562.0","","img/set2/S4.jpg","74","4","structured_load","74","random,structured_load,structured_incentive,structured_normal","3,4,2,1,2,3","true","",""
"null","","html-keyboard-response","563","415758","0.0-563.0","","<img src=""img/set2/S4.jpg"" width=""540"" height = ""360"" style=""border:16px solid orange"">","null","","","","","","","",""
"null","","html-keyboard-response","564","415961","0.0-564.0","","","null","","","","","","","",""
"1631","","image-keyboard-response","565","417594","0.0-565.0","","img/set2/S1.jpg","83","1","structured_load","83","random,structured_load,structured_incentive,structured_normal","3,4,2,1,2,3","true","",""
"null","","html-keyboard-response","566","417950","0.0-566.0","","<img src=""img/set2/S1.jpg"" width=""540"" height = ""360"" style=""border:16px solid orange"">","null","","","","","","","",""
"null","","html-keyboard-response","567","418156","0.0-567.0","","","null","","","","","","","",""
"1045.800000011921","","image-keyboard-response","568","419203","0.0-568.0","","img/set2/S1.jpg","83","1","structured_load","83","random,structured_load,structured_incentive,structured_normal","3,4,2,1,2,3","true","",""
"null","","html-keyboard-response","569","419559","0.0-569.0","","<img src=""img/set2/S1.jpg"" width=""540"" height = ""360"" style=""border:16px solid orange"">","null","","","","","","","",""
"null","","html-keyboard-response","570","419764","0.0-570.0","","","null","","","","","","","",""
"2094","","image-keyboard-response","571","421859","0.0-571.0","","img/set2/S3.jpg","72","3","structured_load","72","random,structured_load,structured_incentive,structured_normal","3,4,2,1,2,3","true","",""
"null","","html-keyboard-response","572","422213","0.0-572.0","","<img src=""img/set2/S3.jpg"" width=""540"" height = ""360"" style=""border:16px solid orange"">","null","","","","","","","",""
"null","","html-keyboard-response","573","422417","0.0-573.0","","","null","","","","","","","",""
"null","","image-keyboard-response","574","424923","0.0-574.0","","img/set2/S4.jpg","null","4","structured_load","74","random,structured_load,structured_incentive,structured_normal","3,4,2,1,2,3","false","",""
"null","","html-keyboard-response","575","425279","0.0-575.0","","<img src=""img/set2/S4.jpg"" width=""540"" height = ""360"">","null","","","","","","","",""
"null","","html-keyboard-response","576","425482","0.0-576.0","","","null","","","","","","","",""
"1903.4000000357628","","image-keyboard-response","577","427386","0.0-577.0","","img/set2/S2.jpg","68","2","structured_load","68","random,structured_load,structured_incentive,structured_normal","3,4,2,1,2,3","true","",""
"null","","html-keyboard-response","578","427740","0.0-578.0","","<img src=""img/set2/S2.jpg"" width=""540"" height = ""360"" style=""border:16px solid orange"">","null","","","","","","","",""
"null","","html-keyboard-response","579","427942","0.0-579.0","","","null","","","","","","","",""
"802.7000000476837","","image-keyboard-response","580","428746","0.0-580.0","","img/set2/S1.jpg","83","1","structured_load","83","random,structured_load,structured_incentive,structured_normal","3,4,2,1,2,3","true","",""
"null","","html-keyboard-response","581","429102","0.0-581.0","","<img src=""img/set2/S1.jpg"" width=""540"" height = ""360"" style=""border:16px solid orange"">","null","","","","","","","",""
"null","","html-keyboard-response","582","429307","0.0-582.0","","","null","","","","","","","",""
"894.1000000238419","","image-keyboard-response","583","430202","0.0-583.0","","img/set2/S3.jpg","72","3","structured_load","72","random,structured_load,structured_incentive,structured_normal","3,4,2,1,2,3","true","",""
"null","","html-keyboard-response","584","430559","0.0-584.0","","<img src=""img/set2/S3.jpg"" width=""540"" height = ""360"" style=""border:16px solid orange"">","null","","","","","","","",""
"null","","html-keyboard-response","585","430763","0.0-585.0","","","null","","","","","","","",""
"629.6999999880791","","image-keyboard-response","586","431394","0.0-586.0","","img/set2/S4.jpg","74","4","structured_load","74","random,structured_load,structured_incentive,structured_normal","3,4,2,1,2,3","true","",""
"null","","html-keyboard-response","587","431751","0.0-587.0","","<img src=""img/set2/S4.jpg"" width=""540"" height = ""360"" style=""border:16px solid orange"">","null","","","","","","","",""
"null","","html-keyboard-response","588","431953","0.0-588.0","","","null","","","","","","","",""
"687.8000000119209","","image-keyboard-response","589","432642","0.0-589.0","","img/set2/S3.jpg","72","3","structured_load","72","random,structured_load,structured_incentive,structured_normal","3,4,2,1,2,3","true","",""
"null","","html-keyboard-response","590","432999","0.0-590.0","","<img src=""img/set2/S3.jpg"" width=""540"" height = ""360"" style=""border:16px solid orange"">","null","","","","","","","",""
"null","","html-keyboard-response","591","433202","0.0-591.0","","","null","","","","","","","",""
"887.5","","image-keyboard-response","592","434090","0.0-592.0","","img/set2/S4.jpg","74","4","structured_load","74","random,structured_load,structured_incentive,structured_normal","3,4,2,1,2,3","true","",""
"null","","html-keyboard-response","593","434444","0.0-593.0","","<img src=""img/set2/S4.jpg"" width=""540"" height = ""360"" style=""border:16px solid orange"">","null","","","","","","","",""
"null","","html-keyboard-response","594","434646","0.0-594.0","","","null","","","","","","","",""
"1602.699999988079","","image-keyboard-response","595","436250","0.0-595.0","","img/set2/S1.jpg","83","1","structured_load","83","random,structured_load,structured_incentive,structured_normal","3,4,2,1,2,3","true","",""
